time,seconds_elapsed,z,y,x
1761430231866737400,0.0837373046875,-0.05807892233133316,-0.049405232071876526,-0.006816415581852198
1761430231886681300,0.103681396484375,-0.06966913491487503,-0.07677996903657913,0.01942537911236286
1761430231906624300,0.123624267578125,-0.07561171799898148,-0.13430877029895782,-0.044148802757263184
1761430231926567400,0.1435673828125,-0.08535928279161453,-0.09679751843214035,-0.04829168692231178
1761430231946511400,0.163511474609375,-0.08702272921800613,-0.0186486653983593,0.014252237975597382
1761430231966454300,0.183454345703125,-0.07261086255311966,0.04275042191147804,0.04936729744076729
1761430231986398200,0.203398193359375,-0.05446670204401016,0.07274209707975388,0.012871875427663326
1761430232006341000,0.223341064453125,-0.037316836416721344,0.08298792690038681,-0.025542018935084343
1761430232026285300,0.243285400390625,-0.02353798970580101,0.027433620765805244,-0.0353415310382843
1761430232046228500,0.263228515625,0.013192566111683846,-0.004810138139873743,-0.002012628363445401
1761430232066172400,0.28317236328125,0.031233176589012146,0.00832152646034956,0.05761547014117241
1761430232086115300,0.303115234375,0.033526886254549026,0.02768295258283615,0.13687299191951752
1761430232106059300,0.323059326171875,0.01801598258316517,0.033048465847969055,0.18855513632297516
1761430232126002400,0.34300244140625,-0.023232130333781242,-0.008905316703021526,0.15276506543159485
1761430232145945300,0.3629453125,-0.07537180185317993,-0.07050903886556625,0.03898082673549652
1761430232165889300,0.38288916015625,-0.08865893632173538,-0.07816310971975327,-0.03156623616814613
1761430232185832200,0.402832275390625,-0.08606702089309692,-0.02085830084979534,0.0012527226936072111
1761430232205776100,0.422776123046875,-0.06013275310397148,0.05363619700074196,0.07291756570339203
1761430232225718800,0.44271875,-0.034063030034303665,0.019881440326571465,0.07362983375787735
1761430232245663000,0.4626630859375,0.011894872412085533,0.04396387189626694,0.04269429296255112
1761430232265606000,0.48260595703125,0.040481023490428925,0.0006940928287804127,0.011667318642139435
1761430232285549800,0.5025498046875,0.04830280691385269,-0.06600720435380936,-0.010915601626038551
1761430232305493000,0.522492919921875,0.03884971886873245,-0.09580469876527786,-0.0076011293567717075
1761430232325437000,0.54243701171875,0.0184186901897192,-0.08268211036920547,0.01232832483947277
1761430232345379800,0.5623798828125,0.009433138184249401,-0.017823444679379463,0.021602779626846313
1761430232365323800,0.58232373046875,0.004501872695982456,-0.020821861922740936,0.01811021752655506
1761430232385266700,0.6022666015625,0.012309480458498001,-0.04030142351984978,0.013088458217680454
1761430232405209900,0.6222099609375,0.036079294979572296,-0.06433244794607162,0.008442187681794167
1761430232425153800,0.64215380859375,0.05876929685473442,-0.05942573398351669,0.018921656534075737
1761430232445096700,0.6620966796875,0.0622173473238945,-0.012835193425416946,0.015947213396430016
1761430232465041000,0.682041015625,0.05774598568677902,0.04860549420118332,0.017236603423953056
1761430232484983800,0.70198388671875,0.04494914785027504,0.05032380297780037,0.02765020914375782
1761430232504928000,0.721927978515625,0.011256447993218899,-0.053187258541584015,0.013226245529949665
1761430232524871000,0.741870849609375,-0.013206512667238712,-0.051101990044116974,-0.0265460554510355
1761430232544814800,0.76181494140625,-0.0007433608407154679,0.0211395975202322,-0.03405597433447838
1761430232564757800,0.7817578125,0.022121943533420563,0.041363563388586044,-0.001199929160065949
1761430232584701700,0.80170166015625,0.04067741706967354,0.028622640296816826,0.04509881138801575
1761430232604644900,0.821644775390625,0.04147130623459816,0.023864105343818665,0.08976774662733078
1761430232624588800,0.8415888671875,0.01583590917289257,-0.04522470757365227,0.06566505134105682
1761430232644531700,0.86153173828125,0.013911097310483456,-0.028361594304442406,-0.014347203075885773
1761430232664474600,0.881474609375,0.014794311486184597,0.03269750997424126,-0.04931708052754402
1761430232684418800,0.901418701171875,0.00834317971020937,0.08575597405433655,0.03199286386370659
1761430232704362000,0.921362060546875,-0.004903328604996204,0.06750279664993286,0.144013449549675
1761430232724306000,0.941305908203125,0.014287584461271763,0.09384956955909729,0.18883293867111206
1761430232744248800,0.961248779296875,0.023411868140101433,0.14556050300598145,0.1133485808968544
1761430232764192800,0.98119287109375,0.061194904148578644,0.16662870347499847,0.0274304561316967
1761430232784136000,1.001135986328125,0.014828739687800407,0.23425088822841644,0.0019866146612912416
1761430232804079900,1.021079833984375,0.0007989602745510638,0.10707604140043259,0.015666984021663666
1761430232824022800,1.041022705078125,-0.02178838476538658,0.046321939677000046,0.06676387041807175
1761430232843966700,1.060966796875,0.019667839631438255,0.05938224494457245,0.09789948910474777
1761430232863909600,1.08090966796875,0.06237582489848137,0.08718210458755493,0.1271592080593109
1761430232883853800,1.100853759765625,0.06848768889904022,0.09844126552343369,0.09523756802082062
1761430232903797000,1.120796875,0.07396399229764938,0.10479655861854553,0.016261180862784386
1761430232923740000,1.140739990234375,0.04394984245300293,0.04729318246245384,-0.030329003930091858
1761430232943683800,1.160683837890625,0.002400500699877739,-0.03761053457856178,-0.02209945023059845
1761430232963626800,1.180626708984375,-0.008115559816360474,-0.04641389101743698,0.0389200821518898
1761430232983570700,1.20057080078125,-0.019622042775154114,0.012909818440675735,0.08967404812574387
1761430233003513900,1.220513916015625,-0.027260776609182358,0.04334809258580208,0.09399621933698654
1761430233023457800,1.240457763671875,-0.0430113822221756,0.023510634899139404,0.05275058373808861
1761430233043400700,1.260400634765625,-0.03997785970568657,0.05192340165376663,0.017822276800870895
1761430233063344600,1.2803447265625,-0.03698016703128815,0.04809937998652458,0.006157510913908482
1761430233083287800,1.300287841796875,-0.04249093681573868,-0.017763487994670868,0.029038498178124428
1761430233103232000,1.32023193359375,-0.03547221049666405,-0.08464346081018448,0.05444757267832756
1761430233123175000,1.3401748046875,-0.004999992437660694,-0.053676143288612366,0.052375003695487976
1761430233143117800,1.360117919921875,0.019436486065387726,0.07723050564527512,0.011547849513590336
1761430233163061800,1.380061767578125,0.03163592144846916,0.09213043004274368,-0.014853108674287796
1761430233183005000,1.4000048828125,0.02962702512741089,0.07684572786092758,0.012389405630528927
1761430233202948900,1.419948974609375,0.020773520693182945,0.017212871462106705,0.03890763968229294
1761430233222891500,1.4398916015625,0.025001438334584236,-0.08226227760314941,0.009672839194536209
1761430233242835500,1.45983544921875,0.03235091641545296,-0.07647144794464111,-0.05559351667761803
1761430233262778600,1.479778564453125,0.023970434442162514,-0.04450122267007828,-0.09514918178319931
1761430233282722600,1.49972265625,0.001826066873036325,-0.01222161203622818,-0.054195210337638855
1761430233302665500,1.51966552734375,-0.001972042489796877,0.023445723578333855,0.027460161596536636
1761430233322609700,1.539609619140625,-0.007228589616715908,-0.06501969695091248,0.06572925299406052
1761430233342552600,1.559552490234375,-0.040596187114715576,-0.0907912403345108,0.03626079857349396
1761430233362495700,1.579495849609375,-0.03851427510380745,-0.043383825570344925,-0.025794368237257004
1761430233382439700,1.599439697265625,-0.03211053088307381,-0.03500993177294731,-0.08799321204423904
1761430233402382600,1.619382568359375,-0.05296894907951355,0.035684533417224884,-0.06505101174116135
1761430233422326500,1.639326416015625,-0.031775109469890594,0.038588013499975204,-0.018502218648791313
1761430233442269400,1.65926953125,-0.0017980639822781086,-0.019819969311356544,0.014925753697752953
1761430233462213600,1.679213623046875,0.03297480195760727,-0.042449984699487686,0.0605936162173748
1761430233482156500,1.699156494140625,0.05579635873436928,-0.03088264726102352,0.08453737199306488
1761430233502100500,1.7191005859375,0.063574880361557,-0.028602726757526398,0.043160490691661835
1761430233522043400,1.73904345703125,0.05779961124062538,0.037016578018665314,0.014057102613151073
1761430233541987600,1.758987548828125,0.037135761231184006,0.10843541473150253,-0.01216965727508068
1761430233561930800,1.7789306640625,0.040633007884025574,0.0973551794886589,-0.006071262992918491
1761430233581873700,1.798873779296875,0.06671247631311417,0.03093346767127514,0.02959655039012432
1761430233601817600,1.818817626953125,0.10080032050609589,-0.0069493516348302364,0.07869093865156174
1761430233621760500,1.838760498046875,0.13292589783668518,-0.02146027982234955,0.09857349097728729
1761430233641704400,1.858704345703125,0.12679888308048248,-0.05944019556045532,0.052127111703157425
1761430233661647600,1.878647705078125,0.10366321355104446,-0.07110889256000519,-0.029902122914791107
1761430233681591600,1.898591552734375,0.0902494341135025,-0.027401026338338852,-0.06059369817376137
1761430233701534500,1.918534423828125,0.06665487587451935,0.040007177740335464,-0.04109713062644005
1761430233721478400,1.938478515625,0.06667762249708176,0.08110636472702026,0.003247913671657443
1761430233741421600,1.958421630859375,0.06346611678600311,0.018619287759065628,0.02543337643146515
1761430233761365800,1.97836572265625,0.05811633542180061,-0.05743320658802986,0.011204084381461143
1761430233781308700,1.99830859375,0.06325193494558334,-0.037894345819950104,0.012323142029345036
1761430233801251600,2.01825146484375,0.051233019679784775,0.04093807190656662,0.05486084520816803
1761430233821195500,2.038195556640625,0.02017393335700035,0.0851958841085434,0.10757122188806534
1761430233841138700,2.058138671875,-0.022245345637202263,0.12980033457279205,0.07786513864994049
1761430233861082600,2.07808251953125,-0.024271221831440926,0.10268861800432205,-0.00653056101873517
1761430233881025500,2.098025634765625,-0.029906675219535828,-0.023364579305052757,-0.03574766591191292
1761430233900969500,2.117969482421875,-0.001254501985386014,-0.10856959968805313,0.007711905054748058
1761430233920912400,2.137912353515625,-0.011778636835515499,-0.062153879553079605,0.005019156262278557
1761430233940856600,2.157856689453125,-0.01645680144429207,0.054010406136512756,-0.041388869285583496
1761430233960799500,2.177799560546875,0.01919851265847683,0.11717742681503296,-0.05337904766201973
1761430233980742400,2.197742431640625,0.05935746431350708,0.023970192298293114,0.022109389305114746
1761430234000686600,2.2176865234375,0.08928439766168594,-0.09111066907644272,0.10236064344644547
1761430234020629800,2.237629638671875,0.11334513872861862,-0.09845050424337387,0.09742201119661331
1761430234040573700,2.25757373046875,0.12085229903459549,-0.04608430713415146,0.06044932082295418
1761430234060516600,2.2775166015625,0.10800068080425262,-0.024022947996854782,0.05861653387546539
1761430234080460500,2.29746044921875,0.07496359199285507,-0.0062876371666789055,0.08261972665786743
1761430234100403500,2.317403564453125,0.026793697848916054,-0.015357228927314281,0.06583917140960693
1761430234120347400,2.337347412109375,-0.006882607936859131,-0.027069371193647385,0.01539192907512188
1761430234140290600,2.35729052734375,-0.021648062393069267,-0.06230340898036957,-0.013980533927679062
1761430234160233500,2.3772333984375,-0.01430560927838087,-0.07737880945205688,0.008107672445476055
1761430234180177400,2.397177490234375,0.0070757269859313965,-0.08605773746967316,0.05812907963991165
1761430234200120600,2.41712060546875,0.015345189720392227,-0.10044046491384506,0.08654001355171204
1761430234220064300,2.437064208984375,0.0005836652126163244,-0.04003168269991875,0.10791072249412537
1761430234240007200,2.457007080078125,-0.021672086790204048,0.01448787935078144,0.09235696494579315
1761430234259951400,2.476951416015625,-0.03281877934932709,0.07682841271162033,0.06176760420203209
1761430234279894300,2.496894287109375,-0.05416189879179001,0.03149249777197838,0.008171857334673405
1761430234299838200,2.516838134765625,-0.07393064349889755,-0.05115720257163048,-0.053358130156993866
1761430234319781400,2.536781494140625,-0.09642113745212555,-0.06096465140581131,-0.09144670516252518
1761430234339724300,2.556724365234375,-0.10319594293832779,-0.050730980932712555,-0.0737522765994072
1761430234359668200,2.576668212890625,-0.08333433419466019,-0.07593660056591034,-0.03286619484424591
1761430234379611100,2.596611083984375,-0.046149082481861115,-0.017242642119526863,-0.030359338968992233
1761430234399555300,2.616555419921875,-0.028604377061128616,0.04274327680468559,-0.05478168651461601
1761430234419498200,2.636498291015625,-0.014759806916117668,0.016508907079696655,-0.034582339227199554
1761430234439442200,2.656442138671875,-0.023428816348314285,-0.0764140784740448,0.02177671156823635
1761430234459385000,2.676385009765625,-0.026339678093791008,-0.10763624310493469,0.05239425227046013
1761430234479329300,2.696329345703125,-0.027376065030694008,-0.11860930919647217,0.028549857437610626
1761430234499272400,2.7162724609375,-0.0235152430832386,-0.07864111661911011,-0.05939023941755295
1761430234519215400,2.73621533203125,-0.032991375774145126,0.034387677907943726,-0.1367713361978531
1761430234539159300,2.7561591796875,-0.055399734526872635,0.09154358506202698,-0.12327484786510468
1761430234559102200,2.776102294921875,-0.08009866625070572,0.03966900706291199,-0.024491790682077408
1761430234579046100,2.796046142578125,-0.06977733969688416,-0.026562629267573357,0.0725194588303566
1761430234598989300,2.8159892578125,-0.054002612829208374,-0.11951425671577454,0.059778351336717606
1761430234618933200,2.835933349609375,-0.03798425942659378,-0.08043962717056274,-0.04513610526919365
1761430234638876200,2.855876220703125,-0.057620227336883545,0.012239847332239151,-0.12600746750831604
1761430234658820000,2.875820068359375,-0.11205369979143143,0.062295474112033844,-0.10599585622549057
1761430234678763300,2.89576318359375,-0.06894591450691223,0.0718429908156395,-0.017413301393389702
1761430234698706200,2.9157060546875,-0.08634268492460251,-0.0820077434182167,0.04522654786705971
1761430234718650400,2.935650390625,-0.05105376988649368,-0.06254234164953232,0.02340114116668701
1761430234738593300,2.95559326171875,-0.030880747362971306,-0.016585467383265495,-0.052392516285181046
1761430234758537200,2.975537109375,-0.01114172674715519,0.030798744410276413,-0.07234907895326614
1761430234778480400,2.99548046875,-0.008170539513230324,0.0127410888671875,-0.004785002674907446
1761430234798424300,3.01542431640625,-0.008828341029584408,-0.021238449960947037,0.04705316200852394
1761430234818367200,3.0353671875,-0.0033914598170667887,-0.02790086716413498,0.013430898077785969
1761430234838310100,3.05531005859375,0.0020895141642540693,0.01104099489748478,-0.03278274089097977
1761430234858254000,3.075254150390625,-0.0029613326769322157,0.0222726222127676,-0.02029241994023323
1761430234878197200,3.095197265625,-0.014066426083445549,-0.012253779917955399,0.00015983317280188203
1761430234898141200,3.11514111328125,-0.020735029131174088,-0.02008529007434845,-0.019160866737365723
1761430234918084000,3.135083984375,-0.01341384556144476,-0.022676046937704086,-0.07370417565107346
1761430234938028300,3.1550283203125,-0.0023613690864294767,-0.018060903996229172,-0.09576001763343811
1761430234957971500,3.174971435546875,-0.01419643685221672,-0.016092944890260696,-0.0391090102493763
1761430234977915400,3.194915283203125,-0.014518349431455135,0.00023843906819820404,0.00787491537630558
1761430234997858300,3.2148583984375,-0.011730690486729145,0.030505426228046417,-0.015247642993927002
1761430235017801200,3.23480126953125,0.015849566087126732,0.0017436230555176735,-0.05621209740638733
1761430235037745200,3.2547451171875,0.022258207201957703,-0.0749829038977623,-0.021056383848190308
1761430235057688300,3.274688232421875,0.029557004570961,-0.039916958659887314,0.017870169132947922
1761430235077632300,3.29463232421875,-0.008200760930776596,-0.006246346980333328,0.0020299542229622602
1761430235097575200,3.3145751953125,0.004090276546776295,0.051138244569301605,-0.02865322306752205
1761430235117519000,3.33451904296875,0.02309320867061615,0.0384255051612854,-0.029697494581341743
1761430235137462000,3.3544619140625,0.04947580397129059,-0.013821927830576897,0.007486503571271896
1761430235157405200,3.3744052734375,0.05890122056007385,-0.04153471067547798,0.026175308972597122
1761430235177349400,3.394349365234375,0.02710290066897869,-0.04711281880736351,0.007132304832339287
1761430235197292300,3.414292236328125,0.00989358127117157,0.002787431702017784,-0.022555792704224586
1761430235217236500,3.434236572265625,-0.0038716751150786877,0.050276003777980804,-0.06260528415441513
1761430235237179400,3.454179443359375,0.00894270371645689,0.061061497777700424,-0.05258913338184357
1761430235257123600,3.47412353515625,0.01954297535121441,-0.016861915588378906,0.027173534035682678
1761430235277066800,3.494066650390625,0.023993127048015594,-0.05880302935838699,0.07245910912752151
1761430235297010700,3.5140107421875,0.006254664622247219,-0.04995986819267273,0.050073426216840744
1761430235316953600,3.53395361328125,-0.008631899952888489,0.015783125534653664,-0.00003823271254077554
1761430235336896800,3.553896728515625,-0.034126393496990204,0.09693589806556702,-0.0021453741937875748
1761430235356840700,3.5738408203125,-0.04380492866039276,0.10748864710330963,0.04583091661334038
1761430235376783600,3.59378369140625,-0.04685667157173157,0.044873133301734924,0.09304127842187881
1761430235396727600,3.6137275390625,-0.045473042875528336,0.006885225884616375,0.07962635904550552
1761430235416670500,3.63367041015625,-0.03267155587673187,-0.0024348534643650055,0.031907133758068085
1761430235436614400,3.653614501953125,-0.020606979727745056,-0.022428026422858238,-0.003595491172745824
1761430235456557600,3.6735576171875,-0.012453252449631691,-0.027708033099770546,0.007989233359694481
1761430235476500500,3.69350048828125,0.00021971212117932737,-0.02056095376610756,0.02459058351814747
1761430235496444700,3.713444580078125,0.004557735286653042,0.024706393480300903,-0.005068242084234953
1761430235516387600,3.7333876953125,0.014240887947380543,0.026365451514720917,-0.032346516847610474
1761430235536331800,3.753331787109375,0.018564285710453987,-0.017997337505221367,-0.024398868903517723
1761430235556274700,3.773274658203125,0.01629519648849964,-0.029050543904304504,-0.003352996427565813
1761430235576218600,3.793218505859375,0.013108255341649055,0.00972276646643877,0.011116660200059414
1761430235596161500,3.81316162109375,0.02717573381960392,0.03604241460561752,0.012797187082469463
1761430235616105500,3.83310546875,0.0370926596224308,-0.012734942138195038,0.032207272946834564
1761430235636048600,3.853048583984375,0.0395725816488266,-0.07581344991922379,0.059832919389009476
1761430235655991600,3.872991455078125,0.02699314057826996,-0.06425239890813828,0.06178687885403633
1761430235675935500,3.892935546875,0.0023869925644248724,-0.024936791509389877,0.045681487768888474
1761430235695878400,3.91287841796875,-0.02410222962498665,0.0008757449686527252,0.036185260862112045
1761430235715822600,3.932822509765625,-0.04249977692961693,0.06438902765512466,0.039907876402139664
1761430235735765800,3.952765869140625,-0.041553013026714325,0.06229040399193764,-0.000518255983479321
1761430235755709700,3.972709716796875,-0.03040459007024765,0.05426221340894699,-0.05795017257332802
1761430235775652600,3.992652587890625,-0.014787786640226841,0.015329264104366302,-0.044747792184352875
1761430235795595500,4.012595458984375,0.007737650536000729,-0.050034329295158386,0.036122120916843414
1761430235815539700,4.032539794921875,0.024915140122175217,-0.08295756578445435,0.06789128482341766
1761430235835482600,4.052482666015625,0.04540315270423889,-0.06964927166700363,0.026306021958589554
1761430235855426600,4.072426513671875,0.04134528338909149,-0.027640238404273987,-0.04044622927904129
1761430235875369500,4.092369384765625,0.034731458872556686,-0.0017307717353105545,-0.061964113265275955
1761430235895313400,4.1123134765625,0.030415544286370277,-0.01356399618089199,-0.03504195064306259
1761430235915256600,4.132256591796875,0.03175255283713341,-0.038863133639097214,0.0236927829682827
1761430235935200800,4.15220068359375,0.04490693286061287,-0.07660572975873947,0.06660415232181549
1761430235955143700,4.172143798828125,0.04094412177801132,-0.030420728027820587,0.052358079701662064
1761430235975086600,4.192086669921875,0.01927283965051174,0.026802323758602142,0.010876661166548729
1761430235995030500,4.212030517578125,-0.016765853390097618,0.016403213143348694,-0.004377925768494606
1761430236014973700,4.2319736328125,-0.06001277640461922,0.002594234887510538,0.020075799897313118
1761430236034917600,4.251917724609375,-0.03012853115797043,-0.029316604137420654,0.015147038735449314
1761430236054860500,4.271860595703125,-0.05197550728917122,-0.06429988890886307,-0.01999497041106224
1761430236074804500,4.291804443359375,-0.04583928361535072,-0.031767766922712326,-0.05018708109855652
1761430236094747600,4.31174755859375,-0.043806515634059906,0.05539689213037491,-0.024221817031502724
1761430236114691600,4.331691650390625,-0.017878549173474312,0.06752225756645203,0.034136418253183365
1761430236134634500,4.351634521484375,0.012042459100484848,-0.01972939819097519,0.03420946002006531
1761430236154577400,4.371577392578125,0.03695590794086456,-0.07252972573041916,-0.009872342459857464
1761430236174521600,4.391521484375,0.04148351401090622,-0.012428586371243,-0.04400435835123062
1761430236194464800,4.41146484375,0.04168447107076645,0.03786837309598923,-0.02649344503879547
1761430236214408700,4.43140869140625,0.042676813900470734,0.026127247139811516,0.01210960652679205
1761430236234351400,4.451351318359375,0.05320606753230095,-0.0017866403795778751,-0.01475517638027668
1761430236254295300,4.47129541015625,0.07223615795373917,0.02714952826499939,-0.06056265905499458
1761430236274238500,4.491238525390625,0.06853368133306503,0.038382165133953094,-0.05849210172891617
1761430236294182700,4.5111826171875,0.059365928173065186,0.03598756715655327,-0.011255006305873394
1761430236314125600,4.53112548828125,0.05660786107182503,-0.003387096105143428,0.0038634438533335924
1761430236334069500,4.551069580078125,0.05247535929083824,0.00106488773599267,-0.025382883846759796
1761430236354012400,4.571012451171875,0.03767445683479309,0.023995282128453255,-0.03015175834298134
1761430236373955600,4.59095556640625,0.017031081020832062,-0.014838711358606815,-0.0003920463495887816
1761430236393899500,4.6108994140625,-0.017685038968920708,-0.06206885725259781,0.02261846512556076
1761430236413842400,4.630842529296875,-0.04505293816328049,-0.016417190432548523,-0.01366841234266758
1761430236433786400,4.650786376953125,-0.04017767682671547,0.05023634806275368,-0.07200594991445541
1761430236453729300,4.670729248046875,0.0006330947508104146,0.06558581441640854,-0.09104587882757187
1761430236473673200,4.690673095703125,-0.004714289214462042,-0.018989410251379013,-0.0760306864976883
1761430236493616400,4.710616455078125,-0.002774394117295742,-0.025034833699464798,-0.04540566727519035
1761430236513559300,4.730559326171875,0.001871846616268158,0.03009568154811859,-0.01226003561168909
1761430236533503500,4.75050341796875,0.0017487446311861277,0.016919611021876335,-0.0020805380772799253
1761430236553446700,4.77044677734375,0.014171554706990719,-0.052903689444065094,-0.0035568734165281057
1761430236573390600,4.790390625,0.0018146379152312875,-0.08256247639656067,-0.04521319270133972
1761430236593333500,4.81033349609375,-0.00930950976908207,-0.03590386360883713,-0.11082418262958527
1761430236613277400,4.83027734375,-0.009860394522547722,-0.0044655390083789825,-0.15935760736465454
1761430236633220400,4.850220458984375,-0.014040439389646053,0.023251716047525406,-0.13045692443847656
1761430236653163500,4.87016357421875,-0.02627694047987461,-0.040700122714042664,-0.07100135087966919
1761430236673107500,4.890107421875,0.02085253596305847,-0.01068714540451765,-0.04483659565448761
1761430236693050400,4.91005029296875,0.008503471501171589,-0.0008897013030946255,-0.09624054282903671
1761430236712994300,4.929994384765625,0.02829551510512829,0.007344249170273542,-0.10374095290899277
1761430236732937200,4.949937255859375,0.021168386563658714,0.020588219165802002,-0.042577970772981644
1761430236752881400,4.96988134765625,0.009748944081366062,0.004987132735550404,0.0005886514554731548
1761430236772824600,4.989824462890625,0.002699264558032155,0.027978666126728058,-0.00822031032294035
1761430236792767500,5.009767578125,0.01787419617176056,0.06758885085582733,-0.06513155251741409
1761430236812711400,5.02971142578125,0.039887405931949615,0.04357767105102539,-0.07786381244659424
1761430236832654600,5.049654541015625,0.04286230728030205,-0.02219970151782036,-0.026503372937440872
1761430236852598500,5.0695986328125,0.022320369258522987,-0.05040455609560013,0.00325365224853158
1761430236872541400,5.08954150390625,0.0054224105551838875,-0.003269453765824437,-0.04911564290523529
1761430236892484400,5.109484375,0.004172056447714567,0.009831167757511139,-0.10517597943544388
1761430236912428300,5.12942822265625,0.008162548765540123,-0.0010758675634860992,-0.09435570985078812
1761430236932371500,5.149371337890625,0.01654483564198017,-0.004780265036970377,-0.06438300758600235
1761430236952315400,5.1693154296875,0.011000428348779678,-0.062462400645017624,-0.021530063822865486
1761430236972258300,5.18925830078125,0.02519308403134346,-0.06235656887292862,0.006204556208103895
1761430236992202500,5.209202392578125,0.016221655532717705,-0.040217988193035126,0.013266314752399921
1761430237012145400,5.2291455078125,0.0214692372828722,-0.00393005833029747,0.018231121823191643
1761430237032088600,5.249088623046875,0.014430995099246502,-0.007060881704092026,0.02905353344976902
1761430237052032500,5.269032470703125,-0.006207399535924196,-0.0017076502554118633,0.016491279006004333
1761430237071975400,5.288975341796875,-0.024429302662611008,0.0321178063750267,-0.017116721719503403
1761430237091918600,5.308918701171875,-0.04105653613805771,0.04908546805381775,-0.05043957382440567
1761430237111862500,5.328862548828125,-0.027021901682019234,0.00768309785053134,-0.01514370832592249
1761430237131805400,5.348805419921875,-0.0018858840921893716,-0.06133643910288811,0.06189423054456711
1761430237151749400,5.368749267578125,0.009650343097746372,-0.03599926084280014,0.06658028066158295
1761430237171692300,5.3886923828125,0.017475269734859467,0.036220140755176544,-0.011904648505151272
1761430237191636200,5.40863623046875,-0.0027881900314241648,0.05973505601286888,-0.06492285430431366
1761430237211579600,5.42857958984375,-0.013308298774063587,0.022118818014860153,-0.018529722467064857
1761430237231521800,5.448521728515625,-0.012187071144580841,-0.019765235483646393,0.04548589140176773
1761430237251465700,5.4684658203125,-0.006336510647088289,-0.023694833740592003,0.018658876419067383
1761430237271409000,5.488408935546875,-0.003992434125393629,0.022048674523830414,-0.03089124523103237
1761430237291352800,5.508352783203125,0.005009710788726807,0.04100601375102997,-0.020746659487485886
1761430237311295700,5.528295654296875,0.00854452420026064,0.03931890055537224,0.013784154318273067
1761430237331238700,5.54823876953125,0.018460236489772797,0.014702494256198406,0.01337974052876234
1761430237351182600,5.5681826171875,0.02125542424619198,0.014817995950579643,-0.015556737780570984
1761430237371126000,5.5881259765625,0.018724026158452034,-0.005948883015662432,-0.02407076768577099
1761430237391070000,5.608070068359375,0.006562546826899052,-0.0017072325572371483,0.014345766045153141
1761430237411012900,5.628012939453125,-0.017872296273708344,-0.019581859931349754,0.007529115304350853
1761430237430955800,5.647955810546875,-0.03220139816403389,-0.03322495520114899,-0.052522625774145126
1761430237450899700,5.667899658203125,-0.02915794774889946,0.03453844040632248,-0.053108375519514084
1761430237470843000,5.6878427734375,-0.14226983487606049,-0.0035068008583039045,0.05895262584090233
1761430237490786800,5.707786865234375,-0.1080213338136673,0.10840866714715958,0.2188592255115509
1761430237510729700,5.727729736328125,-0.06610555946826935,-0.043164730072021484,0.23037390410900116
1761430237530673000,5.7476728515625,-0.020880237221717834,0.04945562407374382,0.1952332854270935
1761430237550616800,5.767616943359375,-0.04392572119832039,0.07011307775974274,0.11872366815805435
1761430237570559700,5.787559814453125,-0.013077340088784695,0.07514350116252899,0.107249416410923
1761430237590504000,5.80750390625,0.07650893181562424,0.08560490608215332,0.1302497833967209
1761430237610446800,5.82744677734375,0.00977326650172472,0.06882839649915695,0.1259022355079651
1761430237630390000,5.84739013671875,-0.07276442646980286,0.01501416601240635,0.06621994823217392
1761430237650334000,5.867333984375,-0.03359421715140343,-0.01780557818710804,-0.013379096984863281
1761430237670276900,5.88727685546875,-0.03448436036705971,-0.010984191671013832,-0.07108677178621292
1761430237690220800,5.907220703125,-0.03845016285777092,0.17855069041252136,-0.06204686313867569
1761430237710163700,5.927163818359375,-0.08945243060588837,0.2972989082336426,-0.06825152039527893
1761430237730107000,5.94710693359375,-0.03496306762099266,0.01579671911895275,-0.07219510525465012
1761430237750050800,5.96705078125,-0.018513724207878113,-0.07533977180719376,-0.0010099716018885374
1761430237769993700,5.98699365234375,-0.020458443090319633,-0.095537930727005,0.018142078071832657
1761430237789937700,6.006937744140625,-0.0374562032520771,-0.0064167543314397335,-0.02708600088953972
1761430237809880800,6.026880859375,-0.04861338064074516,0.10394828021526337,-0.053651150315999985
1761430237829823700,6.04682373046875,-0.0461149662733078,0.07626508921384811,-0.04979244992136955
1761430237849768000,6.066767822265625,-0.03482861444354057,0.07044344395399094,-0.0483090914785862
1761430237869710800,6.0867109375,-0.00570645509287715,0.025924429297447205,-0.022748485207557678
1761430237889654000,6.106654052734375,-0.002734585665166378,0.006275315303355455,0.01458610501140356
1761430237909598000,6.126597900390625,-0.013244649395346642,0.03305322676897049,0.027453482151031494
1761430237929540900,6.146540771484375,0.0077296835370361805,0.03387989476323128,0.03946463018655777
1761430237949484800,6.16648486328125,0.036501526832580566,0.03255545720458031,0.061152566224336624
1761430237969427700,6.186427734375,0.05182188004255295,0.0016421549953520298,0.07889676839113235
1761430237989371000,6.206370849609375,0.04555542394518852,-0.03553425520658493,0.05331376940011978
1761430238009314800,6.226314697265625,0.04897371679544449,0.000026566442102193832,-0.011151966638863087
1761430238029257700,6.2462578125,0.028505422174930573,0.043762318789958954,-0.028147608041763306
1761430238049201700,6.26620166015625,0.020701194182038307,0.04508528485894203,0.01359286718070507
1761430238069144800,6.286144775390625,0.022079594433307648,0.042157530784606934,0.0656733289361
1761430238089087700,6.306087646484375,0.015526598319411278,0.003324232529848814,0.042376819998025894
1761430238109032000,6.326031982421875,-0.006392298731952906,0.04000622034072876,-0.026150479912757874
1761430238128974800,6.345974853515625,-0.013038557954132557,0.07534714043140411,-0.01867501065135002
1761430238148918800,6.365918701171875,-0.00719963014125824,0.0764082670211792,0.037517108023166656
1761430238168862000,6.385862060546875,-0.04531867057085037,0.008167387917637825,0.07352406531572342
1761430238188804900,6.405804931640625,-0.027596130967140198,-0.008324237540364265,0.06183091923594475
1761430238208748800,6.425748779296875,-0.015476932749152184,0.039157576858997345,0.04892390966415405
1761430238228692200,6.445692138671875,-0.0012502145254984498,0.05568891391158104,0.04651099070906639
1761430238248635400,6.465635498046875,-0.025512436404824257,0.006428088061511517,0.013576186262071133
1761430238268579300,6.485579345703125,-0.07177140563726425,-0.024812020361423492,0.003846254199743271
1761430238288522200,6.505522216796875,-0.10288519412279129,0.03650511056184769,0.09814157336950302
1761430238308466400,6.525466552734375,-0.06215393543243408,0.14071543514728546,0.23699748516082764
1761430238328409300,6.545409423828125,-0.03587838634848595,0.04823902249336243,0.3375818729400635
1761430238348352500,6.5653525390625,-0.06350522488355637,-0.16670869290828705,0.08619865030050278
1761430238368296400,6.58529638671875,-0.039853762835264206,0.01447198074311018,-0.250736802816391
1761430238388239400,6.6052392578125,-0.019630424678325653,0.046383727341890335,-0.337501585483551
1761430238408183300,6.625183349609375,-0.001556226285174489,-0.018014995381236076,-0.14844028651714325
1761430238428126200,6.645126220703125,0.010667357593774796,-0.043900016695261,0.10463844984769821
1761430238448069400,6.6650693359375,0.0050383079797029495,-0.09921810775995255,0.17494486272335052
1761430238468013300,6.685013427734375,0.0077814385294914246,-0.03366677463054657,0.09105265140533447
1761430238487956200,6.704956298828125,0.008124453946948051,0.03193860128521919,0.001686285249888897
1761430238507900200,6.724900146484375,0.0016330250073224306,0.012107441201806068,-0.032475922256708145
1761430238527843300,6.74484326171875,-0.017005234956741333,-0.005458132363855839,-0.04830821976065636
1761430238547786200,6.7647861328125,-0.028300106525421143,0.018231380730867386,-0.05012202635407448
1761430238567730400,6.78473046875,-0.008279234170913696,0.08516974002122879,-0.003191246185451746
1761430238587673300,6.80467333984375,-0.00018979073502123356,0.04574258625507355,0.054288484156131744
1761430238607617300,6.8246171875,0.0004465603269636631,0.002433705609291792,0.056757260113954544
1761430238627560400,6.844560546875,-0.013615601696074009,-0.006221139337867498,0.018737778067588806
1761430238647503400,6.86450341796875,-0.014717580750584602,0.03428555279970169,0.017810344696044922
1761430238667447300,6.884447265625,0.014181888662278652,0.060283441096544266,0.053453367203474045
1761430238687390200,6.90439013671875,0.0034297320526093245,0.0017393268644809723,0.019582146778702736
1761430238707334400,6.92433447265625,0.00818465743213892,-0.01661975309252739,-0.09325949847698212
1761430238727277300,6.94427734375,-0.03213948756456375,0.018388332799077034,-0.140814870595932
1761430238747220200,6.96422021484375,-0.04462575539946556,0.033401623368263245,-0.08674431592226028
1761430238767164200,6.9841640625,-0.018871460109949112,-0.030264459550380707,0.015958333387970924
1761430238787107300,7.004107421875,-0.07368509471416473,-0.05273565649986267,0.02376088686287403
1761430238807050200,7.02405029296875,-0.0769597738981247,0.020138945430517197,-0.07468610256910324
1761430238826994400,7.043994384765625,-0.07156628370285034,0.05722972750663757,-0.14136308431625366
1761430238846937300,7.063937255859375,-0.03818124532699585,0.03615405783057213,-0.08586368709802628
1761430238866881300,7.08388134765625,-0.03580905497074127,-0.0697852075099945,0.013721449300646782
1761430238886824400,7.103824462890625,-0.029671598225831985,-0.050527431070804596,0.10447701811790466
1761430238906767400,7.123767333984375,-0.03272439166903496,-0.07684366405010223,0.14127592742443085
1761430238926711300,7.143711181640625,-0.029956873506307602,-0.06600426882505417,0.12220083177089691
1761430238946654200,7.163654296875,-0.04144572466611862,-0.02647170051932335,0.017888834699988365
1761430238966598400,7.183598388671875,-0.020745718851685524,0.02255377173423767,-0.06229570135474205
1761430238986541300,7.203541259765625,0.006492596119642258,0.08005914837121964,-0.07474982738494873
1761430239006484200,7.223484130859375,0.017146801576018333,0.05117795988917351,0.041355594992637634
1761430239026428200,7.24342822265625,0.02100733108818531,0.048308879137039185,0.17554521560668945
1761430239046371300,7.263371337890625,0.02599569782614708,0.00635157385841012,0.18896248936653137
1761430239066315500,7.2833154296875,-0.003800915088504553,-0.0810936763882637,0.10949637740850449
1761430239086258400,7.303258544921875,0.004840776324272156,0.025897221639752388,0.08388688415288925
1761430239106201300,7.323201416015625,0.03860190883278847,-0.05000986158847809,0.10204508900642395
1761430239126145300,7.343145263671875,0.009063511155545712,-0.1630161702632904,0.12291819602251053
1761430239146088400,7.36308837890625,0.03793688118457794,-0.09137409180402756,0.09914662688970566
1761430239166032400,7.383032470703125,0.03107907436788082,-0.017123471945524216,0.08253174275159836
1761430239185975300,7.402975341796875,0.03331037238240242,0.016924334689974785,0.0715894028544426
1761430239205918200,7.422918212890625,0.03535696119070053,-0.0004833703860640526,0.037818651646375656
1761430239225862100,7.442862060546875,0.060173504054546356,0.003541036508977413,0.008701971732079983
1761430239245805300,7.462805419921875,0.025174010545015335,-0.025760114192962646,-0.007104277145117521
1761430239265748200,7.482748291015625,-0.059692107141017914,-0.029272280633449554,-0.044993456453084946
1761430239285692400,7.5026923828125,-0.029827343299984932,0.026429887861013412,-0.09742788225412369
1761430239305635300,7.52263525390625,-0.07381878048181534,0.009932992979884148,-0.1288602203130722
1761430239325579500,7.54257958984375,-0.048272594809532166,0.020177850499749184,-0.10125542432069778
1761430239345522400,7.5625224609375,-0.0390150286257267,-0.04543573409318924,-0.05954201519489288
1761430239365466400,7.58246630859375,-0.03300818055868149,-0.06216289848089218,-0.05897856503725052
1761430239385409300,7.6024091796875,-0.03499065339565277,-0.013835974037647247,-0.0700465589761734
1761430239405352400,7.6223525390625,-0.05964301526546478,0.026578620076179504,-0.038553472608327866
1761430239425296400,7.64229638671875,-0.03410300612449646,0.050156187266111374,0.00811178982257843
1761430239445239300,7.6622392578125,-0.007876946590840816,0.020841926336288452,0.03891311213374138
1761430239465182200,7.68218212890625,0.00810275413095951,-0.0025103494990617037,-0.012344385497272015
1761430239485126100,7.702126220703125,0.028240758925676346,0.10038366168737411,-0.07359520345926285
1761430239505069300,7.7220693359375,0.023530829697847366,0.10348314791917801,-0.046018775552511215
1761430239525013500,7.742013427734375,0.031316451728343964,0.0866968110203743,0.04506152868270874
1761430239544956400,7.761956298828125,0.018896030262112617,-0.004775772336870432,0.09187406301498413
1761430239564900400,7.781900390625,0.046000223606824875,-0.0070902216248214245,0.01846875064074993
1761430239584843500,7.801843505859375,0.04904245212674141,-0.0032149632461369038,-0.03648499771952629
1761430239604786400,7.821786376953125,0.05085606500506401,-0.004550006240606308,-0.013223349116742611
1761430239624730400,7.84173046875,0.036458615213632584,-0.015464010648429394,0.0493900366127491
1761430239644673300,7.86167333984375,0.032587453722953796,-0.02011900767683983,0.07273010164499283
1761430239664616400,7.881616455078125,0.020923061296343803,-0.04946964979171753,0.05059165507555008
1761430239684560400,7.901560302734375,0.009776843711733818,-0.08807870745658875,0.036959804594516754
1761430239704503300,7.92150341796875,-0.03777993097901344,-0.01595083624124527,0.030770812183618546
1761430239724447200,7.941447265625,-0.016720404848456383,0.07200160622596741,0.020843345671892166
1761430239744390100,7.96139013671875,-0.06355945765972137,0.14822489023208618,-0.0207824669778347
1761430239764334300,7.981334228515625,-0.030967820435762405,0.1023632287979126,-0.09213660657405853
1761430239784277500,8.001277587890625,-0.024215972051024437,0.024839596822857857,-0.0985342264175415
1761430239804220400,8.021220458984375,-0.014437809586524963,-0.029272548854351044,-0.00768363568931818
1761430239824164400,8.041164306640624,-0.03236161917448044,-0.02928604930639267,0.08487416058778763
1761430239844107300,8.061107177734375,-0.043324682861566544,0.00650772824883461,0.12003619968891144
1761430239864051500,8.081051513671875,-0.07691299170255661,0.02661046013236046,0.06310436874628067
1761430239883994400,8.100994384765626,-0.09927798062562943,0.02555498108267784,-0.05878187716007233
1761430239903937300,8.120937255859374,-0.1169857531785965,0.005418587476015091,-0.1903839409351349
1761430239923881200,8.140881103515625,-0.12382189929485321,-0.1668485552072525,-0.27170467376708984
1761430239943824400,8.160824462890625,-0.2425658106803894,-0.37230727076530457,-0.430711567401886
1761430239963768300,8.180768310546876,-0.1870589703321457,-0.5362710952758789,-0.5574297308921814
1761430239983711200,8.200711181640624,0.14416667819023132,-0.45970970392227173,-0.523258626461029
1761430240003654100,8.220654052734375,0.3213404417037964,-0.5376540422439575,-0.35188496112823486
1761430240023598300,8.240598388671875,0.3487948775291443,-0.2608259320259094,-0.2104044258594513
1761430240043541500,8.26054150390625,0.3848976194858551,0.00039972225204110146,0.09673455357551575
1761430240063484400,8.280484375,0.34277528524398804,0.008631251752376556,0.4853370487689972
1761430240083428400,8.300428466796875,0.2566108703613281,-0.14905411005020142,0.7577212452888489
1761430240103371300,8.320371337890625,0.21910716593265533,-0.19948220252990723,0.8151386976242065
1761430240123315500,8.3403154296875,0.17352056503295898,-0.0789455845952034,0.6475743055343628
1761430240143258400,8.36025830078125,0.13576948642730713,0.11041935533285141,0.39161980152130127
1761430240163201300,8.380201171875,0.07111780345439911,0.26150673627853394,0.20638461410999298
1761430240183145200,8.400145263671876,0.05580320954322815,0.1889314502477646,0.045747075229883194
1761430240203088400,8.42008837890625,0.038238558918237686,0.11543511599302292,-0.08095136284828186
1761430240223032000,8.440031982421875,-0.010379530489444733,0.04294835031032562,-0.13269710540771484
1761430240242975000,8.45997509765625,-0.09109792113304138,-0.100639209151268,-0.10241181403398514
1761430240262918000,8.47991796875,-0.12560029327869415,-0.12961161136627197,-0.07028108835220337
1761430240282862000,8.499862060546874,-0.1030227467417717,0.03197550028562546,-0.0656728520989418
1761430240302805200,8.51980517578125,-0.06663375347852707,0.1557966023683548,-0.08080941438674927
1761430240322749200,8.539749267578125,-0.030772024765610695,0.10093458741903305,-0.06906799226999283
1761430240342692000,8.559692138671876,-0.024757366627454758,-0.03484177216887474,-0.037232231348752975
1761430240362635000,8.579635009765624,-0.029943304136395454,-0.09967801719903946,-0.002445875434204936
1761430240382579200,8.5995791015625,-0.01099229697138071,-0.09791895747184753,-0.017596865072846413
1761430240402522000,8.619522216796875,0.007304785773158073,-0.032278597354888916,-0.08389434218406677
1761430240422466000,8.639466064453124,0.006552001461386681,0.03871477395296097,-0.13113702833652496
1761430240442409000,8.659408935546875,0.0021916176192462444,0.03170740604400635,-0.10175079107284546
1761430240462352100,8.67935205078125,0.001538546639494598,-0.0034733011852949858,0.007761149201542139
1761430240482296300,8.69929638671875,0.015339037403464317,-0.05630183964967728,0.07986318320035934
1761430240502239200,8.7192392578125,0.011556139215826988,-0.04391789436340332,0.049779608845710754
1761430240522182100,8.73918212890625,0.0017304770881310105,0.03027963638305664,-0.04184090718626976
1761430240542126000,8.7591259765625,-0.008843999356031418,0.05357254669070244,-0.09344957768917084
1761430240562069200,8.7790693359375,-0.024390025064349174,0.029150143265724182,-0.04683273285627365
1761430240582013200,8.79901318359375,-0.020781001076102257,0.021164238452911377,-0.015240911394357681
1761430240601956000,8.8189560546875,-0.016850974410772324,0.03756318613886833,-0.06200522184371948
1761430240621899000,8.83889892578125,-0.009337547235190868,0.07074719667434692,-0.09181056916713715
1761430240641843200,8.85884326171875,0.01858215406537056,0.04137631133198738,-0.06128309294581413
1761430240661786000,8.8787861328125,0.034843809902668,-0.03394624590873718,-0.008947644382715225
1761430240681730000,8.89872998046875,0.01831483654677868,-0.07676036655902863,-0.02661815471947193
1761430240701673000,8.9186728515625,0.002695450559258461,-0.050111573189496994,-0.12771889567375183
1761430240721616100,8.9386162109375,-0.010125731118023396,-0.00010803807526826859,-0.15276110172271729
1761430240741560300,8.958560302734375,-0.03098142333328724,0.013581547886133194,-0.08454684913158417
1761430240761503200,8.978503173828125,-0.036324311047792435,-0.0496300533413887,-0.025189561769366264
1761430240781446100,8.998446044921875,-0.02829751744866371,-0.027206165716052055,-0.06149321794509888
1761430240801390000,9.01839013671875,-0.021974870935082436,-0.008892926387488842,-0.08330808579921722
1761430240821333200,9.038333251953125,-0.03926211968064308,-0.0290350504219532,-0.050886694341897964
1761430240841277200,9.058277099609375,-0.06441081315279007,-0.03911450132727623,-0.004660174250602722
1761430240861220000,9.07822021484375,-0.0645487830042839,-0.005684234667569399,0.00587379140779376
1761430240881163000,9.0981630859375,-0.04609539732336998,0.01980935037136078,-0.047997891902923584
1761430240901107200,9.118107177734375,-0.021774526685476303,0.019470559433102608,-0.07414465397596359
1761430240921050000,9.138050048828125,-0.029066840186715126,-0.013003446161746979,-0.057440247386693954
1761430240940994000,9.157994140625,-0.028150584548711777,-0.09712401777505875,-0.07464738935232162
1761430240960937000,9.17793701171875,-0.04192390292882919,-0.12186596542596817,-0.05677121505141258
1761430240980880100,9.197880126953125,-0.048428554087877274,-0.14004075527191162,-0.10853778570890427
1761430241000824300,9.21782421875,-0.045788299292325974,-0.13050690293312073,-0.20218145847320557
1761430241020767200,9.237767333984374,-0.010756644420325756,-0.06216283142566681,-0.24065512418746948
1761430241040711200,9.257711181640625,-0.016348980367183685,-0.10099570453166962,-0.17051611840724945
1761430241060654000,9.277654052734375,-0.06783990561962128,-0.11693126708269119,-0.01969771273434162
1761430241080597200,9.29759716796875,-0.08066459000110626,-0.0960099995136261,0.04842342808842659
1761430241100541200,9.317541259765624,-0.017749307677149773,-0.03913314640522003,0.02387053705751896
1761430241120484000,9.337484130859375,-0.0023663078900426626,0.0583060160279274,-0.027891460806131363
1761430241140427000,9.357427001953125,-0.016443833708763123,0.12463826686143875,-0.004668553825467825
1761430241160371000,9.377370849609376,-0.030505122616887093,0.15047325193881989,0.01660274527966976
1761430241180314000,9.397314208984374,-0.034204766154289246,0.12565380334854126,-0.00158213940449059
1761430241200258000,9.417258056640625,-0.020639901980757713,-0.06703401356935501,-0.011772146448493004
1761430241220201000,9.437200927734375,-0.0029500462114810944,-0.16727565228939056,0.029141489416360855
1761430241240145000,9.457144775390624,0.01553620770573616,-0.0702987089753151,0.13745750486850739
1761430241260088800,9.4770888671875,0.02964826673269272,0.030098380520939827,0.11605917662382126
1761430241280032000,9.497031982421875,0.013861792162060738,0.05995094031095505,0.0023522693663835526
1761430241299976000,9.516975830078126,0.008269814774394035,0.0476267971098423,-0.0742763876914978
1761430241319918800,9.5369189453125,0.008588025346398354,-0.008367241360247135,-0.015398838557302952
1761430241339861800,9.55686181640625,0.02512776292860508,-0.006100509315729141,0.06001822650432587
1761430241359806000,9.576805908203125,0.037249498069286346,0.00491687236353755,0.012424003332853317
1761430241379749000,9.5967490234375,0.04173585772514343,0.07950375974178314,-0.07865823805332184
1761430241399692000,9.616692138671874,0.03535473346710205,0.08795825392007828,-0.07039149105548859
1761430241419636000,9.636635986328125,0.00810170453041792,-0.01767905429005623,0.011229020543396473
1761430241439579100,9.6565791015625,-0.026312893256545067,-0.017376426607370377,0.0687461644411087
1761430241459523000,9.676523193359374,-0.029728753492236137,0.09904617071151733,0.0006574579165317118
1761430241479466000,9.696466064453125,-0.02776878885924816,0.17323946952819824,-0.10446872562170029
1761430241499409000,9.716408935546875,-0.03744667023420334,0.1908770054578781,-0.12379980832338333
1761430241519352800,9.736352783203126,-0.05286654457449913,0.11474483460187912,-0.12201689928770065
1761430241539296000,9.7562958984375,-0.09590831398963928,0.06948966532945633,-0.13509836792945862
1761430241559240000,9.776239990234375,-0.06302483379840851,0.13646985590457916,-0.1408747136592865
1761430241579182800,9.796182861328125,-0.03594641759991646,0.19305507838726044,-0.1136481761932373
1761430241599125800,9.816125732421876,-0.0188489630818367,0.1670258641242981,-0.0624581053853035
1761430241619070000,9.836070068359374,-0.017437946051359177,0.13133101165294647,-0.04117250069975853
1761430241639013000,9.85601318359375,-0.016844492405653,0.1429305076599121,-0.05868672952055931
1761430241658957000,9.87595703125,0.012552822008728981,0.18603157997131348,-0.06250318139791489
1761430241678900000,9.89589990234375,-0.0012384324800223112,0.19219329953193665,0.02539202570915222
1761430241698843000,9.9158427734375,0.02313120849430561,0.03746626898646355,0.13306650519371033
1761430241718787000,9.935787109375,0.04039878398180008,0.020233601331710815,0.18323467671871185
1761430241738730000,9.95572998046875,0.06492466479539871,0.04277626425027847,0.17519702017307281
1761430241758673000,9.9756728515625,0.05526573583483696,-0.11347417533397675,0.14875201880931854
