time,seconds_elapsed,z,y,x
1761506938136446700,0.07644677734375,-0.08684592428207397,0.583573502920568,-0.7318505589168518
1761506938156603000,0.096602783203125,0.3989969799876213,0.3491618127167225,-1.0226875353716314
1761506938176759800,0.116759765625,0.7014508175432682,0.8062392257511616,-0.5234015044219792
1761506938196916000,0.136916015625,1.2936737831264733,0.714433340974152,-0.2068869197446853
1761506938217072600,0.15707275390625,1.2722002024650574,0.8370683715179562,0.20313860006183385
1761506938237228800,0.177228759765625,-0.8409586569547652,0.21531652911156415,1.1895360208470374
1761506938257385700,0.1973857421875,1.2397002008765936,-0.10837620356678962,0.7764404459454118
1761506938277542000,0.2175419921875,0.22712708615362642,-0.7223389995321631,-0.18008498366735876
1761506938297698800,0.23769873046875,-0.7598994993805885,-0.8181345384672284,-2.389637420980632
1761506938317855000,0.25785498046875,0.9412953464508056,-1.2992255720347166,-1.693112369401753
1761506938338011600,0.27801171875,0.6496165854096412,-0.5207984823167324,-0.6392059582933783
1761506938358167800,0.298167724609375,0.6302765096455812,-0.17241612953990698,0.23390052581131457
1761506938378324700,0.31832470703125,0.4347182817101478,-0.505282348755002,1.5447409861855208
1761506938398480600,0.338480712890625,-1.320008247822523,-0.6791779031977057,2.193543770994246
1761506938418637800,0.358637939453125,-1.1683341697990894,-0.3546732696145773,0.8760879841335117
1761506938438793700,0.378793701171875,-0.24250644159317014,0.014895371314883232,-0.5446167264081537
1761506938458950700,0.39895068359375,-0.4590378994524479,0.6309773513913154,-0.6247535084404051
1761506938479106600,0.4191064453125,0.37303953191041944,0.9742200031921266,-0.09206818897500633
1761506938499263700,0.439263671875,0.6470932044118642,0.6648778674274682,0.24709311179630458
1761506938519419600,0.459419677734375,-0.012507599395513535,-0.3186398332029581,-0.19569654042758047
1761506938539576800,0.479576904296875,0.20076281084120273,-0.3581920913904905,-0.14012195272184907
1761506938559732700,0.499732666015625,0.3737298522621393,-0.14959171879142522,-0.2479424951672554
1761506938579889700,0.5198896484375,0.7252852821171283,-0.23301439062654972,-0.042782106954231854
1761506938600045600,0.540045654296875,0.43941374605000016,-0.08195464510917663,0.22175474546551704
1761506938620202800,0.56020263671875,-0.33281039737463,-0.5842994791075586,-0.2449998658441007
1761506938640358700,0.580358642578125,0.37388007438778875,0.7198492285430431,-1.2926999696582555
1761506938660515800,0.600515869140625,-0.2346311781734228,0.5282195722281933,-0.998019177256897
1761506938680671700,0.620671630859375,0.6589058072805404,0.45578678870201106,-0.1743727435003966
1761506938700828200,0.640828125,-0.029098668712377547,-0.4013113944098353,0.6573224836118519
1761506938720984000,0.660984130859375,-0.12301438525021076,-1.940579940533638,0.28208690296187994
1761506938741140000,0.681139892578125,-0.38307226562499996,0.11905483396947383,0.22303959764428435
1761506938761297000,0.701296875,0.18224457285404205,0.6990297278761863,-0.29805881746709345
1761506938781452800,0.721452880859375,-0.31785306673943997,1.1094205007985234,-0.3987675551459193
1761506938801610000,0.74160986328125,-0.5445984600991011,0.664262950399518,-0.5962040711086243
1761506938821766000,0.761765869140625,-0.2058218477964401,0.2470183660596609,-0.18285817470774055
1761506938841923000,0.781923095703125,-0.20202187099158764,-0.4027957877486944,0.019801994187384844
1761506938862079000,0.802078857421875,-0.6016203240036964,-0.37109132045209403,0.07919044109284877
1761506938882236000,0.82223583984375,-0.6915402489036321,0.08056962049156427,-0.06116422440633178
1761506938902391800,0.842391845703125,-0.6866191591143608,0.20520956111699343,0.11320347759276628
1761506938922549000,0.862549072265625,-0.9608236382633447,-0.005806055930256843,0.22042028199136257
1761506938942705000,0.882704833984375,-0.4456085090368986,0.2374400981143117,-0.3191894299097359
1761506938962862000,0.902862060546875,-0.09614625206887721,0.4890200730010867,-0.6470643436435609
1761506938983018000,0.92301806640625,0.08428981005847454,0.3168392135217786,-0.6218728384375571
1761506939003175000,0.9431748046875,0.2710352014631033,-0.15925795728117226,-0.12457264754287897
1761506939023330800,0.963330810546875,0.045861587464809415,-0.3021338118210435,0.053038054965436454
1761506939043488000,0.983488037109375,-0.12142273214459419,-0.1817974136084318,0.15053886344842612
1761506939063644000,1.003643798828125,0.19806641136407852,-0.2938397384673357,0.37348997909165915
1761506939083801000,1.023801025390625,0.4284247345238924,-0.3453653430432081,0.31281375739797945
1761506939103957000,1.04395703125,0.6902355960458517,0.06907002909481524,-0.0924203634135425
1761506939124114000,1.064114013671875,0.5686521203815936,0.29414193628430363,-0.09919767552874982
1761506939144269800,1.084269775390625,0.2838876687735319,0.3792629364699125,0.19334230545163153
1761506939164427000,1.104427001953125,0.2956605241537094,0.30169220553338527,0.19547018432579932
1761506939184583000,1.1245830078125,0.477130020982027,0.5180784097030758,-0.1280083210799843
1761506939204740000,1.144739990234375,0.14867431168556214,0.9740846863746643,-0.5279718810774385
1761506939224896000,1.16489599609375,0.2578361126720905,1.4796160414546726,-0.5899328088194131
1761506939245053000,1.185052978515625,0.773610044825077,1.5957248851001262,-0.28317089880630375
1761506939265208800,1.205208740234375,0.9928560223400592,0.564809765739739,0.3647859366975724
1761506939285366000,1.225365966796875,0.8239923245847225,0.9004664924561977,0.29458383483290673
1761506939305522000,1.24552197265625,0.6236223124533892,0.9858864755883813,-0.3567714109376073
1761506939325679000,1.26567919921875,0.4757493802785873,1.0537515128076076,-0.05121873058378696
1761506939345835000,1.2858349609375,1.0842927815437315,0.7734256281688809,-0.37734585080221295
1761506939365992200,1.3059921875,0.66593760561347,1.4972873072236776,-0.19022037403881548
1761506939386148000,1.326148193359375,-0.0049193362236022945,1.8952476376399396,0.18303163157850502
1761506939406304000,1.346303955078125,0.9349415935099125,1.0262205318033695,-0.0037570144459605215
1761506939426461000,1.3664609375,1.235298166525364,0.29241555088311433,-0.4030900945201516
1761506939446616800,1.386616943359375,1.4727818115204572,0.7825014995500444,0.013473814079165458
1761506939466774000,1.40677392578125,1.1652058086454868,-0.059084349392354484,-0.27229163126498457
1761506939486930000,1.426929931640625,0.26935470103025433,-0.295726575127244,-0.16498203401640057
1761506939507087000,1.447087158203125,-1.5686790572643279,-1.1672504662156105,0.01841141661182046
1761506939527243000,1.467242919921875,-3.459739472347498,-2.4317115988612175,0.4241192924149334
1761506939547400000,1.48739990234375,-4.578349534034729,-2.485302903795242,0.4981834765352308
1761506939567555800,1.507555908203125,-5.789563060617446,-1.504241071884334,1.0755547638148069
1761506939587713000,1.527713134765625,-7.554659592995047,-0.5515153998807072,2.266174853571504
1761506939607869000,1.547868896484375,-8.306447682112456,0.8703168533861637,2.5264912387520075
1761506939628026000,1.568026123046875,-8.525343531015515,-0.47409839820116756,3.644991410323977
1761506939648182000,1.58818212890625,-8.525031980848311,-2.186483038827777,2.8009672283187506
1761506939668339000,1.6083388671875,-6.927516120678186,-4.26671314985305,1.7522841048166156
1761506939688494800,1.628494873046875,-4.181586596709489,-4.561493676301836,1.2159043147474526
1761506939708652000,1.648652099609375,-1.694566952124238,-4.090772353318333,0.43257980837672944
1761506939728808000,1.668807861328125,0.7460878316491841,-2.7396345154777166,-0.1872055562622845
1761506939748965000,1.688965087890625,3.039802580183744,-0.9856754631862044,-0.7620210215792059
1761506939769121000,1.70912109375,4.921836808246374,1.3246367844060063,-1.2340616104677318
1761506939789278000,1.72927783203125,6.56554860240221,3.1257471717119216,-1.7842706039249896
1761506939809433900,1.749433837890625,8.1221748183012,4.592264662140607,-1.912325759821385
1761506939829591000,1.769591064453125,9.118941876605152,5.328884408220649,-1.2782032422721386
1761506939849747000,1.789746826171875,9.711090023386477,5.335321163269877,-1.1610028039976954
1761506939869904100,1.809904052734375,9.610557519057393,4.501787395618856,-1.6336588944360613
1761506939890060000,1.83006005859375,8.900976002028584,3.4519363973811266,-2.107039353626221
1761506939910217000,1.850217041015625,7.493045725125074,3.1726015696063636,-2.1801010827057064
1761506939930372900,1.870372802734375,6.9062740106850855,3.5637715092301367,-2.7162136001408097
1761506939950530000,1.890530029296875,5.922039686217904,3.76818816640377,-2.4946406409829853
1761506939970686000,1.91068603515625,5.20364708622396,3.733312375594675,-2.272096937096864
1761506939990843100,1.930843017578125,4.211490152063965,3.3874861370414493,-2.558840433692932
1761506940010999000,1.9509990234375,2.973032060202956,1.931592331957817,-1.6454028159826992
1761506940031156000,1.971156005859375,-0.20004443343877792,-0.47255496815145015,-0.305055252225697
1761506940051311900,1.991311767578125,-4.969509829047322,-3.458487718720734,0.4233184974260628
1761506940071469000,2.011468994140625,-8.56049024772048,-4.4825086946532124,-0.7839055211290716
1761506940091625000,2.031625,-12.277356223165988,-5.469986238825321,0.7343008016131818
1761506940111782100,2.0517822265625,-14.625297651928662,-4.9168350544363255,1.4527784495420752
1761506940131938000,2.07193798828125,-15.415446159100531,-5.767781436920166,2.9267621841982003
1761506940152094000,2.092093994140625,-14.616000246751307,-5.886345857024192,3.561577798578143
1761506940172251000,2.1122509765625,-12.675576958084106,-5.648271260398626,3.6930890862777828
1761506940192408000,2.132407958984375,-9.746671624377369,-5.283145570352673,4.032244761025906
1761506940212564000,2.15256396484375,-5.677055456334352,-4.586426165245473,3.2234979363679885
1761506940232720000,2.172719970703125,-1.2980933531343937,-3.289185629548132,1.892512221326679
1761506940252877000,2.192876953125,1.9500129547894,-0.9960001655846834,0.8306431607760488
1761506940273033000,2.213032958984375,4.366042415872216,1.1569698952198029,-0.08284180320724845
1761506940293190000,2.23318994140625,5.782070659035444,2.60427590470016,-0.5747068903759122
1761506940313345800,2.253345703125,5.970467909300327,3.312767288404703,-0.9235241274386644
1761506940333503000,2.2735029296875,6.358519716903567,4.055672690625489,-1.4693240722820162
1761506940353659000,2.293658935546875,6.974266765937209,4.081600035825372,-1.5972395274467766
1761506940373816000,2.313816162109375,7.7494532662987705,3.5392587070032953,-1.4731855700157581
1761506940393972000,2.333971923828125,8.172536055272817,2.9029776962459084,-1.3626314378879965
1761506940414129000,2.35412890625,7.934690006706118,2.6639135040611026,-1.3082690024510024
1761506940434284800,2.374284912109375,7.749709286886453,2.626340436992049,-1.8076058868050575
1761506940454442000,2.39444189453125,6.9720590267598626,2.7580703358784318,-2.2032219921827316
1761506940474598000,2.414597900390625,6.532293398532271,3.0148721370667215,-3.086433982977271
1761506940494755000,2.434755126953125,5.848018756717443,2.985607756398618,-3.5512875829711557
1761506940514911000,2.454910888671875,4.795431026992201,2.6263351762950418,-3.5630168914705513
1761506940535068200,2.475068115234375,2.9701778398156162,1.0617559555649756,-2.4796175516352057
1761506940555224000,2.49522412109375,-0.3965437416166067,-0.7279664840251207,-0.6575771890252828
1761506940575381000,2.515381103515625,-4.229932402205467,-1.524522812412679,0.5777075334966182
1761506940595537000,2.535536865234375,-8.854087409603595,-1.973879275806248,2.503030283665657
1761506940615694000,2.555694091796875,-10.944027890521287,-4.108768320997059,5.430049365234375
1761506940635850000,2.57585009765625,-14.354778583294152,-4.4704906323403115,7.871323742210865
1761506940656007200,2.596007080078125,-14.76771173417568,-4.949928345742822,7.916382196599245
1761506940676163000,2.6161630859375,-13.247833240437506,-3.7169220895469186,6.16653057962656
1761506940696320000,2.636320068359375,-9.813357973206042,-3.167292649543285,4.677505781574547
1761506940716475600,2.6564755859375,-5.491889443075657,-4.324117583334446,4.3799023066595195
1761506940736632800,2.6766328125,-1.4867460394650698,-4.723600885534286,3.5517426332622763
1761506940756788700,2.696788818359375,1.3708037845581769,-3.3138147516310212,1.627314786106348
1761506940776946000,2.71694580078125,2.830993241009116,-0.8390159984543919,-0.4814686347082257
1761506940797101800,2.737101806640625,3.737020874723792,1.7069158538267015,-2.0862842964977024
1761506940817258800,2.7572587890625,4.190536795884371,3.691872696225345,-3.2392589846014976
1761506940837414700,2.77741455078125,4.887103933039307,4.59479622644484,-4.769176641795039
1761506940857571800,2.79757177734375,4.974599845662713,3.494489298689365,-6.3396723930925125
1761506940877727700,2.817727783203125,5.545506466972828,2.1487439675420523,-7.326103935343027
1761506940897885000,2.837885009765625,6.608135698240995,1.4741393636092543,-7.144005492961406
1761506940918040800,2.858040771484375,7.3285659415423865,1.5330375427797436,-6.3180509283930055
1761506940938197500,2.878197509765625,7.641092844823002,2.175702701616287,-5.27140194106698
1761506940958353700,2.898353759765625,7.85629919155836,2.942744473966956,-4.471449832761287
1761506940978510600,2.918510498046875,7.491814722025394,3.653065411186218,-3.824410696624219
1761506940998666800,2.938666748046875,7.196226678586005,3.988382822945714,-3.711670160368085
1761506941018823700,2.95882373046875,6.300199629881978,4.753759292432665,-3.747503690293431
1761506941038979800,2.978979736328125,5.70980855590105,4.756817218698561,-3.553167989890277
1761506941059136500,2.999136474609375,5.03299884313941,4.207357290042936,-2.8511697675973173
1761506941079292700,3.019292724609375,3.260686972555518,2.408060089638829,-0.9580728782504796
1761506941099449600,3.03944970703125,-0.07617606170773505,-0.23176439056545495,2.2172841275438664
1761506941119605800,3.059605712890625,-3.6374849802166223,-2.20981744492501,4.559776350989938
1761506941139762700,3.0797626953125,-7.563758845251798,-6.291928060621022,8.268855325821042
1761506941159918800,3.0999189453125,-11.197293042016028,-5.948554183655977,9.638169748604296
1761506941180075500,3.120075439453125,-14.821193148994444,-4.671617015796899,9.322465968853235
1761506941200231700,3.140231689453125,-15.114716661119461,-3.8438884272933005,6.963825451421737
1761506941220388600,3.160388671875,-13.419755156719685,-4.251621086922288,5.181560342100262
1761506941240544800,3.180544677734375,-10.358165107619762,-4.810538579753041,4.176826250439882
1761506941260701700,3.20070166015625,-6.225773626711964,-4.269889441801608,3.3308582408905028
1761506941280857900,3.22085791015625,-0.42061493755578994,-3.660076751253009,1.3142010228484868
1761506941301014800,3.241014892578125,3.912637553870678,-1.660407492890954,-1.1572732620805501
1761506941321170700,3.261170654296875,4.290338647851348,0.4436960995443165,-2.3530644708648323
1761506941341327600,3.28132763671875,5.460839055773616,1.5815530057542024,-2.113281609016657
1761506941361483800,3.30148388671875,5.542794285404682,2.5775457186847923,-1.7858257244125006
1761506941381640700,3.321640625,5.742626537397504,2.964152003654837,-1.8581153000757098
1761506941401796900,3.341796875,6.9101897228240965,2.1686370010137557,-2.0459391343668103
1761506941421953800,3.361953857421875,7.5139078958898775,0.7689608307797461,-1.5836545080780982
1761506941442109700,3.382109619140625,7.86126119787991,-0.35053529302701353,-1.2936676456466316
1761506941462266600,3.4022666015625,7.069987486070394,-0.556684765342623,-1.10722620562464
1761506941482422800,3.4224228515625,6.914571883431076,-0.5726379751473665,-1.48000328720659
1761506941502579700,3.442579833984375,6.4384583460152145,-0.5076660290211439,-1.3094722407609223
1761506941522735900,3.46273583984375,5.797849242925643,-0.9073391547046601,-1.3587734472855926
1761506941542892800,3.482892822265625,5.043126269400119,-2.354937571260333,-1.2757640324264765
1761506941563049000,3.503049072265625,4.112403754889965,-4.124809647476673,-0.6176069976866245
1761506941583205600,3.52320556640625,3.042716421803832,-5.0592345236361025,0.24175913035720586
1761506941603361800,3.54336181640625,0.34756431439220903,-4.96915911591351,1.0650503209352493
1761506941623518700,3.563518798828125,-4.127983016815781,-4.7203760782688855,2.6885902646780013
1761506941643674600,3.583674560546875,-10.957316411161422,-3.184575500516593,4.8374815317362545
1761506941663831800,3.603831787109375,-16.76774456515312,-2.2719588438004252,6.377772114384174
1761506941683987700,3.62398779296875,-21.399617599582673,1.1642667742297053,6.589892185541987
1761506941704145200,3.644145263671875,-22.22775418436527,4.229169016617536,4.934277772146463
1761506941724301000,3.664301025390625,-17.863555935055018,5.144456061586737,3.1403835998296734
1761506941744458200,3.684458251953125,-11.036736569356918,3.131133833186328,2.5654548833966255
1761506941764614100,3.7046142578125,-5.5087663435965775,0.6464435083314776,2.5137843173921106
1761506941784771300,3.724771240234375,-1.1578694744080305,-1.503981836426258,1.893814682227373
1761506941804927200,3.74492724609375,1.8985598309278486,-1.9028624965578316,0.31089374912083145
1761506941825084200,3.765084228515625,3.135017104360461,-2.1530404956921934,-0.5539014182344079
1761506941845240000,3.785239990234375,2.588335408246517,-1.740557718926668,-0.53317719463557
1761506941865397200,3.805397216796875,3.6974066572159527,-0.1996501734241843,-1.090276532128453
1761506941885553200,3.82555322265625,5.29816427578628,0.8478998543947934,-2.1357295876681803
1761506941905710300,3.84571044921875,6.55486178869307,1.369522512575984,-3.3315336559340354
1761506941925866200,3.8658662109375,7.579360903531312,1.0714856146797538,-4.2977880870744585
1761506941946023200,3.886023193359375,9.11801424036622,-0.16796148821860551,-5.365076250064373
1761506941966179000,3.906178955078125,9.895067119121551,-1.442800222493708,-5.710263898453116
1761506941986336300,3.926336181640625,10.112855299043655,-0.43494566072523594,-6.18881723023653
1761506942006492200,3.9464921875,10.427260271155834,1.0519316039040685,-6.377047307240963
1761506942026649300,3.9666494140625,9.994422980886696,2.3096882704749704,-5.667632378950715
1761506942046805200,3.98680517578125,8.978521598523855,3.6851466028407214,-4.793105506654084
1761506942066960100,4.006960205078125,8.583059806925057,4.305498515321314,-4.588776235502958
1761506942087117300,4.027117431640625,8.11630154235363,5.819654832020402,-4.168003477036953
1761506942107273200,4.047273193359375,5.815845502865314,6.880686564964056,-3.5234324845790863
1761506942127430100,4.06743017578125,3.1372394565850494,5.305974072754383,-2.187172482396662
1761506942147586000,4.0875859375,-0.6430395451068878,1.6892741064131258,-0.3643617199361324
1761506942167743200,4.1077431640625,-4.991344644236564,-0.9953414094150066,1.0455246594712138
1761506942187899100,4.127899169921875,-8.270103280055523,-4.44367393708527,3.1836750445455313
1761506942208056300,4.148056396484375,-13.519266501307486,-5.625970581263304,5.803082467404008
1761506942228212200,4.168212158203125,-16.441756707274912,-8.810480323067306,7.770106178227066
1761506942248369200,4.188369140625,-16.95188181988597,-9.632845923233031,7.083304063761234
1761506942268525000,4.208525146484375,-16.666650335288047,-8.079342223268746,6.4135922003060575
1761506942288682200,4.22868212890625,-13.044955044877529,-6.302102833154797,5.423140316498279
1761506942308838100,4.248838134765625,-7.378288880610466,-4.726630754749476,4.3764036508888005
1761506942328995300,4.268995361328125,-2.290639578872919,-3.7756533877179024,2.5721760083451866
1761506942349152000,4.289152099609375,0.9779618200689554,-1.3949280258588492,0.03639204059094191
1761506942369308200,4.30930810546875,2.829635981181264,1.009778369437903,-1.7073527839392422
1761506942389465000,4.329465087890625,4.964109431308508,2.190065281228721,-2.4606971625879406
1761506942409621200,4.349621337890625,7.060498942235112,2.0337232113942503,-2.177956033501029
1761506942429777200,4.369777099609375,8.917915446391701,1.3452262757092714,-2.137927097712457
1761506942449934300,4.389934326171875,9.933940162873268,-0.3487266361698508,-1.7169643696323036
1761506942470091000,4.410091064453125,10.126613775283097,-2.057348124870658,-0.8388529168471693
1761506942490247200,4.4302470703125,9.741824184346198,-2.725334479707479,-0.42659839587956666
1761506942510405000,4.450405029296875,7.571898312565684,-2.09133792662546,-0.18713892076686023
1761506942530562000,4.47056201171875,6.626598406648635,-1.300659842621535,-0.5276870727866888
1761506942550718000,4.490718017578125,5.850777115514874,-0.38038317267149685,-0.6638536389462649
1761506942570875100,4.510875244140625,5.332137857058644,-0.10078019547984003,-0.9984814610064029
1761506942591031000,4.531031005859375,4.491467953917384,0.16484642493799329,-1.1279700107067823
1761506942611188200,4.551188232421875,3.236178554242849,0.08347849367558956,-0.9716874159745872
1761506942631344000,4.57134423828125,1.1087018311351537,-0.3583054886370897,-0.7144235502324998
1761506942651501000,4.5915009765625,-1.8459107752799986,-1.7686165231972932,0.42897681544870137
1761506942671657000,4.611656982421875,-5.7985214430987835,-3.759604462453723,2.2994284500062463
1761506942691814100,4.631814208984375,-11.399976007264852,-3.4742142801627516,3.8625162631347774
1761506942711970600,4.651970458984375,-13.476025909996032,-4.13683589309603,5.955135315611958
1761506942732127700,4.672127685546875,-16.587758584880827,-1.8277771526962519,6.258741830334067
1761506942752283600,4.69228369140625,-18.532084141683576,-2.4052985159710047,7.1018567885398864
1761506942772440600,4.712440673828125,-18.21364246140122,-0.7201637013196944,4.819278935569525
1761506942792596500,4.732596435546875,-14.287376195150612,2.824144982549548,1.4749626626908778
1761506942812753700,4.752753662109375,-8.815954370564222,2.3708652082324027,1.5560460779234766
1761506942832909600,4.77290966796875,-3.2372388769507405,1.8314084949359297,1.7102036433257162
1761506942853066800,4.793066650390625,1.7819453758478163,1.772436373746395,0.8604172445319592
1761506942873222700,4.81322265625,5.223280007454752,2.669925311696529,-1.447889654587209
1761506942893379600,4.833379638671875,7.133061489620804,3.496463229110837,-2.625691033172607
1761506942913535500,4.853535400390625,8.392280045437813,4.8995323297187685,-2.9509359637290236
1761506942933692700,4.873692626953125,10.800471652501821,4.315486533111334,-2.8244913117691874
1761506942953848600,4.8938486328125,11.263804618799686,4.244344081656634,-3.084956311640143
1761506942974005800,4.914005859375,11.08326334273219,2.2899779000937937,-2.808514282697439
1761506942994161700,4.93416162109375,10.47477021034956,0.3815566003650427,-3.7680776917666194
1761506943014318600,4.954318603515625,9.565759761431814,-0.5088046776622533,-4.043551752460003
1761506943034474500,4.974474609375,8.588041102468967,-0.33726942261010406,-2.8890590610086915
1761506943054631700,4.994631591796875,8.181797220093012,-0.8067942292854189,-1.8673457774966955
1761506943074787600,5.01478759765625,7.18726712706089,-0.20675649829804896,-1.4671134104952215
1761506943094944800,5.03494482421875,5.650023657023906,0.5743874491631984,-1.1376073153629898
1761506943115100700,5.0551005859375,4.833225627857447,0.6821876064077019,-1.0753232931464909
1761506943135257600,5.075257568359375,3.261637989670038,0.8520344699814915,-0.768813165937364
1761506943155413500,5.09541357421875,1.0352969877064226,1.0741317452743648,-0.37679040887653825
1761506943175570700,5.11557080078125,-1.1517220576941967,-1.1503776573479174,0.6632870911046862
1761506943195726600,5.1357265625,-5.304178421509266,-5.241262238869071,3.5730712524950503
1761506943215883800,5.1558837890625,-11.14861172095537,-4.092451976968348,4.821425884470344
1761506943236039700,5.176039794921875,-15.219875656205415,-5.532841046667099,6.599310586750507
1761506943256196900,5.19619677734375,-18.143098852622508,-3.8543642286002635,6.1094040863037105
1761506943276352800,5.216352783203125,-20.822091267871855,-2.016306504908204,4.484434402018786
1761506943296509700,5.236509765625,-18.16353139979839,0.8346116260156035,0.2340830427713692
1761506943316665600,5.25666552734375,-11.449778441309928,1.2886451413094997,-1.6294648037470876
1761506943336822800,5.27682275390625,-4.040253879958391,-0.4896697690814733,-0.3842424784481525
1761506943356978700,5.296978759765625,1.7880758414268492,0.4978583362340927,0.03250497002452612
1761506943377135900,5.317135986328125,5.547785517820715,1.3874588590219616,-0.7311189567066728
1761506943397291800,5.337291748046875,5.953389933249354,2.488111531475186,-0.5542742701347917
1761506943417448700,5.35744873046875,6.76605539265573,3.751904847861826,-1.5871062559671698
1761506943437604600,5.3776044921875,7.363553668293356,3.0259830214068293,-1.953018420215696
1761506943457761800,5.39776171875,7.176103928011655,2.3073177419513464,-1.7989478024445473
1761506943477917700,5.417917724609375,8.413585868316888,0.9243182004258036,-1.550979296053201
1761506943498074600,5.43807470703125,8.294079198926687,0.2030269563809037,-0.7347841281507164
1761506943518230800,5.458230712890625,7.521105698439478,-0.46333121273219585,-0.438431164753437
1761506943538387500,5.478387451171875,6.972841117048263,-0.7618573554500937,-0.15101831752844153
1761506943558543600,5.498543701171875,6.394151002255081,-0.4314066729441285,0.07663381541259587
1761506943578700500,5.518700439453125,5.902692596191168,0.45567689858675,0.0683250559464097
1761506943598856700,5.538856689453125,5.373534281808138,0.9727359021142125,-0.3047676674559712
1761506943619013600,5.559013671875,5.444820817908644,0.9851683904469013,-1.0915103117071092
1761506943639169800,5.579169677734375,5.254264928305148,0.08882073148638009,-1.8585301644869148
1761506943659326500,5.599326416015625,4.038625986495614,-1.156492340835929,-2.491108375203609
1761506943679482600,5.619482666015625,3.136554396930337,-2.4635318014919756,-2.9532769738972187
1761506943699639600,5.6396396484375,0.4139835367172956,-4.447113263884186,-1.3663460744969547
1761506943719795000,5.659794921875,-4.499954042711853,-4.863668696916103,0.7704409132696688
1761506943739952000,5.6799521484375,-9.642129884406923,-4.03177918934077,3.083272888597846
1761506943760108000,5.70010791015625,-14.383867899656295,-2.02973268045336,4.92835422731638
1761506943780265200,5.72026513671875,-16.334873372614382,1.2351713252753018,4.595947442306578
1761506943800422000,5.740421875,-16.785646132546663,2.1770058931693432,4.589906993098556
1761506943820578000,5.760578125,-14.016075036227702,1.1957742576494812,4.3335833308160305
1761506943840735000,5.78073486328125,-9.205418967574834,-0.7178390577644109,4.068104594436288
1761506943860891000,5.800890869140625,-4.873735332900285,-1.1259084020018577,3.3906501540303227
1761506943881048000,5.821048095703125,-1.2547452097952365,-1.0090385108560322,2.3474860862106084
1761506943901204000,5.841203857421875,2.391357376641035,-0.5658879163652658,0.11626841812133788
1761506943921361000,5.86136083984375,4.370634419837594,1.244954760403931,-1.674690431395918
1761506943941516800,5.881516845703125,5.620365016341209,3.351025999650359,-3.149232676717639
1761506943961674000,5.901674072265625,6.51849342123866,4.843383741517365,-3.809785666683316
1761506943981830000,5.921829833984375,7.4577867802172895,4.724891217605769,-4.421260152964294
1761506944001987000,5.941987060546875,8.988146920481324,2.8310148683190346,-4.296267453378439
1761506944022143000,5.96214306640625,9.30375250055492,0.6678456311918795,-3.1091508416980504
1761506944042300000,5.9822998046875,9.399828025475143,-1.0087016801171005,-2.0169433415070177
1761506944062455800,6.002455810546875,8.870973077952861,-1.6658378473766147,-1.4471395668722689
1761506944082613000,6.022613037109375,8.2340926399976,-2.841166844499111,-0.43192821260020137
1761506944102769000,6.042768798828125,7.438087808012962,-2.401520897128433,0.11038082138746977
1761506944122926000,6.062926025390625,6.067831135943532,-1.8534097527332603,0.439592171356827
1761506944143082000,6.08308203125,4.867468089199066,-1.6598437215283512,0.37036227552518247
1761506944163239000,6.103239013671875,3.6104549344718455,-1.8032335169397293,0.4862145140610635
1761506944183394800,6.123394775390625,1.130329725575447,-2.33267488604784,0.2573208566263318
1761506944203552000,6.143552001953125,-4.232532355570793,-4.068009901890158,1.8199864988200365
1761506944223708000,6.1637080078125,-11.662373728764056,-6.254450855141878,2.884786205995083
1761506944243865000,6.183864990234375,-20.7315605175972,-4.273824443162978,0.500667402305454
1761506944264021000,6.20402099609375,-20.4725799110651,-4.7290100511014455,2.761407955868542
1761506944284178000,6.224177978515625,-19.63192754358053,-3.8120857603192326,3.3058231683552264
1761506944304333800,6.244333740234375,-16.520959423327444,-4.133929357999563,4.3477731842100615
1761506944324491000,6.264490966796875,-11.607945388484,-3.841815128150582,2.63495453608036
1761506944344647000,6.28464697265625,-6.164939511042833,-2.7826217165499925,1.3551608097463845
1761506944364804000,6.30480419921875,-2.5255191788494584,-0.7641103950738907,0.8073580006480217
1761506944384960000,6.3249599609375,0.6294575944781303,1.9856740507572888,0.0018275076881051062
1761506944405117000,6.345116943359375,3.510800966542959,3.690298578776419,-1.34579764585644
1761506944425272800,6.36527294921875,5.461330638682842,4.332498750449717,-2.0014647634766995
1761506944445430000,6.385429931640625,6.880113733512163,5.069079041302204,-2.6757524104148147
1761506944465586000,6.4055859375,7.417862181586027,5.145455009496212,-3.096001437267661
1761506944485743000,6.4257431640625,7.791499679389595,4.9237727447450155,-3.04968538403362
1761506944505899000,6.44589892578125,7.932980864700674,4.628344275781512,-2.641469617062807
1761506944526056000,6.466055908203125,7.961276984858513,4.217515988224744,-1.8708932408452033
1761506944546211800,6.4862119140625,8.49353326525688,4.058756628115475,-1.707094133003056
1761506944566369000,6.506369140625,8.641026258203386,4.008161874648929,-1.666076770699024
1761506944586525000,6.52652490234375,8.817358392143248,3.6717075678139923,-1.561522025116533
1761506944606682000,6.54668212890625,8.366147240793705,3.930189284913242,-1.4338948853738605
1761506944626838000,6.566838134765625,8.281405595314503,2.8932652805268764,-1.1381024054035545
1761506944646995000,6.586994873046875,7.811700171375274,2.4403227753400802,-1.106112691424787
1761506944667150800,6.60715087890625,5.96406447199881,1.3450894975870846,-0.261665900093317
1761506944687308000,6.62730810546875,4.52666669307053,-1.7005156313955783,0.8796183502167463
1761506944707464700,6.647464599609375,0.7151490880280733,-4.8370676902383565,3.1003146242916584
1761506944727622000,6.667621826171875,-3.9649627843916413,-3.8092742100298405,2.9780145247906447
1761506944747777800,6.68777783203125,-8.796745227703452,-3.08225815859735,2.0665525910675524
1761506944767934700,6.707934814453125,-14.296018935811519,-4.920719202393293,4.863329089698195
1761506944788090600,6.728090576171875,-16.809232759839297,-5.241237104427814,6.460597112587094
1761506944808247800,6.748247802734375,-18.4681070518136,-3.7543566249281164,5.793133320319652
1761506944828404700,6.76840478515625,-16.928095286107062,-1.8532777969166636,2.7409020511955022
1761506944848561000,6.788560791015625,-13.15200438375473,-1.9455714652106164,1.3423087808273733
1761506944868717600,6.808717529296875,-8.93516819448769,-2.8345842512384056,1.090440782779455
1761506944888873700,6.828873779296875,-3.7807168085873126,-3.2512133340284226,0.5045004045970738
1761506944909030700,6.84903076171875,0.46752866442203517,-2.9000705766275523,-0.11212255048826336
1761506944929186800,6.869186767578125,4.4931244889527555,-3.4019565609425304,-2.2902280754625797
1761506944949343700,6.88934375,1.6823364161044359,-3.332734556156397,-8.594224175018072
1761506944969500000,6.9095,4.2345606465280055,0.6340589507937431,-4.912493225839734
1761506944989656600,6.929656494140625,7.416985983273387,3.0504353256180883,-2.52215993154943
1761506945009812700,6.949812744140625,9.577412789824605,3.648630351348221,-0.9572392039053141
1761506945029969700,6.9699697265625,10.735786122101544,3.4022716182410715,0.015978490376472473
1761506945050125800,6.990125732421875,10.51872625645399,3.368290438184142,0.494128648186475
1761506945070282800,7.01028271484375,9.488893379372358,3.3380145423859355,-0.3547606556370854
1761506945090439000,7.03043896484375,7.832864539957046,3.4405864435881375,-0.6954193553593009
1761506945110595600,7.050595703125,6.897211583307385,3.7912460936471817,-0.7030310724720359
1761506945130751700,7.070751708984375,6.686414869707822,3.9761064019575714,-0.7741631486631929
1761506945150908700,7.09090869140625,6.858293531370163,3.589104687929153,-0.2952833614043891
1761506945171064600,7.111064697265625,6.609626229059696,3.4193311818525194,-0.5259381832927466
1761506945191221800,7.1312216796875,5.716255247822404,2.4447397149994967,-0.3601012860126793
1761506945211377700,7.151377685546875,4.153091154587268,-0.0697521661400795,0.44008740752786396
1761506945231534600,7.17153466796875,0.6129600486636162,-1.2081187754377722,0.9935359674282371
1761506945251690800,7.191690673828125,-3.923355347239971,-0.9246487475544214,1.6817252984687685
1761506945271847700,7.21184765625,-6.773241504767537,-1.2256620309129356,2.1824412160910667
1761506945292003600,7.232003662109375,-12.103863112044333,-1.9408377146869897,-0.046434784242883324
1761506945312160800,7.252160888671875,-17.066262232303618,-2.2309601861968633,0.6410805930588394
1761506945332316700,7.272316650390625,-16.997992413675785,-4.355750738960504,1.1784955713946372
1761506945352473900,7.292473876953125,-15.340498762404918,-5.723204628568888,-0.07079309459433425
1761506945372629800,7.312629638671875,-13.550941742509602,-3.7393019713982936,-1.0778040771115571
1761506945392786700,7.33278662109375,-11.723405997353792,-3.0193142111673947,0.71325289901793
1761506945412942600,7.352942626953125,-6.49040714443922,-1.8740869223199783,1.172592411765456
1761506945433099800,7.373099853515625,-2.4807570770591494,-1.2327430752150714,2.457204936558008
1761506945453255700,7.393255615234375,0.9548153377592563,-1.015991690994799,1.821284868067503
1761506945473412900,7.413412841796875,3.400650154519081,1.2896820831418037,-0.08196154977399855
1761506945493568800,7.43356884765625,6.814952986815571,2.412489888779819,-2.7156302472949028
1761506945513725700,7.4537255859375,7.595616457283496,2.288656880623102,-2.201001101262867
1761506945533881600,7.473881591796875,7.571525387600063,3.6234856809586287,-0.9800760357439517
1761506945554038800,7.494038818359375,8.158459014603496,4.37730936755687,-0.3794222917500883
1761506945574194700,7.514194580078125,9.652419223231076,3.8519691501572724,-1.221082959494367
1761506945594351900,7.534351806640625,10.269681353002786,3.289941416351497,-1.7522428960233927
1761506945614507800,7.5545078125,10.347132841473817,2.58896435379982,-1.9454777955777942
1761506945634664700,7.574664794921875,10.28080714265108,2.6647575536698103,-1.9399696996808051
1761506945654820600,7.594820556640625,10.270872608613967,2.489835286527872,-1.8318676368802784
1761506945674977800,7.614977783203125,9.94730934753418,2.3545637695118784,-1.7979361411839723
1761506945695134700,7.635134765625,8.847338519865273,2.0699948404759168,-1.4416542673289774
1761506945715290600,7.65529052734375,7.1012225822895765,0.9433262677565216,-0.07199336919561028
1761506945735447300,7.675447265625,1.9038667051643132,-4.443456787203252,0.29306795037724076
1761506945755603500,7.695603515625,-6.511718228015304,-7.978374250131845,-1.1158733301997183
1761506945775760400,7.715760498046875,-11.946709725826977,-6.529809180501103,-0.06483392589502036
1761506945795916500,7.73591650390625,-19.17039724279046,-6.977230876439809,2.3121689813748
1761506945816073500,7.756073486328125,-21.738782918941972,-5.979698678982258,1.1926770222865044
1761506945836229600,7.776229736328125,-22.11027697497606,-4.77842436261177,0.7503539646610617
1761506945856386300,7.79638623046875,-18.29869507252574,-3.6588811117276547,1.0966143568478524
1761506945876542500,7.81654248046875,-12.764926974141597,-2.7007018504932523,0.6976794823110103
1761506945896699400,7.836699462890625,-6.770703510722518,-2.378718259820342,1.5024321227662265
1761506945916855600,7.85685546875,-1.2364794852644205,-2.1068220576137304,1.3369130592636764
1761506945937012500,7.877012451171875,2.688165317264199,-1.1086366569444537,-0.5654907337412238
1761506945957168600,7.897168701171875,4.742893030503392,1.564777081389725,-1.5783742295876144
1761506945977325300,7.9173251953125,6.354279010593891,3.735984225152433,-0.9606789690956473
1761506945997481500,7.9374814453125,7.6561150573879475,4.841243222357332,-0.6791331872731446
1761506946017638400,7.957638427734375,9.09197729731202,4.905231710404157,-0.8772492099326104
1761506946037794600,7.977794677734375,9.707533792209624,4.390038500748575,-0.883912978670746
1761506946057951500,7.997951416015625,9.812427414357662,3.670581778654456,-0.5274927923236042
1761506946078106400,8.0181064453125,9.906423210394381,3.384664649879932,-0.48740485635679215
1761506946098262500,8.038262451171875,9.645765610560774,3.1255402509629726,-0.6010577582174912
1761506946118419500,8.05841943359375,9.196173584845662,3.099686847782135,-0.6631983899079262
1761506946138575600,8.07857568359375,8.58936153741777,3.5750682715311646,-0.3492127026537433
1761506946158732300,8.098732177734375,8.363236906304955,4.088132360203564,-0.2762099006872624
1761506946178888400,8.118888427734374,8.182141503486037,4.035693147914111,-0.2005714895201847
1761506946199045400,8.13904541015625,7.6777429518282405,3.5159847989216444,-0.04757986262477934
1761506946219201500,8.159201416015625,6.436158836901187,2.4932471407979726,-0.1812121610663831
1761506946239358500,8.1793583984375,4.48489208265841,-0.013897300188243387,0.8751672160267829
1761506946259514600,8.1995146484375,-0.2476058105587959,-3.619891163598001,1.250404550242424
1761506946279671600,8.219671630859375,-6.373628438708185,-3.2506036776974794,0.25659626867882906
1761506946299827500,8.239827392578125,-15.74454951865077,-4.61833375389874,1.032898109871149
1761506946319984400,8.259984375,-22.702432720541953,-4.272404931753874,-0.8528517777137458
1761506946340140500,8.280140625,-25.954270616209506,-4.855969082324207,-1.13372784358114
1761506946360297500,8.30029736328125,-23.855755199170112,-3.702905546893179,-1.3476238383702932
1761506946380453600,8.32045361328125,-16.974550747811794,-4.82345563673228,1.4377449849307535
1761506946400610600,8.340610595703126,-9.271847542250155,-5.92059241001904,3.4770652856796977
1761506946420766700,8.3607666015625,-4.281023707017302,-5.537704853311181,1.919152537101507
1761506946440923400,8.38092333984375,0.5042623580574989,-3.40781347027719,0.42559053401127456
1761506946461082400,8.401082275390625,4.796860767534375,0.8278110060900449,-0.273319001551345
1761506946481238500,8.421238525390624,7.203126374971866,3.588952712237835,-0.1315214437674731
1761506946501395500,8.4413955078125,9.70845850583911,5.752624784320592,-0.8879067244820297
1761506946521551600,8.461551513671875,11.556910782295464,6.121696581643819,-1.5180112385615705
1761506946541708500,8.48170849609375,11.86209316803217,5.220814494124054,-2.123647227947414
1761506946561864700,8.50186474609375,11.075663389122486,4.50208696308732,-3.00813406098336
1761506946582021400,8.522021484375,9.699024322539568,5.292628853490949,-2.7528002865210173
1761506946602177500,8.542177490234375,9.112830700248479,6.730636873272061,-1.3674024516820906
1761506946622334500,8.56233447265625,8.581031515967846,7.292716045004129,-0.47250798720456655
1761506946642491600,8.58249169921875,8.076971402484178,7.00915863109827,0.12235431390628218
1761506946662647600,8.6026474609375,7.504174437382817,5.801037225311994,0.361413976046443
1761506946682803700,8.6228037109375,6.584677081242203,4.480673588180542,0.5543708623770625
1761506946702960400,8.64296044921875,5.173803736624121,2.8860774148494004,0.9825207985475659
1761506946723117600,8.66311767578125,3.6630028678327795,-2.4007711016744375,2.259160737025738
1761506946743273500,8.6832734375,1.1420306847631931,-7.385664377814531,1.6396275935821234
1761506946763430700,8.7034306640625,-4.598201066452265,-7.5173460536450145,-1.0177974983077496
1761506946783586600,8.723586669921875,-11.06149691660404,-4.984184835609794,-1.6334320999428629
1761506946803743500,8.743743408203125,-16.160436843162774,-2.5573849741876122,-0.3843707810029387
1761506946823899400,8.7638994140625,-18.23246289720535,-2.0154908046111464,0.6829989227905869
1761506946844056300,8.784056396484376,-17.619865252113343,-2.003595199634135,-0.2387364580677822
1761506946864212500,8.80421240234375,-14.901505287593602,-3.2412925362557172,-0.6260574306458234
1761506946884369400,8.824369384765625,-12.59742638143301,-3.186496823967993,0.024656850340031088
1761506946904525600,8.844525634765626,-9.01379807908833,-2.961750787732005,1.4046937792003154
1761506946924682500,8.8646826171875,-4.37590096206367,-2.5600924795806406,2.44844499925822
1761506946944838400,8.88483837890625,0.34263211868703364,-1.672591267159581,2.888589689931273
1761506946964995300,8.904995361328124,1.42189918102324,-0.6020791736871004,-0.17954583528935908
1761506946985151500,8.9251513671875,1.397685946264863,0.11487287210971116,-3.9979187130540605
1761506947005308400,8.945308349609375,4.355356186684966,3.353386883562803,-1.2146003925420343
1761506947025464600,8.965464599609374,7.424921452447772,5.011733936792612,-0.0371495078947395
1761506947045621500,8.98562158203125,9.368794589307903,3.127339409339428,-0.3429050173442811
1761506947065777700,9.005777587890625,9.636090019720791,1.2549325490608811,-0.7484999342922121
1761506947085934300,9.025934326171875,8.928961156541108,0.4642781381934881,-0.5868048860572278
1761506947106090500,9.046090576171874,10.074736288529634,1.4828601379424333,0.32358561904206873
1761506947126247400,9.066247314453125,11.103701735126972,3.327134836453199,0.6953326269239187
1761506947146403600,9.086403564453125,9.69118471495509,3.2507655902609227,0.636147009114176
1761506947166560500,9.106560546875,9.645096917518973,3.0499010726109144,0.8141253758911043
1761506947186716700,9.126716552734376,8.407965690347552,3.246979057459533,-0.17802573131630195
1761506947206873300,9.146873291015625,6.354606927374005,3.2323154490739103,0.23933457009140402
1761506947227030500,9.167030517578125,5.211051225000619,1.8198335002154111,0.751714731620252
1761506947247186400,9.1871865234375,1.013088078507781,-0.6019850656628608,0.29158715550126507
1761506947267343600,9.207343505859376,-4.1119565956443545,-1.8967247244551777,0.6752753428012133
1761506947287499500,9.22749951171875,-7.92230281881988,-0.94153879981786,1.6844826343528925
1761506947307656400,9.247656494140625,-11.863389637583493,-0.857497996084392,1.627126277796924
1761506947327812400,9.267812255859376,-14.85732829221487,-1.775474426268041,1.5061695557288826
1761506947347969500,9.287969482421875,-16.29297601260543,-4.523743499100208,0.9542286239124834
1761506947368125400,9.30812548828125,-16.57220095026493,-6.9833683562815185,-0.9818767284903674
1761506947388282600,9.32828271484375,-15.585757133054733,-7.604274980035424,-2.6205259054943917
1761506947408438500,9.3484384765625,-11.623941414517164,-5.755467898792028,-2.0659711379177867
1761506947428595500,9.368595458984375,-5.981675532013178,-4.520495895481109,-1.2325959218293427
1761506947448751400,9.38875146484375,-1.0910311498880385,-4.16949137750715,-1.3009129405997693
1761506947468908500,9.408908447265626,1.5932172861933707,-3.235354670639336,-0.5225389693085104
1761506947489064400,9.429064453125,3.249291718316078,-0.7719567246600985,0.44096090242676433
1761506947509221600,9.4492216796875,5.247132592207193,1.9794602908089756,0.42518282999321816
1761506947529377500,9.46937744140625,7.175902267959714,3.7815871616810557,-0.17116824837066233
1761506947549534500,9.489534423828125,8.289471997392177,4.034517089872062,-1.1849121604386716
1761506947569690400,9.5096904296875,8.515775492203234,3.666333473560214,-1.0747727465916423
1761506947589847600,9.52984765625,9.011603783914447,3.0659684103146194,-1.2193033095359802
1761506947610003500,9.55000341796875,9.562097731792926,2.2054051814407107,-1.257607321228087
1761506947630160600,9.57016064453125,9.704034259656071,2.196197500373423,-0.41016953138709067
1761506947650316500,9.590316650390625,9.795487969994545,2.6144445397540927,-0.3502483658444136
1761506947670473500,9.610473388671876,9.901169527649879,2.9494916101396083,-0.7369112033072859
1761506947690629400,9.63062939453125,9.220168792939186,2.919618742184341,-1.47018419624269
1761506947710785500,9.65078564453125,7.873270200103521,2.7959827179044483,-1.3361143101014197
1761506947730941400,9.67094140625,5.72795503796637,2.402737433311343,-0.6458855091225355
1761506947751098600,9.6910986328125,1.530810222119093,-0.6323530236586928,2.761846639546752
1761506947771254500,9.711254638671875,-4.3903386527389285,-4.254965428914129,3.851114286893606
1761506947791411700,9.73141162109375,-10.72835334175229,-2.402317454333603,2.094629515516758
1761506947811567600,9.751567626953126,-12.873498408019541,0.9863611073628067,3.1483696301475166
1761506947831724500,9.771724609375,-11.225965009748935,3.09427797447592,1.940752228360623
1761506947851880400,9.79188037109375,-14.055483502030372,-2.069776229289174,0.3924669936969876
1761506947872037600,9.81203759765625,-13.929409144687652,-5.027671510636806,-2.470464815625548
1761506947892194600,9.832194580078125,-14.192635718226432,-3.9289217491954562,-3.2364260992631313
1761506947912350700,9.852350830078125,-12.78528704060316,-2.9765058737933634,-3.7214649936735626
1761506947932507400,9.87250732421875,-10.517335094356536,-3.385985669350624,-2.771042630176246
1761506947952663600,9.89266357421875,-6.102929337331652,-2.2461709070712326,-0.4887736239593476
1761506947972820500,9.912820556640625,-1.8261884222000837,-0.6527604363933205,-0.2427010873824358
1761506947992976600,9.9329765625,1.9510709394097328,0.7205936171695589,0.27435090188235045
1761506948013133600,9.953133544921876,5.23814849076271,1.7179194784000515,-0.45237741864994163
1761506948033289700,9.973289794921875,7.196324293741584,2.301662784929573,-0.4852816171251237
1761506948053446700,9.99344677734375,9.109304279688,2.8652395017430186,-1.0504057095110415
1761506948073602600,10.0136025390625,10.815551148211956,2.905253824484348,-1.324231564605981
1761506948093759500,10.033759521484376,11.260227344834805,2.0426970837056637,-1.5731981421239674
1761506948113915600,10.05391552734375,11.028181506979465,1.6457181655421853,-1.3437529882863164
1761506948134072600,10.074072509765625,10.238607000303269,1.9405229496493934,-1.0783126842208206
1761506948154228700,10.094228759765626,9.598899814489483,2.419477555710077,-1.4057852276988327
1761506948174385700,10.1143857421875,8.337092995744943,2.6817969512760635,-1.4644925604723393
1761506948194541600,10.13454150390625,6.816806505727768,2.909179765756428,-1.2318361895032226
1761506948214698500,10.154698486328124,5.599907919245958,2.5612638614475727,-1.33471014239192
1761506948234854700,10.174854736328125,3.2435353467464445,2.064968244485557,-1.3857494247555733
1761506948255011600,10.195011474609375,-0.26248013908565043,0.10786620821803808,-0.10798457390069961
1761506948275167700,10.215167724609374,-3.9024434921145437,-1.3502318289116024,0.9541237022332847
1761506948295324700,10.23532470703125,-7.35912649950087,-0.8480480306938291,1.123126223937422
1761506948315480800,10.255480712890625,-9.538228780427575,-0.25220687461346386,2.354758415301144
1761506948335637500,10.275637451171875,-10.812637891113758,-3.211665167494118,1.96368799052909
1761506948355793700,10.295793701171876,-12.232939573812484,-6.815368581879139,1.1530202808111905
1761506948375950600,10.31595068359375,-14.024644127130507,-6.3048313813358545,1.424681505218148
1761506948396106800,10.336106689453125,-12.174901226341724,-4.422008048722148,1.0420079565871507
1761506948416263700,10.356263671875,-9.323364378997683,-3.154651486895978,-0.2037763134434819
1761506948436419600,10.376419677734376,-5.177822909137606,-2.404083879484236,-1.019961982865259
1761506948456576500,10.396576416015625,-1.6451847893178462,-1.6858558224022389,-0.9484174534156918
1761506948476732400,10.416732421875,0.6514402937054634,-1.0749915769740939,-0.19824512893185017
1761506948496889600,10.4368896484375,2.619315068399906,0.8316799564778804,0.11465382253155111
1761506948517045500,10.45704541015625,4.421818663629889,2.154945160269737,-0.19829554394483564
1761506948537202700,10.47720263671875,6.496096880513429,3.0633418612033125,-1.365269385176152
1761506948557358600,10.497358642578124,7.585460389450192,2.780733126324415,-1.9133909048348665
1761506948577515500,10.517515625,7.806652824857831,2.9966388535007833,-1.368558343718946
1761506948597671400,10.53767138671875,8.037218653288484,3.1754829702615734,-1.6555039387583732
1761506948617828600,10.55782861328125,8.242847024339437,3.386867420621216,-1.8386362542323766
1761506948637984500,10.577984619140626,7.811474545925855,3.2716730614721774,-1.9369827928245067
1761506948658141700,10.5981416015625,7.65881437947452,3.554104393957555,-1.792078647327423
1761506948678297600,10.618297607421875,6.037089960721135,3.4763550915837285,-0.2982096241146326
1761506948698454500,10.63845458984375,4.062551051962376,1.4859405683010816,-0.0682967066347599
1761506948718611200,10.658611083984376,0.9599982933551072,-1.0054214894026516,0.22590879640504716
1761506948738768400,10.678768310546875,-1.5255968713849781,-0.6541644579723477,0.5105773864232004
