time,seconds_elapsed,z,y,x
1761506938136446700,0.07644677734375,-0.0034647597931325436,-0.019672395661473274,-0.2121201902627945
1761506938156603000,0.096602783203125,0.16436767578125,0.299255907535553,-0.20794403553009033
1761506938176759800,0.116759765625,0.19792380928993225,0.5432072281837463,-0.038302142173051834
1761506938196916000,0.136916015625,0.026319360360503197,0.4634591341018677,0.2848430573940277
1761506938217072600,0.15707275390625,-0.22517503798007965,0.4471358358860016,0.5344086289405823
1761506938237228800,0.177228759765625,-0.6487904191017151,-0.14797791838645935,0.4799642860889435
1761506938257385700,0.1973857421875,-0.8705743551254272,-0.4553009867668152,0.69754958152771
1761506938277542000,0.2175419921875,-0.5051283240318298,-0.4087267518043518,0.7450188398361206
1761506938297698800,0.23769873046875,0.269103467464447,0.18484674394130707,0.22941455245018005
1761506938317855000,0.25785498046875,0.7173019647598267,0.6296877861022949,0.10105784982442856
1761506938338011600,0.27801171875,0.9750176668167114,0.9893866181373596,0.03809938207268715
1761506938358167800,0.298167724609375,0.9473276138305664,1.1749919652938843,0.08898454159498215
1761506938378324700,0.31832470703125,0.47865918278694153,0.7698702812194824,0.3278557062149048
1761506938398480600,0.338480712890625,-0.08132944256067276,-0.0749770924448967,0.04667653888463974
1761506938418637800,0.358637939453125,-0.2877969443798065,-0.6106459498405457,-0.558042585849762
1761506938438793700,0.378793701171875,-0.21807114779949188,-0.6244210600852966,-0.5187570452690125
1761506938458950700,0.39895068359375,-0.12002893537282944,-0.5739633440971375,-0.16048765182495117
1761506938479106600,0.4191064453125,-0.12764094769954681,-0.3147289752960205,0.2557721436023712
1761506938499263700,0.439263671875,-0.208413228392601,-0.11173742264509201,0.5332366824150085
1761506938519419600,0.459419677734375,-0.12763769924640656,-0.3002278208732605,0.4778370261192322
1761506938539576800,0.479576904296875,-0.03930177167057991,-0.2935267388820648,0.32760530710220337
1761506938559732700,0.499732666015625,0.08205662667751312,-0.06717745214700699,0.20067748427391052
1761506938579889700,0.5198896484375,0.15232045948505402,0.01224086619913578,0.12082897871732712
1761506938600045600,0.540045654296875,0.09948155283927917,-0.1470639407634735,-0.019295796751976013
1761506938620202800,0.56020263671875,-0.05997215211391449,-0.43981069326400757,-0.4641055762767792
1761506938640358700,0.580358642578125,0.08245792239904404,-0.07254760712385178,-0.7845516204833984
1761506938660515800,0.600515869140625,-0.024171069264411926,0.041427064687013626,-0.8274650573730469
1761506938680671700,0.620671630859375,-0.39388278126716614,0.21381497383117676,-0.6116061210632324
1761506938700828200,0.640828125,-0.578278660774231,-0.05042462423443794,-0.4755532145500183
1761506938720984000,0.660984130859375,-0.45038488507270813,0.020954538136720657,-0.47465649247169495
1761506938741140000,0.681139892578125,-0.15050862729549408,-0.004059910774230957,-0.41873469948768616
1761506938761297000,0.701296875,-0.10904683917760849,0.19728083908557892,0.01303057186305523
1761506938781452800,0.721452880859375,-0.12831471860408783,0.3967958688735962,0.27564042806625366
1761506938801610000,0.74160986328125,-0.0784144178032875,0.42412465810775757,0.26123756170272827
1761506938821766000,0.761765869140625,-0.11216139048337936,0.3599671721458435,0.1818215698003769
1761506938841923000,0.781923095703125,-0.07128302752971649,0.37737730145454407,0.0674363374710083
1761506938862079000,0.802078857421875,-0.0570337139070034,0.23198434710502625,0.005694422405213118
1761506938882236000,0.82223583984375,-0.0689556896686554,0.04037050902843475,0.025002334266901016
1761506938902391800,0.842391845703125,-0.15686100721359253,-0.1468772143125534,0.06992971897125244
1761506938922549000,0.862549072265625,-0.22050079703330994,-0.5437949299812317,0.04431116580963135
1761506938942705000,0.882704833984375,-0.2247021496295929,-0.5440577864646912,-0.012363680638372898
1761506938962862000,0.902862060546875,-0.17528395354747772,-0.2967206835746765,-0.005384155549108982
1761506938983018000,0.92301806640625,-0.11130513995885849,-0.07619795203208923,0.08617480844259262
1761506939003175000,0.9431748046875,-0.08022242039442062,-0.11000830680131912,0.22039997577667236
1761506939023330800,0.963330810546875,0.0233287550508976,-0.20045384764671326,0.23423346877098083
1761506939043488000,0.983488037109375,0.16032205522060394,-0.19276200234889984,0.14351055026054382
1761506939063644000,1.003643798828125,0.25349920988082886,-0.17939773201942444,0.008475012145936489
1761506939083801000,1.023801025390625,0.33942800760269165,-0.027269994840025902,-0.14023084938526154
1761506939103957000,1.04395703125,0.4571428894996643,0.24046429991722107,-0.1743118166923523
1761506939124114000,1.064114013671875,0.5552261471748352,0.4655474126338959,-0.21515031158924103
1761506939144269800,1.084269775390625,0.5310148596763611,0.5056283473968506,-0.3530045747756958
1761506939164427000,1.104427001953125,0.4804314076900482,0.40289002656936646,-0.44835811853408813
1761506939184583000,1.1245830078125,0.49475395679473877,0.39748790860176086,-0.48443734645843506
1761506939204740000,1.144739990234375,0.485268771648407,0.4507655203342438,-0.6008291244506836
1761506939224896000,1.16489599609375,0.3793870806694031,0.4584599435329437,-0.6985780596733093
1761506939245053000,1.185052978515625,0.03116679936647415,0.4221554398536682,-0.525627076625824
1761506939265208800,1.205208740234375,-0.23732401430606842,0.24459891021251678,-0.2599300146102905
1761506939285366000,1.225365966796875,-0.3641201853752136,0.1525677740573883,-0.10782338678836823
1761506939305522000,1.24552197265625,-0.2613580822944641,0.2507127523422241,-0.0790817141532898
1761506939325679000,1.26567919921875,-0.1946335732936859,0.19958095252513885,-0.010510694235563278
1761506939345835000,1.2858349609375,0.007981864735484123,0.2694104015827179,0.337603896856308
1761506939365992200,1.3059921875,0.14396661520004272,0.21013733744621277,0.45350366830825806
1761506939386148000,1.326148193359375,0.08911805599927902,-0.4226827025413513,0.6525431275367737
1761506939406304000,1.346303955078125,0.1743430197238922,-0.6732447743415833,0.9154647588729858
1761506939426461000,1.3664609375,0.24800711870193481,-0.5398320555686951,0.7143728733062744
1761506939446616800,1.386616943359375,0.1406365931034088,-0.11036322265863419,0.2765618860721588
1761506939466774000,1.40677392578125,-0.12118425965309143,0.2674099802970886,0.07363976538181305
1761506939486930000,1.426929931640625,-0.4424455761909485,0.4332110285758972,0.1468620002269745
1761506939507087000,1.447087158203125,-0.6389420032501221,0.3520703613758087,0.1005449891090393
1761506939527243000,1.467242919921875,-0.607840359210968,0.17855295538902283,0.025080731138586998
1761506939547400000,1.48739990234375,-0.57950359582901,0.21322515606880188,-0.09387487173080444
1761506939567555800,1.507555908203125,-0.6486237645149231,0.17360277473926544,0.06111282855272293
1761506939587713000,1.527713134765625,-0.6010384559631348,-0.21548865735530853,0.4428442120552063
1761506939607869000,1.547868896484375,-0.2679843604564667,-0.24560287594795227,0.8257717490196228
1761506939628026000,1.568026123046875,0.25390225648880005,-0.07226389646530151,1.1428651809692383
1761506939648182000,1.58818212890625,0.46536487340927124,-0.20108097791671753,1.5247972011566162
1761506939668339000,1.6083388671875,0.4061732888221741,-0.21617397665977478,1.6000101566314697
1761506939688494800,1.628494873046875,0.30963295698165894,0.15217112004756927,0.905887246131897
1761506939708652000,1.648652099609375,0.236744686961174,0.8340024948120117,-0.033883221447467804
1761506939728808000,1.668807861328125,0.018286999315023422,0.9914305210113525,-0.47375091910362244
1761506939748965000,1.688965087890625,-0.16988596320152283,0.5477283000946045,-0.5180658102035522
1761506939769121000,1.70912109375,-0.04849447309970856,0.05633831024169922,-0.49054813385009766
1761506939789278000,1.72927783203125,0.26610419154167175,-0.04684613272547722,-0.28008410334587097
1761506939809433900,1.749433837890625,0.3811950385570526,0.00945198629051447,0.02317757159471512
1761506939829591000,1.769591064453125,0.2820928394794464,-0.24440523982048035,0.2591513395309448
1761506939849747000,1.789746826171875,0.07604764401912689,-0.6015092134475708,0.615572452545166
1761506939869904100,1.809904052734375,-0.017779169604182243,-0.8056995272636414,0.8596486449241638
1761506939890060000,1.83006005859375,0.003281453624367714,-0.6599100232124329,0.42039725184440613
1761506939910217000,1.850217041015625,-0.10783843696117401,-0.525008499622345,-0.36437755823135376
1761506939930372900,1.870372802734375,-0.18079304695129395,-0.10450054705142975,-0.5751959681510925
1761506939950530000,1.890530029296875,-0.18822821974754333,0.1674322485923767,-0.3543255627155304
1761506939970686000,1.91068603515625,-0.02409232035279274,0.20733578503131866,-0.05383960157632828
1761506939990843100,1.930843017578125,0.03179001435637474,0.41876885294914246,0.17613837122917175
1761506940010999000,1.9509990234375,-0.09700489044189453,0.6704784631729126,0.19502122700214386
1761506940031156000,1.971156005859375,-0.2412032186985016,0.49413105845451355,-0.19117851555347443
1761506940051311900,1.991311767578125,-0.1813179850578308,-0.12334108352661133,-0.33096012473106384
1761506940071469000,2.011468994140625,-0.11246135830879211,0.17879538238048553,-0.02723681926727295
1761506940091625000,2.031625,-0.5506553649902344,0.4265548288822174,0.472643107175827
1761506940111782100,2.0517822265625,-0.7466029524803162,-0.019089818000793457,0.8610455393791199
1761506940131938000,2.07193798828125,-0.5071191787719727,-0.37591975927352905,0.7748734951019287
1761506940152094000,2.092093994140625,-0.2709130048751831,-0.23962830007076263,0.5176074504852295
1761506940172251000,2.1122509765625,-0.1658387929201126,0.2830337882041931,0.24874186515808105
1761506940192408000,2.132407958984375,-0.0647706687450409,0.32262155413627625,-0.13253547251224518
1761506940212564000,2.15256396484375,-0.048092376440763474,0.11088619381189346,-0.3293820917606354
1761506940232720000,2.172719970703125,-0.3098028898239136,-0.014134343713521957,-0.40283918380737305
1761506940252877000,2.192876953125,-0.6317024827003479,-0.2728396952152252,-0.6431224346160889
1761506940273033000,2.213032958984375,-0.7586013078689575,-0.5136314630508423,-0.9829576015472412
1761506940293190000,2.23318994140625,-0.6436747908592224,-0.5395657420158386,-1.0163729190826416
1761506940313345800,2.253345703125,-0.3295672833919525,-0.3902938663959503,-0.8944454193115234
1761506940333503000,2.2735029296875,0.005054574925452471,0.02394632063806057,-0.7259173393249512
1761506940353659000,2.293658935546875,0.13644352555274963,0.5154765248298645,-0.4351405203342438
1761506940373816000,2.313816162109375,0.11456754058599472,0.7953873872756958,-0.12250320613384247
1761506940393972000,2.333971923828125,0.1418023258447647,0.6896249651908875,0.08949878811836243
1761506940414129000,2.35412890625,0.1499890238046646,0.36031559109687805,0.20797784626483917
1761506940434284800,2.374284912109375,0.08579287678003311,0.10030163824558258,0.32661765813827515
1761506940454442000,2.39444189453125,-0.11618877947330475,0.0010038865730166435,0.3342612087726593
1761506940474598000,2.414597900390625,-0.18896374106407166,0.11919563263654709,0.4638860523700714
1761506940494755000,2.434755126953125,-0.16983604431152344,0.37636056542396545,0.6462721228599548
1761506940514911000,2.454910888671875,-0.11033740639686584,0.4519764184951782,0.7941610813140869
1761506940535068200,2.475068115234375,0.00410096812993288,0.3636566996574402,0.9797137975692749
1761506940555224000,2.49522412109375,-0.012277912348508835,0.21953053772449493,0.9375324845314026
1761506940575381000,2.515381103515625,-0.22378769516944885,0.15524986386299133,0.7569226622581482
1761506940595537000,2.535536865234375,-0.42705807089805603,0.1572490632534027,1.0094220638275146
1761506940615694000,2.555694091796875,-0.1730179786682129,0.6510183811187744,2.2721166610717773
1761506940635850000,2.57585009765625,-0.06960862129926682,0.22991161048412323,2.183074474334717
1761506940656007200,2.596007080078125,0.11959744244813919,-0.12095698714256287,1.0519156455993652
1761506940676163000,2.6161630859375,0.5662071108818054,0.005832449533045292,0.02913152240216732
1761506940696320000,2.636320068359375,1.1966545581817627,0.5943278074264526,-0.4157414436340332
1761506940716475600,2.6564755859375,1.5373854637145996,1.2716580629348755,-0.6663768887519836
1761506940736632800,2.6766328125,1.5656460523605347,1.6528815031051636,-1.3778692483901978
1761506940756788700,2.696788818359375,1.2022526264190674,2.455343008041382,-2.720156669616699
1761506940776946000,2.71694580078125,0.7208584547042847,3.0083813667297363,-3.6995089054107666
1761506940797101800,2.737101806640625,0.5216824412345886,2.4170899391174316,-3.5204832553863525
1761506940817258800,2.7572587890625,0.275296688079834,1.1024088859558105,-2.641495704650879
1761506940837414700,2.77741455078125,0.06550202518701553,0.04623989015817642,-1.5568214654922485
1761506940857571800,2.79757177734375,0.3261692523956299,-0.7227057814598083,-0.5567929148674011
1761506940877727700,2.817727783203125,0.7260655760765076,-1.0418277978897095,0.41905343532562256
1761506940897885000,2.837885009765625,0.3318225145339966,-0.7286804914474487,1.170963168144226
1761506940918040800,2.858040771484375,-0.39712363481521606,-0.42596539855003357,1.4840537309646606
1761506940938197500,2.878197509765625,-0.8244145512580872,-0.4695681035518646,1.5001319646835327
1761506940958353700,2.898353759765625,-1.0310744047164917,-0.40037354826927185,1.4554226398468018
1761506940978510600,2.918510498046875,-1.1718255281448364,-0.4117724597454071,1.3740766048431396
1761506940998666800,2.938666748046875,-1.3334101438522339,-0.3495703637599945,1.165650725364685
1761506941018823700,2.95882373046875,-1.4894623756408691,-0.4871998131275177,0.9178135395050049
1761506941038979800,2.978979736328125,-1.455268383026123,-0.5733105540275574,0.9232233166694641
1761506941059136500,2.999136474609375,-1.3881889581680298,-0.24023164808750153,0.8413084745407104
1761506941079292700,3.019292724609375,-1.210280179977417,0.14553774893283844,0.48485296964645386
1761506941099449600,3.03944970703125,-0.8647146821022034,0.13053160905838013,-0.06077609956264496
1761506941119605800,3.059605712890625,-0.4725150465965271,0.43684160709381104,-0.6385124921798706
1761506941139762700,3.0797626953125,-0.18311332166194916,0.9949729442596436,-1.1139482259750366
1761506941159918800,3.0999189453125,-0.3003580868244171,0.23093119263648987,-1.5546361207962036
1761506941180075500,3.120075439453125,-0.8802587985992432,-1.4758156538009644,-1.898003101348877
1761506941200231700,3.140231689453125,-0.6618833541870117,-1.871524453163147,-1.720150351524353
1761506941220388600,3.160388671875,0.000033428194001317024,-0.8237416744232178,-1.200977087020874
1761506941240544800,3.180544677734375,0.29277709126472473,-0.2169659286737442,-0.7591127753257751
1761506941260701700,3.20070166015625,-0.0013432049890980124,-1.0693780183792114,-0.5366570949554443
1761506941280857900,3.22085791015625,-0.2281958907842636,-1.9554768800735474,-0.34373384714126587
1761506941301014800,3.241014892578125,-0.24444565176963806,-1.767931580543518,-0.6543539762496948
1761506941321170700,3.261170654296875,-0.6853088140487671,-0.9496119022369385,-1.6847436428070068
1761506941341327600,3.28132763671875,-1.3045600652694702,-0.6364834904670715,-2.1032543182373047
1761506941361483800,3.30148388671875,-1.4023138284683228,-0.6882327198982239,-1.70243501663208
1761506941381640700,3.321640625,-0.8446012139320374,-0.8213775157928467,-0.8353128433227539
1761506941401796900,3.341796875,-0.09548928588628769,-0.5078719258308411,0.31813257932662964
1761506941421953800,3.361953857421875,0.36662372946739197,-0.013807624578475952,0.8402191996574402
1761506941442109700,3.382109619140625,0.41648510098457336,0.2657727003097534,0.7336785197257996
1761506941462266600,3.4022666015625,0.19695651531219482,0.13844797015190125,0.2872924208641052
1761506941482422800,3.4224228515625,0.060640834271907806,0.3089900314807892,0.13681234419345856
1761506941502579700,3.442579833984375,0.018176667392253876,0.5571368336677551,0.21681371331214905
1761506941522735900,3.46273583984375,0.08807357400655746,0.4131773114204407,0.36721888184547424
1761506941542892800,3.482892822265625,0.2581762671470642,-0.060544703155756,0.6796180605888367
1761506941563049000,3.503049072265625,0.3316873610019684,-0.48319557309150696,1.0559443235397339
1761506941583205600,3.52320556640625,0.18054834008216858,-0.3357023298740387,1.5457791090011597
1761506941603361800,3.54336181640625,0.255510538816452,0.3991239368915558,1.9356303215026855
1761506941623518700,3.563518798828125,0.4527786374092102,0.794269859790802,1.8692970275878906
1761506941643674600,3.583674560546875,0.01478674914687872,0.19134122133255005,1.4868547916412354
1761506941663831800,3.603831787109375,-0.16259172558784485,0.36141377687454224,1.6504849195480347
1761506941683987700,3.62398779296875,0.21078325808048248,1.1649584770202637,1.7446190118789673
1761506941704145200,3.644145263671875,0.7379614114761353,1.2719416618347168,1.1816778182983398
1761506941724301000,3.664301025390625,1.1008244752883911,1.5078060626983643,1.0561360120773315
1761506941744458200,3.684458251953125,1.5763603448867798,1.7348335981369019,1.2728149890899658
1761506941764614100,3.7046142578125,1.6168186664581299,1.0440189838409424,0.7855888605117798
1761506941784771300,3.724771240234375,1.0995328426361084,-0.217905193567276,-0.10922592133283615
1761506941804927200,3.74492724609375,0.3600570857524872,-1.2736597061157227,-0.9396154880523682
1761506941825084200,3.765084228515625,-0.2172984778881073,-0.6756553649902344,-2.131080150604248
1761506941845240000,3.785239990234375,-0.6652076244354248,0.4783627688884735,-3.275606870651245
1761506941865397200,3.805397216796875,-0.7769010066986084,1.3708316087722778,-3.430943727493286
1761506941885553200,3.82555322265625,-0.6136171817779541,1.530863881111145,-2.927178144454956
1761506941905710300,3.84571044921875,-0.12341148406267166,1.0444952249526978,-2.057905673980713
1761506941925866200,3.8658662109375,0.5316439270973206,0.45125308632850647,-0.8405629396438599
1761506941946023200,3.886023193359375,1.1260894536972046,0.4347103238105774,0.5674006342887878
1761506941966179000,3.906178955078125,1.4360276460647583,0.25575873255729675,1.6030895709991455
1761506941986336300,3.926336181640625,1.3708323240280151,-0.036177970468997955,1.8067682981491089
1761506942006492200,3.9464921875,1.0409857034683228,0.18884587287902832,1.4908273220062256
1761506942026649300,3.9666494140625,0.808496356010437,0.5761809945106506,1.1165210008621216
1761506942046805200,3.98680517578125,1.0184330940246582,0.779807984828949,1.0634163618087769
1761506942066960100,4.006960205078125,1.7852829694747925,1.0021836757659912,1.7022926807403564
1761506942087117300,4.027117431640625,1.9079649448394775,0.26180756092071533,2.1364424228668213
1761506942107273200,4.047273193359375,0.8449433445930481,-0.6985260248184204,2.1743199825286865
1761506942127430100,4.06743017578125,0.10331102460622787,-0.36515676975250244,1.487804651260376
1761506942147586000,4.0875859375,0.2146655172109604,1.0025073289871216,-0.17163801193237305
1761506942167743200,4.1077431640625,0.5889802575111389,2.3409595489501953,-0.9693043828010559
1761506942187899100,4.127899169921875,0.171428844332695,1.4146921634674072,-0.7523880004882812
1761506942208056300,4.148056396484375,-0.9675037264823914,-1.1195112466812134,-1.2621208429336548
1761506942228212200,4.168212158203125,-1.1057755947113037,-1.9805471897125244,-2.060802698135376
1761506942248369200,4.188369140625,-0.8763564825057983,-1.6969258785247803,-2.492748737335205
1761506942268525000,4.208525146484375,-0.7676430940628052,-1.1015485525131226,-2.313101291656494
1761506942288682200,4.22868212890625,-0.8669794201850891,-1.3057478666305542,-2.0162100791931152
1761506942308838100,4.248838134765625,-0.8917874693870544,-1.9415342807769775,-1.9812192916870117
1761506942328995300,4.268995361328125,-1.075674057006836,-2.0710418224334717,-2.3665366172790527
1761506942349152000,4.289152099609375,-1.4412389993667603,-1.4264376163482666,-2.7515506744384766
1761506942369308200,4.30930810546875,-1.4044408798217773,-0.5120766758918762,-2.3463456630706787
1761506942389465000,4.329465087890625,-1.006608009338379,-0.09339052438735962,-1.243870735168457
1761506942409621200,4.349621337890625,-0.7429529428482056,-0.2874264419078827,-0.10546665638685226
1761506942429777200,4.369777099609375,-0.5862416625022888,-0.397365927696228,0.47486481070518494
1761506942449934300,4.389934326171875,-0.4980320334434509,-0.17478132247924805,0.5745497941970825
1761506942470091000,4.410091064453125,-0.3192388713359833,0.0560506209731102,0.514911413192749
1761506942490247200,4.4302470703125,-0.4139266610145569,-0.1715766191482544,0.5223312973976135
1761506942510405000,4.450405029296875,-1.006307601928711,-0.6644739508628845,0.5590488314628601
1761506942530562000,4.47056201171875,-1.3349100351333618,-0.6515317559242249,0.7453456521034241
1761506942550718000,4.490718017578125,-1.2361595630645752,-0.24150043725967407,0.8659041523933411
1761506942570875100,4.510875244140625,-0.830005407333374,0.0700857937335968,1.076722502708435
1761506942591031000,4.531031005859375,-0.40935125946998596,0.1684766709804535,1.522628664970398
1761506942611188200,4.551188232421875,-0.17524801194667816,0.0546320378780365,1.96790611743927
1761506942631344000,4.57134423828125,-0.2661305367946625,-0.3350384533405304,2.1341042518615723
1761506942651501000,4.5915009765625,-0.3207521140575409,-0.18226611614227295,2.1751785278320312
1761506942671657000,4.611656982421875,-0.0745190903544426,0.7109519839286804,1.6767704486846924
1761506942691814100,4.631814208984375,-0.10537558794021606,1.0786097049713135,0.46701788902282715
1761506942711970600,4.651970458984375,0.07614608854055405,1.2461268901824951,0.48288363218307495
1761506942732127700,4.672127685546875,0.5915594100952148,0.4889148771762848,0.813064694404602
1761506942752283600,4.69228369140625,1.1365617513656616,-0.11088501662015915,0.9132474064826965
1761506942772440600,4.712440673828125,1.603845238685608,-0.9077353477478027,0.902982234954834
1761506942792596500,4.732596435546875,1.3319836854934692,-1.1699384450912476,0.9246283173561096
1761506942812753700,4.752753662109375,1.1940336227416992,-0.807683527469635,0.835822582244873
1761506942832909600,4.77290966796875,1.7236745357513428,-1.0516716241836548,0.9035758972167969
1761506942853066800,4.793066650390625,2.083768367767334,-1.9054381847381592,0.8295044302940369
1761506942873222700,4.81322265625,1.4173582792282104,-1.861006736755371,0.29547402262687683
1761506942893379600,4.833379638671875,0.16230401396751404,-0.8031926155090332,-0.7859262824058533
1761506942913535500,4.853535400390625,-0.5640876293182373,0.04851742088794708,-1.838333249092102
1761506942933692700,4.873692626953125,-0.5187656283378601,1.1361758708953857,-1.825453281402588
1761506942953848600,4.8938486328125,-0.2093195617198944,1.8958622217178345,-1.2143810987472534
1761506942974005800,4.914005859375,-0.05961707979440689,2.1144487857818604,-0.6571210026741028
1761506942994161700,4.93416162109375,0.19296115636825562,1.9271169900894165,-0.38244253396987915
1761506943014318600,4.954318603515625,0.16184405982494354,1.5006088018417358,-0.3118288218975067
1761506943034474500,4.974474609375,-0.524770200252533,1.018783688545227,-0.4293346107006073
1761506943054631700,4.994631591796875,-0.969619631767273,0.7835968732833862,-0.5237887501716614
1761506943074787600,5.01478759765625,-1.090734601020813,0.43850940465927124,-0.5838232040405273
1761506943094944800,5.03494482421875,-1.2483206987380981,-0.4372123181819916,-0.5593388080596924
1761506943115100700,5.0551005859375,-1.1926543712615967,-1.1189615726470947,-0.21198783814907074
1761506943135257600,5.075257568359375,-1.014754056930542,-1.3131457567214966,0.3302997648715973
1761506943155413500,5.09541357421875,-0.921820342540741,-1.2638344764709473,0.8910013437271118
1761506943175570700,5.11557080078125,-0.5913259983062744,-0.3549787402153015,1.1941132545471191
1761506943195726600,5.1357265625,-0.14764758944511414,0.5172305703163147,1.11760413646698
1761506943215883800,5.1558837890625,-0.2531222999095917,-0.12931153178215027,0.6226528286933899
1761506943236039700,5.176039794921875,-0.6568349599838257,-1.1571016311645508,0.5120120644569397
1761506943256196900,5.19619677734375,-0.8678015470504761,-1.5052649974822998,0.8930577635765076
1761506943276352800,5.216352783203125,-0.5209839344024658,-1.59697425365448,0.7306656241416931
1761506943296509700,5.236509765625,-0.0473184660077095,-1.1294103860855103,0.2826387882232666
1761506943316665600,5.25666552734375,0.057772569358348846,-0.29452574253082275,0.06571453809738159
1761506943336822800,5.27682275390625,-0.03384606912732124,-0.34220725297927856,-0.019781215116381645
1761506943356978700,5.296978759765625,-0.19707880914211273,-1.0360311269760132,-0.35702913999557495
1761506943377135900,5.317135986328125,-0.00057870929595083,-1.139370322227478,-0.7398025989532471
1761506943397291800,5.337291748046875,-0.06733601540327072,-1.1870208978652954,-1.3964594602584839
1761506943417448700,5.35744873046875,0.10018093138933182,-0.8764113783836365,-1.965684413909912
1761506943437604600,5.3776044921875,0.36096858978271484,-0.27817919850349426,-1.8266762495040894
1761506943457761800,5.39776171875,0.2093544751405716,0.13548508286476135,-0.9960786700248718
1761506943477917700,5.417917724609375,0.2943929433822632,0.652560830116272,0.3363640308380127
1761506943498074600,5.43807470703125,0.41803979873657227,0.6431211233139038,0.9961122870445251
1761506943518230800,5.458230712890625,0.39369893074035645,0.5385217070579529,0.7491918206214905
1761506943538387500,5.478387451171875,0.16629594564437866,0.9199982285499573,0.13600051403045654
1761506943558543600,5.498543701171875,-0.06597940623760223,1.2875374555587769,-0.25636178255081177
1761506943578700500,5.518700439453125,-0.3836297392845154,1.3796212673187256,-0.3005187511444092
1761506943598856700,5.538856689453125,-0.5494661331176758,0.9039474129676819,-0.09654564410448074
1761506943619013600,5.559013671875,-0.4217020273208618,0.4477015733718872,0.48081356287002563
1761506943639169800,5.579169677734375,-0.2958191931247711,0.10274956375360489,1.188891887664795
1761506943659326500,5.599326416015625,-0.2988508939743042,-0.2863963842391968,1.7299712896347046
1761506943679482600,5.619482666015625,-0.2797873020172119,0.3764983117580414,1.9739573001861572
1761506943699639600,5.6396396484375,-0.22695134580135345,1.216925024986267,1.7406092882156372
1761506943719795000,5.659794921875,-0.3801870346069336,0.9678147435188293,1.1629183292388916
1761506943739952000,5.6799521484375,-0.8743776082992554,0.13994517922401428,0.5942555069923401
1761506943760108000,5.70010791015625,-1.0904940366744995,-0.15503467619419098,0.14504404366016388
1761506943780265200,5.72026513671875,-0.4796299338340759,0.2133699506521225,0.3063066005706787
1761506943800422000,5.740421875,0.3936478793621063,0.5808872580528259,0.45321303606033325
1761506943820578000,5.760578125,0.9538106918334961,0.9678258299827576,0.45629462599754333
1761506943840735000,5.78073486328125,1.2030014991760254,0.8346096873283386,0.6182389855384827
1761506943860891000,5.800890869140625,0.6322166323661804,-0.17365562915802002,0.19993802905082703
1761506943881048000,5.821048095703125,-0.06010362133383751,-1.1672358512878418,-0.918007493019104
1761506943901204000,5.841203857421875,-0.02100668102502823,-1.2300946712493896,-1.9631052017211914
1761506943921361000,5.86136083984375,-0.08866626024246216,-0.8959922194480896,-2.735767364501953
1761506943941516800,5.881516845703125,-0.4904835820198059,-0.7687059044837952,-3.1010196208953857
1761506943961674000,5.901674072265625,-0.8786296248435974,-0.7484590411186218,-2.9564356803894043
1761506943981830000,5.921829833984375,-0.6959649920463562,-0.45027896761894226,-2.2283267974853516
1761506944001987000,5.941987060546875,-0.1131693422794342,0.026844210922718048,-1.0953601598739624
1761506944022143000,5.96214306640625,0.048182256519794464,0.06652792543172836,-0.24972805380821228
1761506944042300000,5.9822998046875,-0.16699102520942688,-0.2023724615573883,0.16836406290531158
1761506944062455800,6.002455810546875,-0.49608492851257324,-0.6130799055099487,0.00041448441334068775
1761506944082613000,6.022613037109375,-0.726368248462677,-0.45313015580177307,-0.2714938819408417
1761506944102769000,6.042768798828125,-0.853439211845398,0.08349993824958801,-0.27404075860977173
1761506944122926000,6.062926025390625,-0.7905707955360413,0.10250718146562576,-0.1179366409778595
1761506944143082000,6.08308203125,-0.5441200137138367,-0.2483251392841339,0.1370660811662674
1761506944163239000,6.103239013671875,-0.41709521412849426,-0.5247278809547424,0.4768596887588501
1761506944183394800,6.123394775390625,-0.281255304813385,-0.8175438046455383,0.950310468673706
1761506944203552000,6.143552001953125,-0.35622620582580566,-1.5307103395462036,1.4446265697479248
1761506944223708000,6.1637080078125,-0.6169973015785217,-1.891847848892212,1.7389211654663086
1761506944243865000,6.183864990234375,-0.8575565218925476,-1.4555933475494385,1.8496789932250977
1761506944264021000,6.20402099609375,-0.8305730819702148,1.0894477367401123,3.2897915840148926
1761506944284178000,6.224177978515625,0.09703536331653595,1.880525827407837,3.9541211128234863
1761506944304333800,6.244333740234375,0.6889815330505371,1.4087424278259277,3.076486110687256
1761506944324491000,6.264490966796875,0.9937504529953003,1.270918846130371,1.5466173887252808
1761506944344647000,6.28464697265625,0.9849839806556702,1.3261373043060303,0.12585178017616272
1761506944364804000,6.30480419921875,0.5438268780708313,0.5401302576065063,-1.2218300104141235
1761506944384960000,6.3249599609375,0.10625524073839188,0.033868663012981415,-1.5287727117538452
1761506944405117000,6.345116943359375,0.2608073055744171,-0.1392655223608017,-0.8018167614936829
1761506944425272800,6.36527294921875,0.44734641909599304,-0.5009732842445374,-0.07903935015201569
1761506944445430000,6.385429931640625,0.3118404746055603,-0.7766448855400085,0.1137666255235672
1761506944465586000,6.4055859375,0.055457953363657,-0.7146010398864746,-0.20229949057102203
1761506944485743000,6.4257431640625,-0.16920223832130432,-0.3112550973892212,-0.6480495929718018
1761506944505899000,6.44589892578125,-0.22197242081165314,0.14062738418579102,-0.9357170462608337
1761506944526056000,6.466055908203125,-0.20237252116203308,0.44573116302490234,-0.8565052151679993
1761506944546211800,6.4862119140625,-0.22760732471942902,0.6846467852592468,-0.4472384750843048
1761506944566369000,6.506369140625,-0.3693382441997528,0.8029746413230896,-0.14022114872932434
1761506944586525000,6.52652490234375,-0.4757935702800751,0.8328287601470947,0.01263926737010479
1761506944606682000,6.54668212890625,-0.5896565914154053,0.588187038898468,-0.017636938020586967
1761506944626838000,6.566838134765625,-0.6106447577476501,0.4033079743385315,-0.045756109058856964
1761506944646995000,6.586994873046875,-0.4685523509979248,0.3458123207092285,-0.15032333135604858
1761506944667150800,6.60715087890625,-0.1882552206516266,0.017551954835653305,-0.28858253359794617
1761506944687308000,6.62730810546875,0.47354692220687866,0.2560619115829468,-0.06383123993873596
1761506944707464700,6.647464599609375,0.9909909963607788,0.681736409664154,0.062014296650886536
1761506944727622000,6.667621826171875,1.0585846900939941,0.4758343994617462,0.03099065087735653
1761506944747777800,6.68777783203125,1.0794615745544434,0.04538339376449585,0.034696198999881744
1761506944767934700,6.707934814453125,0.8201516270637512,0.13606823980808258,0.2653762102127075
1761506944788090600,6.728090576171875,0.8295312523841858,0.3800942897796631,0.596860408782959
1761506944808247800,6.748247802734375,1.0041983127593994,-0.8412663340568542,0.28148916363716125
1761506944828404700,6.76840478515625,0.896671712398529,-1.0516287088394165,-0.5580138564109802
1761506944848561000,6.788560791015625,1.2126914262771606,-0.04803723469376564,-0.8904455900192261
1761506944868717600,6.808717529296875,1.6406307220458984,0.37883079051971436,-1.2085087299346924
1761506944888873700,6.828873779296875,1.4139978885650635,0.8011197447776794,-1.3940417766571045
1761506944909030700,6.84903076171875,0.7864635586738586,0.406658798456192,-1.3619351387023926
1761506944929186800,6.869186767578125,0.06965530663728714,1.3095595836639404,-1.1348956823349
1761506944949343700,6.88934375,-0.9460676312446594,0.9959375262260437,-1.1799838542938232
1761506944969500000,6.9095,-0.9229720234870911,-0.8509243130683899,-0.1652754843235016
1761506944989656600,6.929656494140625,-0.4463532865047455,-1.205774188041687,0.638247549533844
1761506945009812700,6.949812744140625,-0.2878856658935547,-1.269274353981018,1.1188184022903442
1761506945029969700,6.9699697265625,-0.16320368647575378,-1.1029874086380005,1.4246646165847778
1761506945050125800,6.990125732421875,0.04565542936325073,-0.7257084250450134,1.1442667245864868
1761506945070282800,7.01028271484375,0.04749900475144386,-0.3926958739757538,0.42404404282569885
1761506945090439000,7.03043896484375,-0.03716351091861725,0.13337497413158417,-0.02211504988372326
1761506945110595600,7.050595703125,0.2569076716899872,0.8587077260017395,-0.010385479778051376
1761506945130751700,7.070751708984375,0.6089567542076111,1.0446175336837769,0.0045958817936480045
1761506945150908700,7.09090869140625,0.45361804962158203,0.8369981050491333,-0.22636175155639648
1761506945171064600,7.111064697265625,0.1964322328567505,0.6452158093452454,-0.2870131731033325
1761506945191221800,7.1312216796875,0.2880018353462219,0.3590649962425232,-0.12257843464612961
1761506945211377700,7.151377685546875,0.5754196643829346,-0.03284702077507973,-0.31002530455589294
1761506945231534600,7.17153466796875,0.44586706161499023,-0.00005041435360908508,-1.364371657371521
1761506945251690800,7.191690673828125,0.12282644212245941,-0.4274565577507019,-1.9880656003952026
1761506945271847700,7.21184765625,0.23884639143943787,-1.5166715383529663,-1.0971776247024536
1761506945292003600,7.232003662109375,0.5049725770950317,-1.3647841215133667,0.6350675225257874
1761506945312160800,7.252160888671875,0.6016446352005005,-1.8387999534606934,0.9084463715553284
1761506945332316700,7.272316650390625,0.5039148926734924,-1.7718154191970825,-0.2355053871870041
1761506945352473900,7.292473876953125,0.8428319096565247,-0.8479044437408447,-1.2930175065994263
1761506945372629800,7.312629638671875,1.0806097984313965,0.3684225082397461,-2.026423931121826
1761506945392786700,7.33278662109375,0.7739365100860596,1.1672186851501465,-2.0467212200164795
1761506945412942600,7.352942626953125,0.5570330619812012,0.9388006925582886,-0.545769214630127
1761506945433099800,7.373099853515625,0.47522538900375366,0.7174838185310364,0.16625060141086578
1761506945453255700,7.393255615234375,0.7066707015037537,0.6643468141555786,0.496814489364624
1761506945473412900,7.413412841796875,0.4410676956176758,0.3500240743160248,0.3272227644920349
1761506945493568800,7.43356884765625,-0.048985619097948074,0.5099861025810242,0.03830921649932861
1761506945513725700,7.4537255859375,-0.06619792431592941,0.5151360034942627,0.0380265936255455
1761506945533881600,7.473881591796875,0.1681271195411682,0.47988036274909973,0.3720681965351105
1761506945554038800,7.494038818359375,0.2612951099872589,0.4177308976650238,0.8392732739448547
1761506945574194700,7.514194580078125,0.08036114275455475,0.39062634110450745,1.1441128253936768
1761506945594351900,7.534351806640625,-0.1806703805923462,0.22555294632911682,1.263847827911377
1761506945614507800,7.5545078125,-0.19839730858802795,0.17287024855613708,1.160758137702942
1761506945634664700,7.574664794921875,-0.13304641842842102,0.20045419037342072,1.024229645729065
1761506945654820600,7.594820556640625,-0.07038722187280655,-0.06800331175327301,0.9013869762420654
1761506945674977800,7.614977783203125,0.043413273990154266,-0.05239100009202957,0.5146815776824951
1761506945695134700,7.635134765625,0.04680052399635315,-0.06916236132383347,0.037366628646850586
1761506945715290600,7.65529052734375,-0.30436524748802185,-0.4143396019935608,-0.39900681376457214
1761506945735447300,7.675447265625,-0.7298915982246399,-0.4037257730960846,-0.1479957401752472
1761506945755603500,7.695603515625,-0.5979781150817871,-0.7094114422798157,0.06256608664989471
1761506945775760400,7.715760498046875,-0.25469839572906494,-0.40837129950523376,0.12678076326847076
1761506945795916500,7.73591650390625,0.013420233502984047,-0.5690106153488159,0.8461822867393494
1761506945816073500,7.756073486328125,0.26315146684646606,-0.802013099193573,1.3903518915176392
1761506945836229600,7.776229736328125,0.007201627362519503,-0.5916394591331482,0.5778897404670715
1761506945856386300,7.79638623046875,0.060273636132478714,-0.11026853322982788,0.4097851514816284
1761506945876542500,7.81654248046875,0.28881269693374634,0.19581300020217896,0.5864198803901672
1761506945896699400,7.836699462890625,0.1600552201271057,0.312591552734375,0.5198124647140503
1761506945916855600,7.85685546875,-0.08049704879522324,0.17885272204875946,0.1664719581604004
1761506945937012500,7.877012451171875,-0.044804107397794724,0.0744539126753807,-0.2946469485759735
1761506945957168600,7.897168701171875,0.03698675334453583,-0.08006864041090012,-0.7458488345146179
1761506945977325300,7.9173251953125,0.07236720621585846,-0.1250925064086914,-0.736515998840332
1761506945997481500,7.9374814453125,0.08228324353694916,-0.10031480342149734,-0.45278099179267883
1761506946017638400,7.957638427734375,0.09433465451002121,0.0872625932097435,-0.08218807727098465
1761506946037794600,7.977794677734375,0.029116056859493256,0.0569947250187397,0.27343904972076416
1761506946057951500,7.997951416015625,-0.07765596359968185,-0.12163669615983963,0.6042091846466064
1761506946078106400,8.0181064453125,-0.01620228961110115,-0.021756775677204132,0.6538724899291992
1761506946098262500,8.038262451171875,0.09150078892707825,0.22942312061786652,0.31835782527923584
1761506946118419500,8.05841943359375,0.06662389636039734,0.3182930052280426,-0.02105504646897316
1761506946138575600,8.07857568359375,-0.03652209788560867,0.07223589718341827,-0.09923765808343887
1761506946158732300,8.098732177734375,-0.01880762353539467,-0.03721075505018234,0.05083633214235306
1761506946178888400,8.118888427734374,-0.003725588321685791,-0.010842882096767426,0.09834444522857666
1761506946199045400,8.13904541015625,-0.01757650449872017,0.04277222976088524,-0.11342521011829376
1761506946219201500,8.159201416015625,-0.04031394422054291,-0.1223159059882164,-0.18134699761867523
1761506946239358500,8.1793583984375,-0.14742623269557953,-0.5041179060935974,-0.2348356544971466
1761506946259514600,8.1995146484375,-0.49050572514533997,-0.8260709643363953,-0.9192898273468018
1761506946279671600,8.219671630859375,-0.547337532043457,-0.5310071706771851,-0.8023048043251038
1761506946299827500,8.239827392578125,-0.5285008549690247,-0.32614395022392273,-0.1251259297132492
1761506946319984400,8.259984375,-0.3101608157157898,0.28990280628204346,0.08517113327980042
1761506946340140500,8.280140625,-0.12423855066299438,0.628852903842926,0.04644840583205223
1761506946360297500,8.30029736328125,0.43495386838912964,1.3175417184829712,0.7318077683448792
1761506946380453600,8.32045361328125,0.8964389562606812,1.3523802757263184,1.485137939453125
1761506946400610600,8.340610595703126,0.7377797961235046,0.6227148771286011,1.5600119829177856
1761506946420766700,8.3607666015625,0.28038647770881653,0.0670543760061264,0.9395736455917358
1761506946440923400,8.38092333984375,0.16364753246307373,-0.03650263324379921,0.44740211963653564
1761506946461082400,8.401082275390625,0.4207705855369568,0.03157224506139755,0.6045539975166321
1761506946481238500,8.421238525390624,0.521598219871521,-0.03907935321331024,1.1268991231918335
1761506946501395500,8.4413955078125,0.3117082715034485,-0.2598850727081299,1.5324351787567139
1761506946521551600,8.461551513671875,0.0013393114786595106,-0.19330209493637085,1.4563210010528564
1761506946541708500,8.48170849609375,-0.1930566281080246,-0.0326240248978138,0.8610604405403137
1761506946561864700,8.50186474609375,-0.29967641830444336,0.09960395842790604,0.15234100818634033
1761506946582021400,8.522021484375,-0.35921868681907654,0.20815175771713257,-0.32649675011634827
1761506946602177500,8.542177490234375,-0.28015127778053284,0.43431422114372253,-0.5745288133621216
1761506946622334500,8.56233447265625,-0.25294506549835205,0.3279252052307129,-0.42798152565956116
1761506946642491600,8.58249169921875,-0.1681043654680252,0.21143744885921478,-0.33858153223991394
1761506946662647600,8.6026474609375,0.003983467351645231,0.26120027899742126,-0.37776580452919006
1761506946682803700,8.6228037109375,-0.05123237520456314,0.14706504344940186,-0.3658823072910309
1761506946702960400,8.64296044921875,-0.31696924567222595,-0.32493847608566284,-0.12229910492897034
1761506946723117600,8.66311767578125,-0.5745955109596252,-0.8793104887008667,0.009145213291049004
1761506946743273500,8.6832734375,-0.8777262568473816,-1.577714204788208,-0.6333985328674316
1761506946763430700,8.7034306640625,-0.7953898906707764,-1.4559528827667236,-1.6245943307876587
1761506946783586600,8.723586669921875,-0.19003549218177795,-0.33084869384765625,-1.6405003070831299
1761506946803743500,8.743743408203125,0.4257006049156189,0.07717318087816238,-0.9504362344741821
1761506946823899400,8.7638994140625,0.4209494888782501,-0.41503697633743286,-0.5912169814109802
1761506946844056300,8.784056396484376,0.19590868055820465,-0.28105825185775757,-0.5887423157691956
1761506946864212500,8.80421240234375,0.4389894902706146,0.534559965133667,-0.5686085820198059
1761506946884369400,8.824369384765625,0.5171605348587036,0.8566532135009766,-0.995983362197876
1761506946904525600,8.844525634765626,0.09274120628833771,0.33497780561447144,-1.2032490968704224
1761506946924682500,8.8646826171875,-0.8078398704528809,-0.2826118767261505,-1.02391517162323
1761506946944838400,8.88483837890625,-1.4949640035629272,-0.41584649682044983,-0.5818034410476685
1761506946964995300,8.904995361328124,-1.2275129556655884,-0.47592249512672424,-0.09035874158143997
1761506946985151500,8.9251513671875,0.22412145137786865,-0.6613575220108032,-0.3207046091556549
1761506947005308400,8.945308349609375,0.39814120531082153,-0.5617466568946838,-0.25216010212898254
1761506947025464600,8.965464599609374,-0.10902335494756699,-0.6504925489425659,0.1980142891407013
1761506947045621500,8.98562158203125,-0.3240828216075897,-0.6482498049736023,0.5039322376251221
1761506947065777700,9.005777587890625,-0.1087290421128273,-0.5853208899497986,0.2504909038543701
1761506947085934300,9.025934326171875,0.10102275013923645,-0.6891409754753113,-0.4335329830646515
1761506947106090500,9.046090576171874,0.030750557780265808,-0.3838351368904114,-0.8120235204696655
1761506947126247400,9.066247314453125,-0.146419957280159,0.10679422318935394,-0.44231101870536804
1761506947146403600,9.086403564453125,-0.08887068182229996,0.026168199256062508,0.02932034805417061
1761506947166560500,9.106560546875,0.012055689468979836,0.12015338987112045,0.4409950375556946
1761506947186716700,9.126716552734376,0.23894654214382172,0.3204765319824219,0.7696222066879272
1761506947206873300,9.146873291015625,0.39918607473373413,0.49652621150016785,0.9549283981323242
1761506947227030500,9.167030517578125,0.34587034583091736,0.7444190382957458,1.0220274925231934
1761506947247186400,9.1871865234375,0.6343464851379395,0.6313230991363525,0.8894075751304626
1761506947267343600,9.207343505859376,0.8816075325012207,0.37498947978019714,0.5831019878387451
1761506947287499500,9.22749951171875,0.9069848656654358,0.14343248307704926,0.5838518142700195
1761506947307656400,9.247656494140625,1.1107245683670044,0.06912410259246826,0.7133194804191589
1761506947327812400,9.267812255859376,0.8514281511306763,0.23068490624427795,0.7168464660644531
1761506947347969500,9.287969482421875,0.3397047519683838,0.40598297119140625,0.5946415662765503
1761506947368125400,9.30812548828125,0.23078517615795135,0.569230854511261,0.040186602622270584
1761506947388282600,9.32828271484375,0.22008287906646729,0.7856999635696411,-0.4885201156139374
1761506947408438500,9.3484384765625,0.1488829255104065,0.9044405817985535,-0.1882239133119583
1761506947428595500,9.368595458984375,0.017452463507652283,1.1422327756881714,0.28893807530403137
1761506947448751400,9.38875146484375,-0.06603989005088806,1.2890161275863647,0.2504105865955353
1761506947468908500,9.408908447265626,-0.2516137361526489,0.975836992263794,-0.3665352463722229
1761506947489064400,9.429064453125,-0.5981797575950623,0.16446632146835327,-1.219873309135437
1761506947509221600,9.4492216796875,-0.9487239718437195,-0.498619019985199,-1.5599347352981567
1761506947529377500,9.46937744140625,-1.1043940782546997,-0.5520259141921997,-1.2054213285446167
1761506947549534500,9.489534423828125,-0.8723375797271729,-0.17443841695785522,-0.4892893135547638
1761506947569690400,9.5096904296875,-0.5687135457992554,-0.07573795318603516,0.19614708423614502
1761506947589847600,9.52984765625,-0.310378760099411,-0.10013057291507721,0.4704446792602539
1761506947610003500,9.55000341796875,-0.0067137498408555984,0.014844940043985844,0.3235214650630951
1761506947630160600,9.57016064453125,0.08175751566886902,-0.15535391867160797,-0.06529510766267776
1761506947650316500,9.590316650390625,0.05569087713956833,-0.44562196731567383,-0.28563353419303894
1761506947670473500,9.610473388671876,0.05742298811674118,-0.43668079376220703,-0.3674047887325287
1761506947690629400,9.63062939453125,0.10315900295972824,-0.22131004929542542,-0.3657839298248291
1761506947710785500,9.65078564453125,0.08801956474781036,0.03129138797521591,-0.3885032832622528
1761506947730941400,9.67094140625,0.18779106438159943,-0.11122655123472214,-0.3133862018585205
1761506947751098600,9.6910986328125,-0.06526844203472137,-0.7539839148521423,-0.5684669613838196
1761506947771254500,9.711254638671875,-0.06745167821645737,-1.72093665599823,-1.1976487636566162
1761506947791411700,9.73141162109375,0.2177278995513916,-1.7460391521453857,-1.443886399269104
1761506947811567600,9.751567626953126,0.49386927485466003,-1.6394273042678833,-0.9371346235275269
1761506947831724500,9.771724609375,0.09042317420244217,-0.5734204053878784,0.4310118556022644
1761506947851880400,9.79188037109375,0.4458596408367157,0.25842297077178955,0.983352541923523
1761506947872037600,9.81203759765625,1.262998104095459,1.2307404279708862,0.776362955570221
1761506947892194600,9.832194580078125,0.9842907786369324,1.7630739212036133,0.46842968463897705
1761506947912350700,9.852350830078125,0.27919501066207886,1.4518988132476807,0.1841007024049759
1761506947932507400,9.87250732421875,-0.2751205861568451,1.0234602689743042,-0.18263313174247742
1761506947952663600,9.89266357421875,-0.25436562299728394,1.0651754140853882,-0.25739264488220215
1761506947972820500,9.912820556640625,-0.04032111167907715,1.0509568452835083,-0.11910460144281387
1761506947992976600,9.9329765625,-0.08732236921787262,0.8630002737045288,0.14094315469264984
1761506948013133600,9.953133544921876,-0.11721377074718475,0.6891050934791565,0.4947012662887573
1761506948033289700,9.973289794921875,-0.13790550827980042,0.4595024585723877,0.5282787084579468
1761506948053446700,9.99344677734375,-0.044599007815122604,0.2150992453098297,0.47524887323379517
1761506948073602600,10.0136025390625,-0.015866756439208984,0.15245380997657776,0.6092543601989746
1761506948093759500,10.033759521484376,0.06499414891004562,0.2612428665161133,0.5917094349861145
1761506948113915600,10.05391552734375,0.2195185422897339,0.240268737077713,0.3455117344856262
1761506948134072600,10.074072509765625,0.2724651098251343,0.09751695394515991,0.04627200588583946
1761506948154228700,10.094228759765626,0.334648996591568,0.17555269598960876,-0.10687337070703506
1761506948174385700,10.1143857421875,0.4177056550979614,0.2918108105659485,-0.09003683179616928
1761506948194541600,10.13454150390625,0.3321148753166199,0.2732878625392914,0.022386211901903152
1761506948214698500,10.154698486328124,0.24298910796642303,0.1695464700460434,0.2342512011528015
1761506948234854700,10.174854736328125,0.36415010690689087,0.18541133403778076,0.4169131815433502
1761506948255011600,10.195011474609375,0.6870664954185486,0.03746262565255165,0.35594630241394043
1761506948275167700,10.215167724609374,0.9071105122566223,-0.2790500223636627,0.2112247347831726
1761506948295324700,10.23532470703125,0.9758109450340271,-0.36522117257118225,0.20530438423156738
1761506948315480800,10.255480712890625,0.9574388861656189,-0.2005908042192459,0.6384043097496033
1761506948335637500,10.275637451171875,0.8854867815971375,0.2133345752954483,0.763168215751648
1761506948355793700,10.295793701171876,0.660974383354187,0.4017750322818756,-0.07479192316532135
1761506948375950600,10.31595068359375,0.15241548418998718,-0.053620561957359314,-1.4855411052703857
1761506948396106800,10.336106689453125,-0.10045698285102844,-0.2846177816390991,-1.9770197868347168
1761506948416263700,10.356263671875,-0.1416555643081665,0.012890099547803402,-1.376848578453064
1761506948436419600,10.376419677734376,-0.09686179459095001,0.6872726082801819,-0.5694817304611206
1761506948456576500,10.396576416015625,0.08470339328050613,1.218177318572998,-0.1155463233590126
1761506948476732400,10.416732421875,0.2202334702014923,1.1243082284927368,-0.06312274932861328
1761506948496889600,10.4368896484375,0.05827299505472183,0.473447322845459,-0.08805544674396515
1761506948517045500,10.45704541015625,-0.032437972724437714,-0.1039554551243782,0.0575910285115242
1761506948537202700,10.47720263671875,0.18915191292762756,-0.13430579006671906,0.5181569457054138
1761506948557358600,10.497358642578124,0.4755118787288666,0.34368810057640076,0.9491381049156189
1761506948577515500,10.517515625,0.4483206272125244,0.4292474091053009,1.1605279445648193
1761506948597671400,10.53767138671875,0.3106135427951813,0.25407418608665466,1.2062065601348877
1761506948617828600,10.55782861328125,0.24277162551879883,0.2114264965057373,1.107327938079834
1761506948637984500,10.577984619140626,0.2913017272949219,0.25021907687187195,0.8500387668609619
1761506948658141700,10.5981416015625,0.3095075786113739,0.3053872883319855,0.6791569590568542
1761506948678297600,10.618297607421875,0.10224881023168564,-0.2329205870628357,0.7197028398513794
1761506948698454500,10.63845458984375,0.039910029619932175,-0.4997798800468445,0.4991331100463867
1761506948718611200,10.658611083984376,0.26341840624809265,-0.42827194929122925,-0.37529316544532776
1761506948738768400,10.678768310546875,0.1962924599647522,-0.4731241762638092,-0.9463710188865662
