time,seconds_elapsed,z,y,x
1761432067056396500,0.074396484375,-0.6145949563890695,-0.39803748730570077,-2.346524547702074
1761432067076339500,0.09433935546875,-0.4570061013638973,-0.35445991912484165,-2.410519319359213
1761432067096281300,0.11428125,-0.3153320238292217,-0.10319500153660774,-2.527451023694873
1761432067116223200,0.13422314453125,-0.5293944612264633,0.06629355011880397,-2.2787489423319696
1761432067136166400,0.15416650390625,-0.9718664258033036,0.1475216345191002,-2.0002305455066263
1761432067156108300,0.1741083984375,-1.113536996206641,0.32463176709413527,-1.7237435083784163
1761432067176050400,0.194050537109375,-0.7217699674725532,0.571916967396438,-1.1621978590011597
1761432067195993300,0.213993408203125,-0.3467980061948299,0.7602233245074749,-0.7318629800070077
1761432067215935500,0.233935546875,-0.37744331982731816,0.8872054443448781,-0.2573368944456801
1761432067235877400,0.25387744140625,-0.39359950485825534,1.0429138924509287,0.08466739293290301
1761432067255820300,0.2738203125,-0.4268973788261413,0.9913991015300154,0.607277619113028
1761432067275762400,0.293762451171875,-0.5810112512171268,0.8717834188073873,1.0568192298151553
1761432067295704300,0.313704345703125,-0.4459685745209455,0.8511597329735755,0.820179853624478
1761432067315647500,0.3336474609375,-0.12009236032366752,1.1672884601384401,0.29261344807539136
1761432067335589400,0.35358935546875,0.18200316531360147,1.3508590208992362,0.44174467321559785
1761432067355531500,0.373531494140625,0.027801030117273327,1.4317416528627276,1.040962173861265
1761432067375474400,0.393474365234375,-0.41098143229186535,1.25869248611629,1.6915123868592084
1761432067395416600,0.41341650390625,-0.6375245810776948,0.7173541968569159,1.7401191813789307
1761432067415358200,0.433358154296875,-0.740506232124567,0.16213088236898182,1.439817261160165
1761432067435300400,0.45330029296875,-0.8425824587643146,-0.20039894596487282,1.301654845008254
1761432067455243300,0.4732431640625,-0.5918056169539689,0.0672165101826191,1.3324603176385164
1761432067475185400,0.493185302734375,-0.4114624938070774,0.5643725433662533,1.319920277278125
1761432067495127600,0.51312744140625,-0.3699216921508312,0.6954989234015345,1.4138665350846946
1761432067515070500,0.533070556640625,-0.35212183156609533,0.27974954605549573,1.4130080185592173
1761432067535012600,0.5530126953125,0.05367898321747779,-0.15526216564327477,1.1613813549865037
1761432067554954200,0.572954345703125,0.723797673907876,-0.23334756810367105,1.027573042390868
1761432067574897400,0.5928974609375,1.0938590667903423,-0.21495763267129658,0.7201266572449356
1761432067594839300,0.61283935546875,0.8629232360035181,-0.4327291537195444,0.41583921105396
1761432067614781400,0.632781494140625,0.10362111799418926,-0.6870990515857934,0.57085156665463
1761432067634724600,0.652724609375,-0.10149988805651664,-0.37936493553966283,0.6379149686347693
1761432067654666800,0.672666748046875,0.025859832921624182,-0.047178223021328444,0.8714390623491257
1761432067674608600,0.692608642578125,0.20314123041033744,0.06860738001912832,0.9673099315427243
1761432067694551800,0.7125517578125,0.18872458252310753,-0.18485767796188593,1.0957811208941042
1761432067714493400,0.732493408203125,0.45980596121549605,-0.5996674363702535,1.1950883942771702
1761432067734435600,0.752435546875,0.9594330606877803,-0.9901324425950646,1.0494202786702662
1761432067754378500,0.77237841796875,1.1191109969466924,-1.089540326808393,0.5923283256538212
1761432067774320600,0.792320556640625,0.9777718504548072,-0.9845733471632003,0.7029904482007027
1761432067794262500,0.812262451171875,0.8463573011279105,-0.8522372990772128,0.9294898309100419
1761432067814205700,0.832205810546875,1.229587387663126,-1.0233145812287927,1.2840792946986854
1761432067834147600,0.852147705078125,1.462267431768775,-1.2443126631081103,1.1193404217883944
1761432067854089500,0.87208935546875,1.7087883697003126,-1.1254328934445976,0.8247876396808773
1761432067874031600,0.892031494140625,1.1825047339707613,-1.011146296790242,0.5989268471360206
1761432067893974500,0.911974609375,-0.013325345519185065,-0.950552419617772,0.7031535298079252
1761432067913916700,0.931916748046875,-0.3384896120548248,-0.8140829249888658,1.1407939095098525
1761432067933858600,0.951858642578125,-0.30668869864642617,-0.8688517492696642,1.1166149423472582
1761432067953801700,0.9718017578125,-0.16490765360593795,-0.9719602415665983,0.6389680578842759
1761432067973743600,0.99174365234375,-0.4570125311046839,-1.0098509962826967,0.3908841814849525
1761432067993685500,1.011685546875,-1.6575123559713363,-1.1987263854533434,0.851680103585869
1761432068013628400,1.03162841796875,-2.8153783232480287,-1.1564505475208162,1.240949031893909
1761432068033570600,1.051570556640625,-3.1997745309531687,-0.602208645285666,1.0741108486168085
1761432068053512400,1.071512451171875,-2.533982471290231,-0.4966144736528396,1.2147868550248444
1761432068073455600,1.09145556640625,-1.3689888440907,-0.255802268756926,0.6761446729816496
1761432068093397500,1.1113974609375,-1.2906319312125443,-0.31002807220220563,0.13774336875593288
1761432068113339600,1.131339599609375,-1.513491423049569,-0.2938420765548944,-0.738013027069345
1761432068133282600,1.151282470703125,-1.3905647160828112,0.20641163038313387,-1.2533598929166794
1761432068153224700,1.171224609375,-1.189001110252738,0.7920821055829524,-1.0981075180150568
1761432068173166600,1.19116650390625,-0.9820996505260466,0.800658210748434,-0.3917650559727102
1761432068193108500,1.2111083984375,-0.3145581168472767,0.8150564461961388,-0.4391236770622432
1761432068213051600,1.2310517578125,0.408937943765521,0.6207751063287258,-0.6279888370998203
1761432068232993500,1.25099365234375,1.1311311050862074,0.7350006204456091,-0.6009608371816575
1761432068252935700,1.270935791015625,1.5382728130847214,0.8753416958108544,-0.3851984639987349
1761432068272878600,1.290878662109375,1.6189765813499688,0.4974427411705255,0.17744155648648738
1761432068292820700,1.31082080078125,1.914100514408946,0.19837796153128145,0.12144558329721912
1761432068312762600,1.3307626953125,2.5228052437156436,0.4559270739555359,-0.48240525797121225
1761432068332705500,1.35070556640625,2.536254507875442,0.6306199162557721,-0.48452108108140524
1761432068352647400,1.3706474609375,1.8395809877365827,0.7190653846889734,0.10359747225712053
1761432068372589600,1.390589599609375,1.3215087155133485,0.6411126686975359,0.43105500996224577
1761432068392532500,1.410532470703125,1.3013888875484465,0.39843700801730153,0.17840033678235484
1761432068412474600,1.430474609375,2.017481393906474,0.16246522888988255,-0.2565634623877704
1761432068432416800,1.450416748046875,2.5120336743324994,-0.2011509333759546,-0.2244123107695952
1761432068452358400,1.4703583984375,1.8866501974254846,-0.6082812431976199,-0.3895586685022339
1761432068472301600,1.490301513671875,1.0324041888743638,-0.7966478060632943,-0.6316018399652094
1761432068492243500,1.510243408203125,0.5271019663751125,-0.9767512752354145,-0.7629909625899046
1761432068512185600,1.530185546875,0.37605683390498157,-1.339182611630857,-0.8553276663079857
1761432068532128500,1.55012841796875,0.17400924395024775,-1.52052994338423,-0.9863033858262001
1761432068552070700,1.570070556640625,-0.23743337611258028,-1.6334537272527814,-1.1796545321714131
1761432068572012500,1.590012451171875,-0.49812896986901756,-1.316979547651112,-1.524258023996651
1761432068591955700,1.609955810546875,-0.7926888393044471,-1.2720093560680745,-1.3089911792457103
1761432068611897600,1.629897705078125,-0.9323270270973444,-1.5324641268059611,-0.4848199178975075
1761432068631839500,1.649839599609375,-1.34761580119431,-2.2557310548380016,0.4827959377892315
1761432068651782700,1.66978271484375,-1.7366309008717535,-2.2646926521897313,0.10139578836122527
1761432068671724800,1.689724853515625,-0.8497627256572247,-1.683020598976314,-0.47237095335405316
1761432068691666700,1.709666748046875,0.0773936208039522,-0.5864458434864879,-0.4761867487825453
1761432068711608600,1.729608642578125,0.2085930660754442,0.5200488329932094,-0.7181849485926329
1761432068731551700,1.7495517578125,-0.3610778759598732,0.61504153111279,0.21045056704301385
1761432068751493600,1.76949365234375,-0.6244757144123315,0.31870296156704425,0.9405949430964886
1761432068771435800,1.789435791015625,-0.047210079464316365,0.18207038533091544,0.7471860752146691
1761432068791378700,1.809378662109375,0.3660346215844154,0.1273953768134117,0.443705269231461
1761432068811320800,1.82932080078125,0.6281482654452324,0.17383973260223864,0.31002412667945023
1761432068831262700,1.8492626953125,0.5371545738339424,0.37792321229875087,0.39490280600916594
1761432068851206000,1.869205810546875,0.5889268466472626,0.6778796800807118,0.49304348329827186
1761432068871147500,1.8891474609375,0.8233943586915731,0.8484224169641733,0.7076930729337036
1761432068891089700,1.909089599609375,1.131222875022888,0.9146525464579462,0.5343844150008633
1761432068911031800,1.92903173828125,1.4078741628021,0.8191723570823669,-0.07260050477590411
1761432068930974700,1.948974609375,1.291708620533347,0.3740899177461862,0.019197178428340702
1761432068950916900,1.968916748046875,0.9811357739299535,-0.17797931662499902,0.44365514647942034
1761432068970858800,1.988858642578125,0.7638689875334501,-0.6389490609228611,0.4253687079541385
1761432068990802000,2.008802001953125,0.5919365498572587,-0.6403776324212551,-0.2920922920118086
1761432069010743600,2.02874365234375,0.6117530109614133,-0.5218319170176983,-0.46062838351428503
1761432069030685700,2.048685791015625,0.39234628992676734,-0.27408435990065333,-0.15651656788485124
1761432069050628600,2.068628662109375,0.16278467010259629,-0.4605374903604388,0.6061624609453603
1761432069070570800,2.08857080078125,0.5053711960822344,-0.667940762129426,0.33506248715035614
1761432069090512600,2.1085126953125,0.6458487573087215,-0.9940843950912356,0.15934200056912376
1761432069110454800,2.128454833984375,0.5004103588044643,-1.0779384440809487,-0.11936311446735634
1761432069130397700,2.148397705078125,0.2768038479924202,-0.8857178361356258,-0.32448841310068965
1761432069150339600,2.168339599609375,-0.09851824189722537,-0.48852439843863243,-0.24684805099405346
1761432069170281700,2.18828173828125,-1.0898188514888285,0.003301671893894672,-0.2937434384860098
1761432069190224600,2.208224609375,-1.6348814219683407,0.24607494772970676,-0.20232732021156696
1761432069210166800,2.228166748046875,-1.918221978253126,-0.08034048791080713,0.3818741418816149
1761432069230108700,2.248108642578125,-2.3239017970055342,-0.5436413055047392,0.30762999808453023
1761432069250051800,2.2680517578125,-2.25982767650187,-1.7028446588650346,0.9421749788295477
1761432069269993700,2.28799365234375,-1.5212895295798778,-0.9778513454318046,-0.7485356631927191
1761432069289936000,2.307935791015625,-0.5612047269850969,-0.12752104901969433,-2.145202641673386
1761432069309877800,2.327877685546875,-0.5911047752082348,0.7619508789524435,-2.6496228206411003
1761432069329820700,2.347820556640625,-1.18953828586936,1.155583993819356,-1.58822985316962
1761432069349762600,2.367762451171875,-1.0780337211489677,1.2504358221635221,-0.8529648826994002
1761432069369704700,2.38770458984375,-0.2295253794670105,0.944381329767406,-0.5784765451077372
1761432069389647600,2.407647705078125,0.7599439230442047,0.34552433299720287,-0.25282657741438597
1761432069409589800,2.42758984375,1.5613666884243487,0.2592313664227724,-0.3443086370645091
1761432069429532000,2.447531982421875,2.3492536804050204,0.37718174628168344,-0.5642404414191842
1761432069449473500,2.4674736328125,2.2941817815244194,0.5228036846593022,-0.663777431904897
1761432069469416700,2.487416748046875,1.1864712995141744,0.5819193059727549,-0.21613076810389756
1761432069489358600,2.507358642578125,0.5688029270291328,0.7254036477997898,0.20334168488588183
1761432069509300700,2.52730078125,0.712197252485156,0.476264636324346,0.18984991502491755
1761432069529243600,2.54724365234375,1.4167431134343147,-0.20866642357259987,-0.07938346118060871
1761432069549185800,2.567185791015625,1.5841671337753533,-0.7572171284288167,-0.7144954464249312
1761432069569127700,2.587127685546875,0.9245008635163307,-0.9267337371349335,-1.1361577741418034
1761432069589070800,2.60707080078125,0.03060731970965862,-0.5860244032040238,-0.8727223801579326
1761432069609012500,2.627012451171875,-0.7178606850743293,-0.24953473279476165,-0.3828821133477613
1761432069628954600,2.64695458984375,-0.9191647631853819,-0.0014344167172908782,0.06080724592851475
1761432069648897000,2.66689697265625,-0.6340817471474409,-0.2170654186055064,0.6662801354408264
1761432069668840000,2.68683984375,-0.035839375144243235,-0.423699459567666,0.27559821679601443
1761432069688781800,2.70678173828125,-0.00036240357160568235,-0.5394482377290726,-0.5706423808833584
1761432069708723700,2.7267236328125,-0.8218015365421771,-0.6130462656423449,-0.74887212860547
1761432069728667000,2.7466669921875,-2.014691470927,-1.200987316122651,0.6441589775908738
1761432069748608800,2.76660888671875,-2.4800714328825473,-2.2355691412970424,1.788486760315299
1761432069768551000,2.786551025390625,-1.2808113789439202,-1.700292344033718,0.2622514631626196
1761432069788492800,2.806492919921875,-0.35800387534201145,-1.5235668268620968,-0.5484106753310188
1761432069808436000,2.82643603515625,-0.43394612829387186,-0.807508515034616,-0.6521288604915142
1761432069828377600,2.846377685546875,-1.5718758074790238,0.946544645281136,-0.5889900115439668
1761432069848319700,2.86631982421875,-1.959024528762698,1.5305948258027433,0.826848956124857
1761432069868262700,2.8862626953125,-1.2622235828518866,1.558942091625929,1.5446926169991493
1761432069888204800,2.906204833984375,0.11571662945747375,1.0606091236174107,1.01635592119731
1761432069908147000,2.92614697265625,0.6859340994596481,0.3934606809094548,0.82069350223504
1761432069928088800,2.9460888671875,0.6626110915392637,0.3271151083424687,0.7381636875864118
1761432069948032000,2.966031982421875,0.20169336968958376,0.8025333569705486,0.85124236975573
1761432069967974000,2.985973876953125,-0.06998363680839538,1.3305410400137305,0.8244475210063159
1761432069987915800,3.005915771484375,0.3094897275418043,1.2639338939011096,0.9507358864258975
1761432070007858700,3.025858642578125,1.184730008804798,1.1491349638104438,0.3880586392028257
1761432070027800800,3.04580078125,1.5031541534304618,0.9054989336654543,-0.21903828958105295
1761432070047742700,3.06574267578125,1.3121037583082913,0.5386801759660244,0.11577294448828324
1761432070067684900,3.085684814453125,1.4455185415416956,0.262055776193738,0.617856734663993
1761432070087627800,3.105627685546875,1.7382587943345307,0.18672054922431705,0.5624566998075694
1761432070107570000,3.12556982421875,1.6289847651451825,0.17330752542167902,0.30363902875222265
1761432070127511800,3.14551171875,0.9277069660812616,0.40040041704475876,0.3786229215333238
1761432070147454700,3.165454833984375,0.578983544781804,0.6877738821074366,0.6153844262663275
1761432070167396900,3.18539697265625,0.7486515446573495,0.5966632861182093,0.6648575552918017
1761432070187338800,3.2053388671875,1.1064812324762343,0.16450521028488874,0.1666355733770877
1761432070207281000,3.225281005859375,1.2018909869641066,-0.4853258946582675,-0.2343722532426007
1761432070227223800,3.245223876953125,0.5260930815935134,-0.8893123534962535,-0.23338229235718025
1761432070247166000,3.265166015625,-0.07005377943515777,-0.9315002208843827,0.09272292655669152
1761432070267107800,3.28510791015625,-0.3035468934893608,-0.3880903860479593,0.054424874247913244
1761432070287050800,3.30505078125,-0.6124024147808551,0.12437924386262893,-0.11706196138551458
1761432070306993000,3.324992919921875,-1.182691780975461,-0.025149931086599825,0.278445495985914
1761432070326934800,3.344934814453125,-1.2481991491526365,-0.7342392806842922,1.3477043562605977
1761432070346877000,3.364876953125,-0.5877122101604938,-0.37111674715429543,0.5072495937073603
1761432070366819800,3.38481982421875,-0.05970365033447742,-0.4925716280028224,-0.4613060635801404
1761432070386762000,3.404761962890625,-0.6416612424910069,-0.7539838455960154,-1.0422866273980587
1761432070406703900,3.424703857421875,-1.49262048445642,-0.04160685262978077,-1.7285824728421866
1761432070426647000,3.44464697265625,-1.9252333183199166,0.7211535891398787,-1.6321534583091735
1761432070446588700,3.464588623046875,-1.872266282764077,0.7160334696471691,-0.5558813034726307
1761432070466530800,3.48453076171875,-1.1246399895012378,0.7284872930288314,0.01070861911557149
1761432070486473000,3.504472900390625,0.06417173565924167,0.270175954285264,0.19672442217059433
1761432070506415900,3.524415771484375,0.9910112712562084,-0.19525690690129993,-0.131757079154253
1761432070526358000,3.54435791015625,1.1634107419222592,-0.33335634081959725,-0.5427742403466255
1761432070546300000,3.5642998046875,0.622719810655713,0.08239508235305547,-0.6535697800148278
1761432070566242800,3.584242919921875,0.004175239858031273,0.8632409236505627,-0.3313774419620633
1761432070586184700,3.604184814453125,-0.16602233684957027,1.2609180532112716,0.21367383993845432
1761432070606126800,3.624126953125,0.2834820105820894,1.1068129486486316,0.03720363096846267
1761432070626068700,3.64406884765625,1.095551257660985,0.7619719217404722,-0.4906498296273872
1761432070646012200,3.66401220703125,1.431961140832305,0.25772563803493975,-0.9263535787109285
1761432070665954000,3.6839541015625,1.4450953476935624,-0.1290466511517763,-1.0913252374637872
1761432070685896200,3.703896240234375,1.4854016391187905,-0.5665498874053359,-0.7346946232363581
1761432070705838000,3.723838134765625,1.1955389875888824,-0.7191025018289685,-0.5460725147070363
1761432070725781200,3.74378125,0.6598772826611995,-0.7355053550973534,-0.477393055832386
1761432070745723100,3.76372314453125,0.21743103704750535,-0.4540478360801935,-0.4815429420534521
1761432070765665000,3.7836650390625,-0.11774667398035525,-0.3550400571003556,-0.10337491554762236
1761432070785608000,3.80360791015625,-0.2693798354715109,-0.5686342924639582,0.0970038370125927
1761432070805550000,3.823550048828125,0.0020808979272842407,-0.7546493237674236,-0.3506790854118764
1761432070825492200,3.8434921875,0.008272153782844544,-0.9693763625532388,-0.9616722909819334
1761432070845434000,3.86343408203125,-0.8031190479040146,-1.302497725573182,-0.573653289669752
1761432070865377300,3.883377197265625,-1.6562918742656707,-1.5677607733756302,0.2377392271913588
1761432070885319000,3.90331884765625,-1.9889000270664692,-1.144626838736236,0.1894981241788715
1761432070905261000,3.923260986328125,-1.5851719269037245,-1.0806816053092478,0.4427103764425963
1761432070925204000,3.943203857421875,-0.9780758018374442,-1.0515472807615995,0.31265703246630727
1761432070945146000,3.96314599609375,-0.8369529284447431,-0.46449294998794793,-0.17218663163296877
1761432070965088300,3.983088134765625,-1.0239093322515487,0.2746618675276637,-0.4535314109906554
1761432070985030100,4.003030029296875,-1.3893874889969824,0.1901166214033961,0.18683796505890785
1761432071004973000,4.02297314453125,-1.1157909126132726,0.21009820994138717,0.17542276400998233
1761432071024915000,4.0429150390625,-0.5043938754826783,0.059004562154412264,0.34329723153226077
1761432071044857000,4.062857177734375,0.03657704176902771,0.11682488296031951,0.7462265094675123
1761432071064799000,4.082799072265625,0.527399488016963,0.27240678207725283,0.9694375912211834
1761432071084742100,4.1027421875,0.9501970303088426,0.761786043779552,0.9947384750857948
1761432071104684000,4.12268408203125,1.0641524953126906,1.3952791773840785,0.7153633883658796
1761432071124626200,4.142626220703125,0.5875298393309116,1.5224772780597209,0.8067154649607837
1761432071144569000,4.162569091796875,0.6346475643366575,1.4738909418061374,0.8276933710597455
1761432071164511200,4.18251123046875,1.443790694835782,1.267409753318131,0.5879293235098942
1761432071184453000,4.202453125,2.2734306699186564,0.898916048143804,0.6326270913597196
1761432071204395000,4.22239501953125,2.6635113530009984,0.47932840780913827,0.7547416051607578
1761432071224338200,4.242338134765625,2.386678278914094,0.3358767992079258,0.4462625159662217
1761432071244280000,4.262280029296875,1.1391273645371198,0.47065381070524454,0.3648314563397318
1761432071264222200,4.28222216796875,0.16991291454732418,0.5885550907254219,0.7176781681142747
1761432071284164000,4.3021640625,0.1056061543315649,0.563485531398654,0.7864970719922334
1761432071304107300,4.322107177734375,0.9628238721698522,0.0800756994947791,0.5136223070770501
1761432071324049000,4.342048828125,1.6473913594514131,-0.6807049666345119,0.0339457913664286
1761432071343992000,4.361991943359375,1.0373118346601724,-0.9880123817011713,-0.9534737138919531
1761432071363935000,4.38193505859375,-0.4051631014019251,-0.8078247413769364,-0.8918701482202858
1761432071383877000,4.401877197265625,-1.3611439758092163,-0.39537645140290256,-0.6488300381418317
1761432071403819000,4.421819091796875,-1.5630851827800274,-0.08840338285714387,-0.8090681655667722
1761432071423762200,4.44176220703125,-1.5543600245326756,0.16614625549018383,-1.3298539345324039
1761432071443704000,4.4617041015625,-1.7979373102277516,0.041344986823201174,-1.2635942866832017
1761432071463646200,4.481646240234375,-2.1298492974579335,-0.8354565524071454,-0.3747769136296585
1761432071483588000,4.501588134765625,-1.487834419223666,-0.6434986870512366,-0.44546044233571735
1761432071503531000,4.521531005859375,-0.5933019929915666,-1.7818764022648332,1.1554285109966993
1761432071523473200,4.54147314453125,0.49379941623210905,-1.2205796130821107,0.0544196089843288
1761432071543415000,4.5614150390625,1.1219815839469431,-0.981091934788227,-1.2249043444134293
1761432071563357200,4.581357177734375,0.8376964402884245,0.1890881551384926,-2.4737244019433855
1761432071583300000,4.601300048828125,-0.578198531883955,1.1521432057157157,-1.5858435425549744
1761432071603242200,4.6212421875,-1.5501076277852057,1.2642267393678426,-0.4096136510699987
1761432071623184100,4.64118408203125,-1.4565280113339423,0.6432005808874964,0.3323255364671349
1761432071643127000,4.661126953125,0.48363516509234905,-0.1850263125270605,0.033046273826994
1761432071663069000,4.68106884765625,1.8596020315021276,-0.16803279988914727,-0.8474358901448548
1761432071683011000,4.701010986328125,2.2349644534021613,0.12567074497789144,-0.9823132202114909
1761432071702953200,4.720953125,0.9200193341881037,0.70514937980026,-0.4212872838594019
1761432071722896100,4.740896240234375,0.03627192134261131,0.715701461213827,0.41432855076268316
1761432071742838000,4.760838134765625,0.18490180936455725,0.34954321324974297,0.6572096708871423
1761432071762780000,4.78077978515625,1.2555156096458435,-0.11641396407186984,-0.2437906179185025
1761432071782722000,4.80072216796875,1.7354577654391525,-0.4300266167625785,-0.936724531403929
1761432071802665000,4.8206650390625,0.7874550303041935,-0.4083437772646546,-0.6790741505622864
1761432071822607000,4.840607177734375,-0.09221592688262462,-0.10119389084726571,-0.05423911958457902
1761432071842549000,4.860549072265625,-0.06883388225138187,0.052318800780177116,0.19746453648079185
1761432071862492200,4.8804921875,0.4186556201815605,-0.15707885967642068,0.04107429838934913
1761432071882433800,4.900433837890625,0.5107429522484541,-0.6468085422515869,-0.12595053003365173
1761432071902376000,4.9203759765625,0.0010766893208026885,-0.737606126768887,-0.31449002004712817
1761432071922318000,4.940318115234375,-0.5931657993912697,-0.5436205549776554,-0.5652971839305013
1761432071942261000,4.960260986328125,-1.137260401621461,-0.6635208998605608,-0.44113165588378905
1761432071962203100,4.980203125,-1.5994389371871947,-1.1501070237129927,0.473148951989226
1761432071982145000,5.00014501953125,-2.433289807963371,-2.3939374562621114,0.9777973502222448
1761432072002088200,5.020088134765625,-1.9158353753775357,-2.4876477133557198,0.05828390146335587
1761432072022030000,5.040030029296875,-0.7600041287988424,-2.1978116575717923,-0.6156195501964539
1761432072041972000,5.059971923828125,-1.0395967307269574,-0.6728206431254744,-1.5381770976252853
1761432072061913900,5.079913818359375,-2.2011562918245793,0.7106964925333857,-0.5446384998485445
1761432072081857000,5.09985693359375,-2.3331664689570664,1.093622919946909,1.0294328449133783
1761432072101799000,5.119798828125,-0.951214682918787,1.153219310514629,1.1165995255824177
1761432072121741000,5.139740966796875,0.0780219818353653,0.7289300683602691,0.2834635616099462
1761432072141683200,5.15968310546875,0.49762452747821806,0.2913286324292421,0.2636790848129429
1761432072161626000,5.179626220703125,0.5037134920030832,0.4416039495706558,0.6923230698443948
1761432072181568000,5.199568115234375,0.15029869801700113,0.9356021032452583,1.1813483304772525
1761432072201510000,5.219510009765625,0.17850655536949633,1.3856430417716503,1.1477759504169225
1761432072221453000,5.239453125,0.9070154757082461,1.7659955270439385,0.7660198819570243
1761432072241395000,5.25939501953125,1.5043196900784968,1.626052218824625,0.5391593012524768
1761432072261337000,5.279337158203125,1.5579834757268427,0.8571724173918366,0.39501828561499713
1761432072281279000,5.299279052734375,1.0525707785904408,0.13723054212927818,-0.19145848273271693
1761432072301222100,5.31922216796875,0.8427543081998825,-0.011100947467982769,-0.5506365346869454
1761432072321163800,5.339163818359375,1.1602718593746424,0.17935469663143158,-0.36646428170595313
1761432072341106000,5.35910595703125,1.2063877138614654,0.2849570515707135,0.2822103649447672
1761432072361048000,5.379048095703125,0.7391080557644367,0.1238470366820693,0.9989411144074052
1761432072380991000,5.398990966796875,0.36723990572094917,0.3016913287505507,0.645939358201623
1761432072400933000,5.41893310546875,0.41923195876479147,0.49423693086653947,0.39942890513148155
1761432072420875000,5.438875,0.5803045642524958,0.17453911304324865,0.5575435010638088
1761432072440818200,5.458818115234375,0.10459317789673804,-0.19499591787755488,0.4745986028082668
1761432072460760000,5.478760009765625,-0.10067571219205856,-0.32441432495117184,0.04817036673068069
1761432072480702000,5.498701904296875,-0.08766191684007645,0.009584405425190925,-0.5749766472280026
1761432072500644000,5.51864404296875,-0.3902349968612194,0.40480508174449203,-0.5862862690106034
1761432072520587000,5.5385869140625,-0.9522124617844819,0.806189833651483,0.10165937120085582
1761432072540529000,5.55852880859375,-1.0148322918266057,0.21420535299926996,1.2563332096390425
1761432072560471000,5.578470947265625,-0.6704331634670495,-0.20282792667746544,0.700273079000786
1761432072580413200,5.5984130859375,-0.7516630014330148,-0.6395566714271903,0.1408792556288652
1761432072600356000,5.618356201171875,-0.8190361634820699,0.2427747371405363,-0.8633591432027519
1761432072620298000,5.638298095703125,-1.00855803386271,0.7734270894736051,-0.35695089569035915
1761432072640240000,5.658240234375,-1.180143850058317,0.7397448923632503,0.09906093393918126
1761432072660182000,5.67818212890625,-0.5929127014130353,0.6351961381301283,-0.20833467086758464
1761432072680125000,5.698125,0.31102468202412126,0.5170104882106185,-0.46262521988730876
1761432072700067000,5.718067138671875,0.6582628332018852,0.3116214788734913,-0.027850732744205742
1761432072720009200,5.73800927734375,0.7292553547918796,0.2828817066013813,0.5140400210324675
1761432072739952000,5.7579521484375,0.720334381711483,0.24855039793252942,0.76561290859133
1761432072759894000,5.77789404296875,0.7401987736105918,0.3775394736781716,0.3235681199179962
1761432072779836200,5.797836181640625,0.8841928185254335,0.5169464830636978,-0.2680345948750153
1761432072799778000,5.817778076171875,0.47932606972157954,0.7792951047241687,-0.3872171834100038
1761432072819721000,5.837720947265625,-0.042454409369826314,0.7030746193528175,-0.11171314770346506
1761432072839663000,5.8576630859375,0.1698246517419815,0.40173020434379575,-0.040116632338333874
1761432072859605000,5.87760498046875,0.7746160069972277,-0.1757572566613555,-0.25338128868769855
1761432072879547100,5.897547119140625,1.2697773592323065,-0.6275014919742942,-0.6439891009166836
1761432072899490000,5.917489990234375,1.321110656106472,-0.6296531170502304,-0.5735972121009603
1761432072919432200,5.93743212890625,0.6324222895026207,-0.42545360975861546,0.02845663534863852
1761432072939374300,5.957374267578125,0.09318214156627655,-0.3368631798967719,0.6846394565392285
1761432072959316000,5.97731591796875,0.2506061614185571,-0.2540440269127488,0.6229032043986023
1761432072979259100,5.997259033203125,0.7945517105668782,-0.23608517637401819,0.12533006918090395
1761432072999201000,6.017200927734375,0.8821902465313672,-0.7816787849903106,-0.02385229705807287
1761432073019143200,6.03714306640625,0.46021103488504883,-0.9687006552487611,-0.08216761200642213
1761432073039086000,6.057086181640625,-0.11386895576417445,-0.8915349979817867,-0.28623273406233635
1761432073059028200,6.0770283203125,-0.6801572696238756,-0.6998790381819009,-0.5588750419285148
1761432073078970000,6.09697021484375,-1.2582576018303633,-0.5223755223751068,-0.1974226153015159
1761432073098912000,6.116912109375,-2.3424913466632367,-1.2364198640316724,0.9703369512137024
1761432073118855000,6.13685498046875,-2.5677684210360048,-1.15237818351537,0.9952354648225009
1761432073138797000,6.156797119140625,-1.4958832856446505,-1.42693483710289,1.1672799845710395
1761432073158739200,6.1767392578125,-0.15868132643699645,-1.0465475727781652,0.05176573804125655
1761432073178681000,6.19668115234375,0.1145855796009302,-0.4963312727972865,-0.4352325148425996
1761432073198624300,6.216624267578125,-0.9832640181303024,0.5438710226073861,-0.5989742664743215
1761432073218566100,6.236566162109375,-1.6876280927717684,0.45197102980613707,0.8509707132074982
1761432073238508000,6.256508056640625,-0.8356406768023967,0.39445758299231526,1.3713767621405422
1761432073258450000,6.276449951171875,0.5726981809020042,0.0033951953962445256,0.9854473535187542
1761432073278393000,6.29639306640625,1.3777537498265504,-0.3440218194797635,0.4272494801994413
1761432073298335000,6.3163349609375,1.254839317819476,-0.35695611985474823,0.06270119731579907
1761432073318277000,6.336277099609375,0.021509236496686936,0.2532487848818302,0.3799555949091911
1761432073338219300,6.35621923828125,-0.5817839891552925,0.9177668790861964,1.0385833159007132
1761432073358162200,6.376162109375,0.059144847407937046,1.1937506428673863,1.0850490067385137
1761432073378104000,6.39610400390625,1.3433014451265335,1.180304301317036,0.6318149712592362
1761432073398046000,6.4160458984375,2.0140473278045654,0.8923679416745901,0.0024186602479778227
1761432073417988000,6.435988037109375,1.4558230779349803,0.40342940947711464,-0.0918671682438813
1761432073437931000,6.455930908203125,0.6431856755793094,0.00020750527083873748,0.41065921460017557
1761432073457873200,6.475873046875,0.4789478840589523,-0.21281623672842978,0.7593591088935733
1761432073477815000,6.49581494140625,0.9538210660248995,-0.10145546439290046,0.6446486608039588
1761432073497757200,6.515757080078125,1.3032926753431557,0.09378039972037076,0.3323731384685263
1761432073517700000,6.5357001953125,0.9317086029380559,0.2879647089540958,0.28515368838766586
1761432073537642000,6.55564208984375,0.24369652816057205,0.15945026498287915,0.8085584624789655
1761432073557584100,6.575584228515625,-0.1360047997266054,-0.12365034506618976,0.8489042821969837
1761432073577526000,6.595526123046875,0.15178455266058444,-0.4059285328164696,0.2855255356410518
1761432073597469200,6.61546923828125,0.8081874372094869,-0.45575756260752676,-0.39065866563338786
1761432073617411000,6.6354111328125,0.3960124112188816,-0.3961225935950875,-0.747771766148135
1761432073637353200,6.655353271484375,-0.7378478265702724,0.021443770045042037,-0.667523851891607
1761432073657295000,6.675295166015625,-1.3759814794570207,0.019163550153374672,0.24585730465734376
1761432073677238000,6.695238037109375,-0.9509224219739436,-0.6737617233678698,1.3246223174892364
1761432073697180200,6.71518017578125,0.5165501772224903,-0.6389335710927844,0.5736920873101801
1761432073717122000,6.7351220703125,0.9817869313150643,-0.6464049298867582,-0.0035201963156694543
1761432073737064200,6.755064208984375,-0.22032325135767458,0.4230322278305888,-1.0186534575499593
1761432073757007000,6.775007080078125,-2.132905177897215,0.929791371139884,-0.7318460288722067
1761432073776949200,6.79494921875,-3.175847711920738,0.9735326054498553,-0.47332047263123095
1761432073796891000,6.814890869140625,-2.5906606363236904,0.7204875264465809,-0.1571742463422939
1761432073816833000,6.8348330078125,-0.7585732192128897,0.4357131379663944,-0.5263875344954431
1761432073836775200,6.854775146484375,0.20532500419020652,-0.02182137118577957,-0.47262733926791695
1761432073856718000,6.874718017578125,0.3632815234839916,0.00014992986470460892,-0.4046813822995871
1761432073876660200,6.89466015625,0.04233458238244057,0.379385101544857,-0.0745649732492864
1761432073896602000,6.91460205078125,-0.3805664202839136,0.871877234570682,0.2656313331255689
1761432073916544300,6.934544189453125,-0.21822657133936882,0.9762775202438234,0.27462096926169466
1761432073936487200,6.954487060546875,0.338202027285099,0.900719590434432,-0.13382867039707488
1761432073956429000,6.974428955078125,0.859196908956766,0.664479223498702,-0.4151324144914746
1761432073976371000,6.994370849609375,1.1405384003788233,0.3955331032693386,-0.4376790677445009
1761432073996313000,7.01431298828125,1.4236714513927697,0.04605623325407505,-0.38482057059705255
1761432074016255200,7.034255126953125,1.8664871148407458,-0.13042933768182993,-0.6384302977457642
1761432074036198100,7.0541982421875,1.8132991300106047,-0.4191165156915784,-0.8248945341214537
1761432074056140300,7.074140380859375,1.1339601910322903,-0.5579211752697825,-0.6889379574507475
1761432074076082000,7.09408203125,0.12943302012085914,-0.42395606467723845,-0.4844591582937166
1761432074096024000,7.114024169921875,-0.1707528725028038,-0.10986118142753838,-0.17387553456798194
1761432074115967000,7.133967041015625,0.40192309656739234,0.05942424887120723,0.11232019195221364
1761432074135909000,7.1539091796875,0.5031827461272478,-0.5295671874448656,0.22247604547739028
1761432074155851000,7.17385107421875,0.3042950815081596,-0.7609928475752472,-0.30711773771345613
1761432074175793200,7.193793212890625,-0.2116086145043373,-0.40266543936729426,-0.9987710916027426
1761432074195735000,7.213735107421875,-1.0943997495383024,-0.2216270274326205,-0.6116047615971416
1761432074215678000,7.233677978515625,-1.5884809053212403,-0.45555297994613647,0.3430715695502236
1761432074235620000,7.2536201171875,-1.681966998270154,-1.1295704316407442,1.2805300777845083
1761432074255562000,7.27356201171875,-1.7592244254738092,-1.2203756149426102,0.7385020526953041
1761432074275504000,7.293504150390625,-1.1997627427637576,-1.3465785671010613,0.49247883515283464
1761432074295447000,7.313447021484375,-0.45644554487168787,-0.4309817255303263,-0.3401176516480744
1761432074315389200,7.33338916015625,-0.13744506166279316,0.19367460614591836,-0.5669060073666274
1761432074335331300,7.353331298828125,-0.41579380100965496,0.30540099692344663,0.15267080657635815
1761432074355273000,7.37327294921875,-0.10159341155886649,0.2528808283522725,0.5656575782081112
1761432074375215000,7.393215087890625,0.6214233411043882,0.08571838155686855,0.3343202174156904
1761432074395158000,7.413157958984375,0.8770318408548832,-0.11561521490961313,0.05262945589823648
1761432074415100200,7.43310009765625,0.6493897909164429,-0.05893675761520862,-0.12143608481651172
1761432074435042000,7.4530419921875,0.13692366813719273,0.1237222412586212,0.1900315369358286
1761432074454984200,7.472984130859375,-0.15358195747137068,0.4471498932600021,0.45022287096455693
1761432074474927000,7.492927001953125,0.07426350608468055,0.9500058916509151,0.47618773516323415
1761432074494869000,7.512868896484375,0.5428256052076816,1.2911693990901112,0.3510192040864378
1761432074514811100,7.53281103515625,0.6471276912033558,1.1414932168856262,0.2566061324857175
1761432074534753000,7.5527529296875,0.837919143128395,0.67934712228477,0.02375814793463796
1761432074554695200,7.572695068359375,1.0826385845959186,0.39703357096016406,-0.3836978136448189
1761432074574638000,7.59263818359375,1.1995055531322956,0.02083440597504377,-0.2767364087793976
1761432074594580200,7.612580322265625,0.9865759191572666,-0.19266192197203635,0.032816100066620855
1761432074614521900,7.63252197265625,0.8424696460396051,-0.03367430606484413,0.06905535668206866
1761432074634464000,7.652464111328125,0.9317723158240317,0.23289777850955723,0.22373360779043286
1761432074654406700,7.67240673828125,1.0927075586676598,0.32965310238748785,0.28328637841213494
1761432074674349600,7.692349609375,0.9677630821377038,-0.12420067242532967,0.4015754887061193
1761432074694291500,7.71229150390625,1.0446563522040844,-0.7594327586516737,0.16119984859656541
1761432074714233300,7.7322333984375,0.9856640650093554,-0.8169193174585699,-0.5704908801160753
1761432074734175500,7.752175537109375,-0.04163841681182384,-0.5925853691548109,-0.7084160534460097
1761432074754118400,7.772118408203125,-1.5453104566365479,-0.07687719571441412,-0.3442072225166484
1761432074774060500,7.792060546875,-1.9333207631856202,0.13303221365660428,0.0040848795666694054
1761432074794002400,7.81200244140625,-1.3729998332977293,-0.05227028546333313,0.558539307168126
1761432074813944600,7.831944580078125,-0.3536690610080957,-1.366551387810707,1.0764384147815407
1761432074833886500,7.851886474609375,-0.18013912500739096,-1.3102055234715342,0.30217474661963056
1761432074853829400,7.871829345703125,-0.7561883699029683,-0.6946402607455849,-0.12924116907687858
1761432074873771500,7.891771484375,-1.812593612089753,0.33870734645873307,-0.5667429257594049
1761432074893713400,7.91171337890625,-2.6102561481535433,0.8611723006829619,-0.7640704283896833
1761432074913655600,7.931655517578125,-2.5737317133545874,0.9516852230399846,-1.1407727936565875
1761432074933597400,7.951597412109375,-1.1363093845069407,0.6433084251761436,-1.3340699447922408
1761432074953540600,7.97154052734375,0.24727672473490236,0.36354251250773667,-1.2940166052147746
1761432074973481500,7.9914814453125,0.48862405942082404,0.21931758144646882,-1.1718928851939736
1761432074993423400,8.01142333984375,0.6737485716253518,0.048697687673568725,-0.7021268171086907
1761432075013365500,8.031365478515625,0.8874550351917743,0.16626812830418347,-0.4693211007967591
1761432075033307600,8.0513076171875,1.0254805270910263,0.3352840940117836,-0.3055111975659616
1761432075053249300,8.071249267578125,1.0411597422599792,0.6121586691528559,-0.11171660003587602
1761432075073192400,8.0911923828125,0.9551122748792171,0.9267173705220222,-0.08009893423989414
1761432075093134300,8.11113427734375,0.8931932865828275,1.0282461924120783,0.27581322951987386
1761432075113076500,8.131076416015626,1.2226432676136494,0.8028425690501928,0.3062987677470781
1761432075133018400,8.151018310546876,1.574178823724389,0.25906214733570815,-0.1473291624206118
1761432075152961500,8.17096142578125,1.681422223868966,-0.28289748869240283,-0.7865205989982932
1761432075172903400,8.1909033203125,1.2595312750279903,-0.4637339483141899,-0.9649767393548041
1761432075192845600,8.210845458984375,0.22320143714249133,-0.5105377850651741,-0.5601506878875195
1761432075212787500,8.230787353515625,-0.34179508334100245,-0.2291299504086375,0.061168827516213053
1761432075232729300,8.250729248046875,-0.26207915706932544,0.05491261666566133,0.45438422842770815
1761432075252672500,8.270672607421876,0.23147475996911523,0.07689619267582892,0.20815646475646643
1761432075272614400,8.290614501953126,0.3818441851347685,-0.29050942500084637,0.027583679305855185
1761432075292556500,8.310556640625,-0.19565993474423884,-0.7565119027689099,-0.03515877246893942
1761432075312498700,8.330498779296875,-0.5732441243469715,-0.904244549690187,-0.30136764975413677
1761432075332440300,8.3504404296875,-0.5647714795559644,-0.7674266800150275,-0.745569652993977
1761432075352384500,8.370384521484375,-1.246545536726713,-0.6496428888946771,-0.3182012956552207
1761432075372326400,8.390326416015625,-2.1327333284616468,-1.680715536904335,1.5412290325418114
1761432075392268500,8.4102685546875,-2.1251228534579276,-0.8678440335318446,0.23372102279225362
1761432075412210400,8.43021044921875,-1.1317512828111649,-0.9727379479408264,0.13421012572902255
1761432075432153300,8.4501533203125,-0.6179372525542974,-0.2900888615012169,0.049337154620885844
1761432075452095500,8.470095458984375,-1.4268945050925015,0.8859887620314956,-0.30808384279925377
1761432075472037600,8.49003759765625,-2.0320032557338474,1.6432850931763647,-0.4367077384943142
1761432075491979300,8.509979248046875,-1.5898124461859464,0.8470686642676591,0.7819479573205113
1761432075511921400,8.52992138671875,0.32796938708424567,0.3024477000758052,0.62681453262344
1761432075531864300,8.5498642578125,1.2903683118402958,0.04537468073070049,0.20731374858831986
1761432075551806500,8.569806396484376,0.8650771991670131,0.003966273282468319,0.18606413114219902
1761432075571748600,8.58974853515625,-0.296304667276144,0.2699687412753701,0.5777880879195406
1761432075591690500,8.6096904296875,-0.6325462081432343,0.7354606391727924,0.8174806776683777
1761432075611632400,8.62963232421875,0.2974813098400831,1.1322697537273168,0.9901237478319554
1761432075631575300,8.6495751953125,1.473716462022066,1.0254001553311944,1.0065599919132888
1761432075651516700,8.6695166015625,1.8958640159726141,0.8293754789277911,0.5154894526557997
1761432075671458800,8.689458740234375,1.4138263492047787,0.7440840906113386,0.004631075600441545
1761432075691400400,8.709400390625,0.5858335568070412,0.6591048369839787,0.14621427824757993
1761432075711342600,8.729342529296876,0.32938743718862534,0.6340171574786305,0.8551968795351683
1761432075731285500,8.749285400390624,0.4377706550180912,0.4027323671236634,1.2748764359369873
1761432075751227600,8.7692275390625,0.9496715451300144,0.26360709728896614,0.7459506151355803
1761432075771169500,8.78916943359375,1.3137614623874425,0.06314736104756594,0.05245669314721599
1761432075791111700,8.809111572265625,1.2033984689176083,-0.028159342035651205,0.3149830642610788
1761432075811053600,8.829053466796875,0.7847977937936782,-0.038538697230815884,0.5503128191579133
1761432075830996500,8.84899658203125,0.7358136903941631,-0.048478491964936254,0.29434779758732765
1761432075850938600,8.868938720703126,0.2003144825518131,-0.2593456404522061,-0.08120536111183464
1761432075870880500,8.888880615234376,-0.4942056589454412,-0.813702108977735,-0.07665449287444352
1761432075890822700,8.90882275390625,-1.0213771834254264,-0.9714335873439908,-0.08716810544114559
1761432075910764800,8.928764892578124,-0.9395879580110311,-0.46981648309826846,-0.4946714498262852
1761432075930707700,8.948707763671875,-0.5669885710835456,0.2194634196579456,-0.5824950965667143
1761432075950649900,8.96864990234375,-0.704047263777256,0.6699579471707343,-0.11046641731169074
1761432075970591500,8.988591552734375,-1.673434732246399,-0.04276946666836738,1.2235395588662474
1761432075990533600,9.00853369140625,-1.950130443689227,-0.9641519059032201,1.4088221111766994
1761432076010475500,9.0284755859375,-0.1727916848540306,-1.0679632857725023,0.6232217688284813
1761432076030418700,9.048418701171874,1.374542971086502,-1.0418673060074448,0.2608414685005322
1761432076050360600,9.068360595703124,1.6318553521454333,0.3974903748169541,-1.1711829833589493
1761432076070302700,9.088302734375,-0.05161971260011196,1.387657596464455,-1.0102654953677206
1761432076090244600,9.10824462890625,-1.14130880022943,1.4628940392345189,-0.26255040957657616
1761432076110186500,9.1281865234375,-1.5162503663688898,0.9681564653694629,0.047557632526662195
1761432076130129700,9.148129638671875,-0.5445885232269764,0.16418898394256828,-0.021460903842933476
1761432076150071600,9.168071533203126,0.6886725845128298,-0.28540450307726856,-0.2814854847363196
1761432076170013700,9.188013671875,1.1189315487265585,-0.295873874643445,-0.4389131030514836
1761432076189955600,9.20795556640625,0.45969782466590403,0.25089754558056593,-0.17792455423045903
1761432076209898800,9.227898681640625,-0.5134042804121971,0.8415136604890227,0.1450396358444821
1761432076229840600,9.247840576171875,-0.6731348236411809,1.3128341184094547,0.296761105806753
1761432076249782500,9.267782470703125,-0.05399287147223949,1.1556573513165116,0.43942295226976275
1761432076269724700,9.287724609375,1.0149041880190373,0.48859454106539485,0.38537016730383034
1761432076289666600,9.30766650390625,1.4922054739147423,-0.3649509180009365,-0.05457620605183765
1761432076309608700,9.327608642578125,1.1057681157708168,-0.4671358657121658,-0.8288835306923836
1761432076329551600,9.347551513671876,0.18981997654438018,-0.28306641551852224,-0.8068931596152484
1761432076349493800,9.36749365234375,-0.48754737010002136,-0.19606383937001226,-0.5431617783594876
1761432076369435600,9.387435546875,-0.19031682015061377,-0.3089116353929043,-0.2065845757972449
1761432076389377500,9.40737744140625,0.881176101052761,-0.4716159337356686,-0.25248832190334797
1761432076409319700,9.427319580078125,1.443490250584483,-0.20466332541108131,-0.7057133703585714
1761432076429262600,9.4472626953125,1.0470762728273868,-0.04692161791175604,-0.39938130313009024
1761432076449204700,9.467204833984376,0.7313812609046697,-0.19403584067374466,-0.03556441239407286
1761432076469146600,9.487146728515626,0.4190636164605617,-0.5566621151193976,0.05699254647856578
1761432076489088500,9.507088623046876,-0.5009288297206164,-0.6184522163391113,-0.3196116739097982
1761432076509030700,9.52703076171875,-1.7737872038334608,-0.5554843035116791,-0.2929132164732553
1761432076528973600,9.5469736328125,-2.2527795115560294,-0.7331956168502569,0.07394491425533778
1761432076548915700,9.566915771484375,-1.599222079566121,-0.335917423479259,-0.4242682724315673
1761432076568857600,9.586857666015625,-1.281824355378747,-0.02127893487215042,-0.8712047421365976
1761432076588799700,9.6067998046875,-1.6854665308237076,0.16589432655572892,-0.5066543312279507
1761432076608741600,9.62674169921875,-1.6793343116790056,0.5802113330110907,-0.3947901028823107
1761432076628684500,9.6466845703125,-1.21950847671926,1.1172028252378106,-0.8478919633492827
1761432076648626700,9.666626708984374,-0.9333300666600465,1.566563672545552,-0.6802648216515779
1761432076668568800,9.68656884765625,-0.8393260873168706,1.4947703559666872,0.38677484646998345
1761432076688510700,9.7065107421875,-0.369672101303935,1.4245146242186426,0.5341110779521987
1761432076708452600,9.72645263671875,-0.021631986093521117,1.2518772531434892,0.43847299460116773
1761432076728395800,9.746395751953125,0.4019984998911619,1.345885324139893,0.3102833256049081
1761432076748337700,9.766337646484375,0.7575269250303507,1.3303303198724985,0.3563005054902285
1761432076768279800,9.78627978515625,0.5219049822539091,0.7982353675156831,0.4289722854040563
1761432076788222000,9.806221923828126,0.8161492098689079,0.7979433988317847,0.0333888584532775
1761432076808163600,9.82616357421875,1.1016560042768717,1.1188061687812207,-0.5246066058954224
1761432076828106800,9.846106689453125,0.8465946170151233,1.492308642028272,-0.8235156469836831
1761432076848048600,9.866048583984375,0.08073533244729042,1.2157120070457457,-0.15551168342493474
1761432076867990800,9.88599072265625,-0.16599895597398281,1.1677402955591678,-0.1582661514985375
