time,seconds_elapsed,z,y,x
1761432067056396500,0.074396484375,-2.1987252235412598,-1.058437466621399,0.4053373634815216
1761432067076339500,0.09433935546875,-2.248483419418335,-1.0811711549758911,0.3142831027507782
1761432067096281300,0.11428125,-2.358433485031128,-1.180428385734558,0.19895902276039124
1761432067116223200,0.13422314453125,-2.411468267440796,-1.2795144319534302,0.21279941499233246
1761432067136166400,0.15416650390625,-2.495919942855835,-1.33999502658844,0.3308779001235962
1761432067156108300,0.1741083984375,-2.5058393478393555,-1.1976240873336792,0.4080398976802826
1761432067176050400,0.194050537109375,-2.427428722381592,-1.0279033184051514,0.3466034233570099
1761432067195993300,0.213993408203125,-2.387796640396118,-0.932835578918457,0.276089608669281
1761432067215935500,0.233935546875,-2.3701417446136475,-0.9761016368865967,0.30515944957733154
1761432067235877400,0.25387744140625,-2.3600223064422607,-1.1736793518066406,0.388143926858902
1761432067255820300,0.2738203125,-2.2672510147094727,-1.2811939716339111,0.43715494871139526
1761432067275762400,0.293762451171875,-2.098515033721924,-1.1087560653686523,0.46617963910102844
1761432067295704300,0.313704345703125,-2.0336215496063232,-0.9058675169944763,0.40552154183387756
1761432067315647500,0.3336474609375,-2.0696961879730225,-0.8200832009315491,0.27016517519950867
1761432067335589400,0.35358935546875,-2.0793569087982178,-0.8861090540885925,0.040351491421461105
1761432067355531500,0.373531494140625,-1.8634092807769775,-0.7159035205841064,-0.107545867562294
1761432067375474400,0.393474365234375,-1.52043879032135,-0.454316645860672,-0.15021701157093048
1761432067395416600,0.41341650390625,-1.3389397859573364,-0.3017084300518036,-0.1275923103094101
1761432067415358200,0.433358154296875,-1.306462287902832,-0.25603392720222473,-0.07896200567483902
1761432067435300400,0.45330029296875,-1.3939096927642822,-0.29665854573249817,-0.023586032912135124
1761432067455243300,0.4732431640625,-1.368528962135315,-0.4250703454017639,-0.021160203963518143
1761432067475185400,0.493185302734375,-1.1989412307739258,-0.5021554827690125,0.02838064916431904
1761432067495127600,0.51312744140625,-0.9509011507034302,-0.46874308586120605,0.12292184680700302
1761432067515070500,0.533070556640625,-0.744568407535553,-0.2500770390033722,0.18044590950012207
1761432067535012600,0.5530126953125,-0.6405043601989746,-0.14811477065086365,0.11036628484725952
1761432067554954200,0.572954345703125,-0.6220888495445251,-0.326415479183197,-0.06304389238357544
1761432067574897400,0.5928974609375,-0.6676060557365417,-0.5434207916259766,-0.29605633020401
1761432067594839300,0.61283935546875,-0.7566093802452087,-0.5158828496932983,-0.4586748480796814
1761432067614781400,0.632781494140625,-0.8046203255653381,-0.3756307065486908,-0.4530184268951416
1761432067634724600,0.652724609375,-0.7964531183242798,-0.31630226969718933,-0.3641480803489685
1761432067654666800,0.672666748046875,-0.7202945947647095,-0.320696622133255,-0.25631386041641235
1761432067674608600,0.692608642578125,-0.6230142712593079,-0.32429051399230957,-0.15456733107566833
1761432067694551800,0.7125517578125,-0.5170668363571167,-0.19222144782543182,-0.07301299273967743
1761432067714493400,0.732493408203125,-0.39682090282440186,0.06807638704776764,-0.1397668570280075
1761432067734435600,0.752435546875,-0.36696857213974,0.2482447326183319,-0.268587201833725
1761432067754378500,0.77237841796875,-0.42637282609939575,0.29408353567123413,-0.26107510924339294
1761432067774320600,0.792320556640625,-0.46740323305130005,0.19097644090652466,-0.07714482396841049
1761432067794262500,0.812262451171875,-0.42926502227783203,0.13253484666347504,0.11332748085260391
1761432067814205700,0.832205810546875,-0.3522200286388397,0.12500742077827454,0.1103532612323761
1761432067834147600,0.852147705078125,-0.3529144525527954,0.08608677983283997,-0.016934745013713837
1761432067854089500,0.87208935546875,-0.3771950602531433,-0.0006113997660577297,-0.1844722330570221
1761432067874031600,0.892031494140625,-0.4248304069042206,-0.07228655368089676,-0.17836213111877441
1761432067893974500,0.911974609375,-0.398244708776474,-0.09929482638835907,0.02387617900967598
1761432067913916700,0.931916748046875,-0.29576557874679565,-0.28472843766212463,0.21012955904006958
1761432067933858600,0.951858642578125,-0.26002711057662964,-0.3576309382915497,0.267145037651062
1761432067953801700,0.9718017578125,-0.3422897458076477,-0.45841458439826965,0.13130192458629608
1761432067973743600,0.99174365234375,-0.47747135162353516,-0.6418457627296448,-0.07802224159240723
1761432067993685500,1.011685546875,-0.5176368951797485,-0.6971068382263184,-0.16167573630809784
1761432068013628400,1.03162841796875,-0.4641798138618469,-0.4518750309944153,-0.04524979740381241
1761432068033570600,1.051570556640625,-0.309529185295105,-0.04151752591133118,0.17677204310894012
1761432068053512400,1.071512451171875,-0.14684459567070007,-0.02477521076798439,0.26223230361938477
1761432068073455600,1.09145556640625,-0.12271115183830261,-0.3352413475513458,0.19295167922973633
1761432068093397500,1.1113974609375,-0.14441777765750885,-0.46824198961257935,0.10557150840759277
1761432068113339600,1.131339599609375,-0.2897210419178009,-0.3277103006839752,0.08707920461893082
1761432068133282600,1.151282470703125,-0.3739556670188904,-0.193132683634758,0.16666673123836517
1761432068153224700,1.171224609375,-0.2507542371749878,-0.023066537454724312,0.38601991534233093
1761432068173166600,1.19116650390625,-0.037417661398649216,0.04920105263590813,0.631731390953064
1761432068193108500,1.2111083984375,0.002117735333740711,0.04673841968178749,0.7371965050697327
1761432068213051600,1.2310517578125,-0.04829270765185356,0.07707581669092178,0.6917104721069336
1761432068232993500,1.25099365234375,-0.06663189083337784,0.09885075688362122,0.5649610161781311
1761432068252935700,1.270935791015625,-0.03247111290693283,0.1528821885585785,0.4619082808494568
1761432068272878600,1.290878662109375,0.041969165205955505,0.28795382380485535,0.3960265815258026
1761432068292820700,1.31082080078125,0.0026821396313607693,0.37163639068603516,0.22879154980182648
1761432068312762600,1.3307626953125,-0.15687483549118042,0.19128626585006714,-0.050772666931152344
1761432068332705500,1.35070556640625,-0.23079130053520203,-0.03321276605129242,-0.19390204548835754
1761432068352647400,1.3706474609375,-0.1018928661942482,-0.07387593388557434,-0.1646575927734375
1761432068372589600,1.390589599609375,0.11216781288385391,0.1463262438774109,-0.042005278170108795
1761432068392532500,1.410532470703125,0.2215263992547989,0.3044547736644745,0.04502272233366966
1761432068412474600,1.430474609375,0.25697433948516846,0.23912681639194489,-0.07622081786394119
1761432068432416800,1.450416748046875,0.25529539585113525,-0.03594266250729561,-0.2714710235595703
1761432068452358400,1.4703583984375,0.18745851516723633,-0.2696661949157715,-0.30240029096603394
1761432068472301600,1.490301513671875,0.1796378344297409,-0.31818264722824097,-0.20100854337215424
1761432068492243500,1.510243408203125,0.20228005945682526,-0.1380685567855835,-0.08328713476657867
1761432068512185600,1.530185546875,0.2019917070865631,-0.0040422226302325726,-0.08712214976549149
1761432068532128500,1.55012841796875,0.15547406673431396,-0.016250863671302795,-0.09377133101224899
1761432068552070700,1.570070556640625,0.02668851800262928,-0.10026627779006958,-0.05104481428861618
1761432068572012500,1.590012451171875,-0.09422509372234344,-0.11350375413894653,-0.03313339129090309
1761432068591955700,1.609955810546875,-0.12070716172456741,-0.09540823847055435,-0.0181923508644104
1761432068611897600,1.629897705078125,-0.06081875413656235,-0.15063688158988953,-0.023212837055325508
1761432068631839500,1.649839599609375,-0.045182254165410995,-0.048881709575653076,0.0259329192340374
1761432068651782700,1.66978271484375,-0.18077899515628815,0.25986891984939575,0.03780416026711464
1761432068671724800,1.689724853515625,-0.33952268958091736,0.24165676534175873,-0.10696243494749069
1761432068691666700,1.709666748046875,-0.3979934751987457,0.019841821864247322,-0.2637214660644531
1761432068711608600,1.729608642578125,-0.3565388321876526,-0.09019589424133301,-0.25545355677604675
1761432068731551700,1.7495517578125,-0.18189986050128937,-0.11279328167438507,-0.057332076132297516
1761432068751493600,1.76949365234375,-0.0478687547147274,-0.06165892630815506,0.12628617882728577
1761432068771435800,1.789435791015625,-0.027866477146744728,-0.018117237836122513,0.12204025685787201
1761432068791378700,1.809378662109375,-0.09728848934173584,-0.03088267333805561,0.0013307018671184778
1761432068811320800,1.82932080078125,-0.178860142827034,0.0062068249098956585,-0.1518530398607254
1761432068831262700,1.8492626953125,-0.1590166836977005,0.17258386313915253,-0.2254766970872879
1761432068851206000,1.869205810546875,-0.07509541511535645,0.3007194399833679,-0.22979021072387695
1761432068871147500,1.8891474609375,0.056873805820941925,0.27732783555984497,-0.18544164299964905
1761432068891089700,1.909089599609375,0.17421025037765503,0.21444256603717804,-0.1950613111257553
1761432068911031800,1.92903173828125,0.20265378057956696,0.2863507568836212,-0.32400041818618774
1761432068930974700,1.948974609375,0.27294299006462097,0.3641657829284668,-0.36765751242637634
1761432068950916900,1.968916748046875,0.36726418137550354,0.26682114601135254,-0.3065061867237091
1761432068970858800,1.988858642578125,0.304261714220047,0.1373051404953003,-0.2263820320367813
1761432068990802000,2.008802001953125,0.12970773875713348,0.0806882306933403,-0.18286705017089844
1761432069010743600,2.02874365234375,0.011726760305464268,0.043448153883218765,-0.1314167082309723
1761432069030685700,2.048685791015625,0.027021871879696846,0.04128385707736015,0.024432143196463585
1761432069050628600,2.068628662109375,0.1588355004787445,0.047093458473682404,0.1689869910478592
1761432069070570800,2.08857080078125,0.16279391944408417,0.04109325632452965,0.15065136551856995
1761432069090512600,2.1085126953125,0.07535617053508759,0.006918983068317175,0.07697568088769913
1761432069110454800,2.128454833984375,-0.07570997625589371,-0.037508297711610794,0.03521910309791565
1761432069130397700,2.148397705078125,-0.20787359774112701,-0.2139083743095398,0.01913575455546379
1761432069150339600,2.168339599609375,-0.26235976815223694,-0.3899761140346527,0.09508824348449707
1761432069170281700,2.18828173828125,-0.24204570055007935,-0.45988163352012634,0.271379679441452
1761432069190224600,2.208224609375,-0.14833083748817444,-0.5827513337135315,0.45355692505836487
1761432069210166800,2.228166748046875,0.01417115144431591,-0.6301948428153992,0.5357151627540588
1761432069230108700,2.248108642578125,0.1571996659040451,-0.35384926199913025,0.573002278804779
1761432069250051800,2.2680517578125,0.26606205105781555,-0.03425147756934166,0.4493309557437897
1761432069269993700,2.28799365234375,0.16844387352466583,0.19912129640579224,0.10668804496526718
1761432069289936000,2.307935791015625,-0.13374599814414978,0.12611885368824005,-0.3228648900985718
1761432069309877800,2.327877685546875,-0.3281382620334625,0.09015452861785889,-0.4456816017627716
1761432069329820700,2.347820556640625,-0.20908062160015106,0.13720563054084778,-0.20065034925937653
1761432069349762600,2.367762451171875,-0.05543850362300873,0.12610433995723724,0.12534189224243164
1761432069369704700,2.38770458984375,0.02567167952656746,0.1716615855693817,0.29562270641326904
1761432069389647600,2.407647705078125,0.061253614723682404,0.2645323872566223,0.32395172119140625
1761432069409589800,2.42758984375,0.018697386607527733,0.2951619625091553,0.1798447072505951
1761432069429532000,2.447531982421875,-0.13766689598560333,-0.009387534111738205,-0.07325485348701477
1761432069449473500,2.4674736328125,-0.36563238501548767,-0.47177404165267944,-0.17472493648529053
1761432069469416700,2.487416748046875,-0.37275323271751404,-0.5558618307113647,-0.06389086693525314
1761432069489358600,2.507358642578125,-0.17724961042404175,-0.3413488268852234,0.09345725923776627
1761432069509300700,2.52730078125,-0.017178606241941452,-0.03212699294090271,0.025135233998298645
1761432069529243600,2.54724365234375,0.035962581634521484,0.21369794011116028,-0.26748108863830566
1761432069549185800,2.567185791015625,-0.14010487496852875,0.3035905063152313,-0.5447380542755127
1761432069569127700,2.587127685546875,-0.37370529770851135,0.20251134037971497,-0.5470715761184692
1761432069589070800,2.60707080078125,-0.47685009241104126,-0.06931375712156296,-0.22644507884979248
1761432069609012500,2.627012451171875,-0.44487372040748596,-0.17571711540222168,0.2293878197669983
1761432069628954600,2.64695458984375,-0.22676721215248108,-0.0782395526766777,0.5413070917129517
1761432069648897000,2.66689697265625,0.030135130509734154,-0.039337724447250366,0.5740876197814941
1761432069668840000,2.68683984375,0.115971140563488,-0.06647782027721405,0.36734649538993835
1761432069688781800,2.70678173828125,0.03780287504196167,-0.02945447713136673,0.10386304557323456
1761432069708723700,2.7267236328125,0.004923522938042879,0.03539295867085457,0.06687795370817184
1761432069728667000,2.7466669921875,0.20805077254772186,0.08562522381544113,0.3005326986312866
1761432069748608800,2.76660888671875,0.3185056447982788,0.08926866203546524,0.4879017174243927
1761432069768551000,2.786551025390625,0.14921942353248596,-0.0018295235931873322,0.25398677587509155
1761432069788492800,2.806492919921875,-0.20235466957092285,-0.17379602789878845,-0.2784035801887512
1761432069808436000,2.82643603515625,-0.39914196729660034,-0.08219736069440842,-0.5828924775123596
1761432069828377600,2.846377685546875,-0.3253418505191803,0.167786106467247,-0.4031870663166046
1761432069848319700,2.86631982421875,0.11518223583698273,0.32545340061187744,0.060372740030288696
1761432069868262700,2.8862626953125,0.401900053024292,0.21338151395320892,0.35211578011512756
1761432069888204800,2.906204833984375,0.39672717452049255,-0.025025449693202972,0.3151557147502899
1761432069908147000,2.92614697265625,0.30822649598121643,-0.10559549927711487,0.12389884144067764
1761432069928088800,2.9460888671875,0.24836622178554535,-0.077409528195858,-0.03381311893463135
1761432069948032000,2.966031982421875,0.28783994913101196,0.011286051943898201,0.0009293666807934642
1761432069967974000,2.985973876953125,0.3979460299015045,0.13910885155200958,0.1572907567024231
1761432069987915800,3.005915771484375,0.4989646077156067,0.164153054356575,0.19955860078334808
1761432070007858700,3.025858642578125,0.45488202571868896,0.1762375831604004,0.04689721763134003
1761432070027800800,3.04580078125,0.3585791289806366,0.2991754412651062,-0.09425506740808487
1761432070047742700,3.06574267578125,0.33571720123291016,0.35599473118782043,-0.08696873486042023
1761432070067684900,3.085684814453125,0.34441182017326355,0.2534025311470032,-0.0737713947892189
1761432070087627800,3.105627685546875,0.2782078981399536,0.12665534019470215,-0.1451999396085739
1761432070107570000,3.12556982421875,0.16847875714302063,0.029076332226395607,-0.17890508472919464
1761432070127511800,3.14551171875,0.16787037253379822,0.04658468812704086,-0.04457049444317818
1761432070147454700,3.165454833984375,0.2916458249092102,0.07511641830205917,0.13839153945446014
1761432070167396900,3.18539697265625,0.4152989089488983,0.12172640115022659,0.2511909008026123
1761432070187338800,3.2053388671875,0.37477290630340576,0.11759620904922485,0.18976305425167084
1761432070207281000,3.225281005859375,0.17877241969108582,0.08783397078514099,0.0479574091732502
1761432070227223800,3.245223876953125,-0.06525855511426926,0.06788270175457001,0.012675272300839424
1761432070247166000,3.265166015625,-0.23645836114883423,-0.027989067137241364,0.03997291624546051
1761432070267107800,3.28510791015625,-0.3238217234611511,-0.16049833595752716,0.059924669563770294
1761432070287050800,3.30505078125,-0.33980295062065125,-0.10830419510602951,0.055633410811424255
1761432070306993000,3.324992919921875,-0.2293906956911087,-0.00006881728768348694,0.1042083278298378
1761432070326934800,3.344934814453125,0.00144581391941756,-0.024993808940052986,0.00491959135979414
1761432070346877000,3.364876953125,0.12821733951568604,0.022491950541734695,-0.3203580975532532
1761432070366819800,3.38481982421875,0.11530360579490662,0.03397942706942558,-0.7593823075294495
1761432070386762000,3.404761962890625,0.00205918587744236,0.06875670701265335,-0.9195367097854614
1761432070406703900,3.424703857421875,-0.12372890114784241,-0.009396768175065517,-0.7018349766731262
1761432070426647000,3.44464697265625,-0.1629955917596817,-0.16162222623825073,-0.2469874769449234
1761432070446588700,3.464588623046875,-0.07565507292747498,-0.2680370807647705,0.1860034167766571
1761432070466530800,3.48453076171875,0.05487920716404915,-0.22991125285625458,0.3524663746356964
1761432070486473000,3.504472900390625,0.12721115350723267,-0.06422781944274902,0.1894509494304657
1761432070506415900,3.524415771484375,0.049267154186964035,0.006011007819324732,-0.09230648726224899
1761432070526358000,3.54435791015625,-0.18120670318603516,-0.09316634386777878,-0.2863451838493347
1761432070546300000,3.5642998046875,-0.37362486124038696,-0.24504002928733826,-0.23332563042640686
1761432070566242800,3.584242919921875,-0.357889324426651,-0.27288177609443665,-0.020960383117198944
1761432070586184700,3.604184814453125,-0.15099239349365234,-0.18258096277713776,0.14784793555736542
1761432070606126800,3.624126953125,0.014387077651917934,0.11713875085115433,0.14234772324562073
1761432070626068700,3.64406884765625,0.06253882497549057,0.29222607612609863,-0.0028789197094738483
1761432070646012200,3.66401220703125,-0.02881595306098461,0.31127315759658813,-0.0798613429069519
1761432070665954000,3.6839541015625,-0.19577151536941528,0.15005218982696533,-0.11792893707752228
1761432070685896200,3.703896240234375,-0.3306172490119934,-0.10996107012033463,-0.14061708748340607
1761432070705838000,3.723838134765625,-0.38190245628356934,-0.13247375190258026,-0.18684935569763184
1761432070725781200,3.74378125,-0.37737464904785156,0.04057754576206207,-0.18772393465042114
1761432070745723100,3.76372314453125,-0.2899015247821808,0.0539807491004467,-0.0933009684085846
1761432070765665000,3.7836650390625,-0.1210470125079155,0.005920001305639744,0.1082315444946289
1761432070785608000,3.80360791015625,0.002539727371186018,-0.0851646140217781,0.24208411574363708
1761432070805550000,3.823550048828125,-0.00890064425766468,-0.1474824845790863,0.16461634635925293
1761432070825492200,3.8434921875,-0.0976320132613182,-0.20558752119541168,-0.0093591483309865
1761432070845434000,3.86343408203125,-0.10724619030952454,-0.32273241877555847,-0.032445263117551804
1761432070865377300,3.883377197265625,-0.04054286703467369,-0.4073672294616699,0.1464872509241104
1761432070885319000,3.90331884765625,0.00904383510351181,-0.4313032329082489,0.2960108816623688
1761432070905261000,3.923260986328125,0.08349179476499557,-0.3897170424461365,0.15620027482509613
1761432070925204000,3.943203857421875,0.09202122688293457,-0.24371391534805298,-0.12662360072135925
1761432070945146000,3.96314599609375,0.06954555213451385,-0.11906991899013519,-0.31149283051490784
1761432070965088300,3.983088134765625,0.10795573890209198,-0.10002274811267853,-0.2156820297241211
1761432070985030100,4.003030029296875,0.1574961394071579,-0.14595669507980347,0.05424958094954491
1761432071004973000,4.02297314453125,0.11786758899688721,-0.15405315160751343,0.22805576026439667
1761432071024915000,4.0429150390625,0.027777766808867455,-0.12862730026245117,0.2656157612800598
1761432071044857000,4.062857177734375,-0.0028151015285402536,-0.0814870148897171,0.1992194652557373
1761432071064799000,4.082799072265625,-0.005305055994540453,-0.00046319467946887016,0.06621883064508438
1761432071084742100,4.1027421875,0.016114884987473488,0.04449193552136421,-0.09490624815225601
1761432071104684000,4.12268408203125,0.0461139902472496,0.04912417009472847,-0.12703350186347961
1761432071124626200,4.142626220703125,0.14371514320373535,0.1582096666097641,0.03286514803767204
1761432071144569000,4.162569091796875,0.24314406514167786,0.31433355808258057,0.1796383112668991
1761432071164511200,4.18251123046875,0.2432684302330017,0.3731209933757782,0.16978086531162262
1761432071184453000,4.202453125,0.22416181862354279,0.31067702174186707,0.028247909620404243
1761432071204395000,4.22239501953125,0.15057215094566345,0.18987587094306946,-0.2144075185060501
1761432071224338200,4.242338134765625,-0.01660693623125553,0.062015704810619354,-0.3983151614665985
1761432071244280000,4.262280029296875,-0.030723748728632927,0.15636251866817474,-0.3262641727924347
1761432071264222200,4.28222216796875,0.1145545169711113,0.2977863848209381,-0.07949542999267578
1761432071284164000,4.3021640625,0.2934098243713379,0.4190463423728943,0.10792367905378342
1761432071304107300,4.322107177734375,0.38410240411758423,0.42191341519355774,0.03167251497507095
1761432071324049000,4.342048828125,0.2925136387348175,0.2769077718257904,-0.23486337065696716
1761432071343992000,4.361991943359375,0.033424947410821915,0.038452208042144775,-0.45125967264175415
1761432071363935000,4.38193505859375,-0.13855428993701935,-0.026864241808652878,-0.43696659803390503
1761432071383877000,4.401877197265625,-0.10071874409914017,-0.021821781992912292,-0.20087701082229614
1761432071403819000,4.421819091796875,-0.02050769329071045,-0.12313128262758255,0.05571618676185608
1761432071423762200,4.44176220703125,-0.019411122426390648,-0.28122222423553467,0.22297459840774536
1761432071443704000,4.4617041015625,-0.042040806263685226,-0.36801010370254517,0.36186909675598145
1761432071463646200,4.481646240234375,-0.012771328911185265,-0.28102993965148926,0.5276479125022888
1761432071483588000,4.501588134765625,-0.05072065442800522,-0.10823453217744827,0.5967740416526794
1761432071503531000,4.521531005859375,0.062374066561460495,-0.12953145802021027,0.5568429827690125
1761432071523473200,4.54147314453125,0.055316012352705,-0.15914487838745117,0.32950684428215027
1761432071543415000,4.5614150390625,-0.15377318859100342,-0.14239776134490967,-0.16529352962970734
1761432071563357200,4.581357177734375,-0.583271324634552,-0.21025273203849792,-0.6500491499900818
1761432071583300000,4.601300048828125,-0.6973149180412292,-0.21416746079921722,-0.6885888576507568
1761432071603242200,4.6212421875,-0.506240963935852,-0.2182091325521469,-0.29673588275909424
1761432071623184100,4.64118408203125,-0.17124195396900177,0.045197658240795135,0.18326705694198608
1761432071643127000,4.661126953125,-0.05403526872396469,0.15216103196144104,0.2345254272222519
1761432071663069000,4.68106884765625,-0.19917304813861847,0.11926485598087311,-0.0497220903635025
1761432071683011000,4.701010986328125,-0.4652720093727112,-0.21744650602340698,-0.4192543625831604
1761432071702953200,4.720953125,-0.5095646381378174,-0.3421444892883301,-0.46609723567962646
1761432071722896100,4.740896240234375,-0.3016209304332733,-0.1586909294128418,-0.2426835149526596
1761432071742838000,4.760838134765625,-0.01106499508023262,0.13466611504554749,-0.0010487781837582588
1761432071762780000,4.78077978515625,0.03845568373799324,0.20873793959617615,-0.01752202771604061
1761432071782722000,4.80072216796875,-0.16544590890407562,0.12191903591156006,-0.25784364342689514
1761432071802665000,4.8206650390625,-0.33588841557502747,0.002829205710440874,-0.28302496671676636
1761432071822607000,4.840607177734375,-0.2973964512348175,-0.01059979572892189,-0.05868273228406906
1761432071842549000,4.860549072265625,-0.11278145015239716,0.09445294737815857,0.17177027463912964
1761432071862492200,4.8804921875,0.036482810974121094,0.14495497941970825,0.24442942440509796
1761432071882433800,4.900433837890625,0.05435739457607269,0.05250384658575058,0.18849311769008636
1761432071902376000,4.9203759765625,0.02540052868425846,-0.0818452313542366,0.13810355961322784
1761432071922318000,4.940318115234375,0.04698631912469864,-0.10166838020086288,0.10512266308069229
1761432071942261000,4.960260986328125,0.07893461734056473,-0.0498606376349926,0.06881431490182877
1761432071962203100,4.980203125,0.20579712092876434,-0.1299278736114502,0.10313790291547775
1761432071982145000,5.00014501953125,0.32247194647789,0.02489112690091133,0.271320104598999
1761432072002088200,5.020088134765625,0.20479147136211395,0.11293797194957733,0.27179524302482605
1761432072022030000,5.040030029296875,-0.06210058182477951,-0.034038037061691284,-0.09991572797298431
1761432072041972000,5.059971923828125,-0.39787009358406067,-0.07646172493696213,-0.5253769159317017
1761432072061913900,5.079913818359375,-0.43775618076324463,0.08606124669313431,-0.4168165624141693
1761432072081857000,5.09985693359375,-0.12406662851572037,0.23757468163967133,0.08476926386356354
1761432072101799000,5.119798828125,0.1927179992198944,0.13039684295654297,0.44577866792678833
1761432072121741000,5.139740966796875,0.13030026853084564,-0.1281331479549408,0.48110872507095337
1761432072141683200,5.15968310546875,-0.0778900533914566,-0.25082507729530334,0.2916226387023926
1761432072161626000,5.179626220703125,-0.19543996453285217,-0.2179490029811859,0.03375905007123947
1761432072181568000,5.199568115234375,-0.1285528987646103,-0.10977119207382202,-0.03448466584086418
1761432072201510000,5.219510009765625,0.003101808950304985,0.07953320443630219,0.03013347089290619
1761432072221453000,5.239453125,0.10800967365503311,0.14285822212696075,0.07750234752893448
1761432072241395000,5.25939501953125,0.18973541259765625,0.051130395382642746,0.05500095710158348
1761432072261337000,5.279337158203125,0.25739237666130066,0.010946676135063171,-0.05285362899303436
1761432072281279000,5.299279052734375,0.21707917749881744,0.20453782379627228,-0.12400147318840027
1761432072301222100,5.31922216796875,0.06151008605957031,0.37662118673324585,-0.047932811081409454
1761432072321163800,5.339163818359375,-0.10992226004600525,0.21936163306236267,0.09648119658231735
1761432072341106000,5.35910595703125,-0.2176850438117981,-0.08900268375873566,0.22048886120319366
1761432072361048000,5.379048095703125,-0.14807817339897156,-0.31278136372566223,0.3336809575557709
1761432072380991000,5.398990966796875,-0.08405444771051407,-0.2645866572856903,0.3915514349937439
1761432072400933000,5.41893310546875,-0.015150072053074837,-0.027302049100399017,0.3118157684803009
1761432072420875000,5.438875,0.07288892567157745,0.07017332315444946,0.20478211343288422
1761432072440818200,5.458818115234375,0.0713597908616066,-0.008969662711024284,0.24285320937633514
1761432072460760000,5.478760009765625,-0.041619036346673965,-0.20616722106933594,0.2794685363769531
1761432072480702000,5.498701904296875,-0.23521462082862854,-0.32657673954963684,0.18078690767288208
1761432072500644000,5.51864404296875,-0.3709188997745514,-0.2610264718532562,0.05697961151599884
1761432072520587000,5.5385869140625,-0.3086799681186676,-0.17721059918403625,0.12255024909973145
1761432072540529000,5.55852880859375,-0.05108514055609703,-0.16509585082530975,0.23831473290920258
1761432072560471000,5.578470947265625,0.07980293035507202,-0.16125628352165222,0.09316688776016235
1761432072580413200,5.5984130859375,-0.006024677772074938,-0.13107338547706604,-0.13219714164733887
1761432072600356000,5.618356201171875,-0.2618629038333893,-0.2134162336587906,-0.2815649211406708
1761432072620298000,5.638298095703125,-0.277982234954834,-0.20169462263584137,-0.282234787940979
1761432072640240000,5.658240234375,-0.10630765557289124,0.003141105640679598,-0.14449389278888702
1761432072660182000,5.67818212890625,-0.008634328842163086,0.24458329379558563,-0.038478974252939224
1761432072680125000,5.698125,-0.07097692042589188,0.25859037041664124,-0.05151311308145523
1761432072700067000,5.718067138671875,-0.17058101296424866,0.10761386901140213,-0.1047971099615097
1761432072720009200,5.73800927734375,-0.17504282295703888,-0.03897233307361603,-0.14623922109603882
1761432072739952000,5.7579521484375,-0.07705382257699966,-0.07829484343528748,-0.2033303678035736
1761432072759894000,5.77789404296875,-0.007802966516464949,-0.014552459120750427,-0.27945825457572937
1761432072779836200,5.797836181640625,-0.03573121875524521,-0.010820531286299229,-0.38827991485595703
1761432072799778000,5.817778076171875,-0.06792452931404114,-0.11355245113372803,-0.3581700623035431
1761432072819721000,5.837720947265625,-0.0010776154231280088,-0.0949217826128006,-0.16542387008666992
1761432072839663000,5.8576630859375,0.10938975214958191,0.06910732388496399,-0.02167796529829502
1761432072859605000,5.87760498046875,0.1450713574886322,0.24073319137096405,-0.019215991720557213
1761432072879547100,5.897547119140625,0.015840623527765274,0.3082842230796814,-0.12796685099601746
1761432072899490000,5.917489990234375,-0.1838209182024002,0.18248334527015686,-0.24016238749027252
1761432072919432200,5.93743212890625,-0.2890748977661133,-0.10812191665172577,-0.14440371096134186
1761432072939374300,5.957374267578125,-0.18999792635440826,-0.133057102560997,0.04403636232018471
1761432072959316000,5.97731591796875,0.0006026953924447298,0.09816975891590118,0.13070189952850342
1761432072979259100,5.997259033203125,0.13975340127944946,0.2446550726890564,0.0964278057217598
1761432072999201000,6.017200927734375,0.13577938079833984,0.20223726332187653,-0.008552812039852142
1761432073019143200,6.03714306640625,0.10083318501710892,0.1385267972946167,-0.09181473404169083
1761432073039086000,6.057086181640625,0.06402665376663208,0.071564219892025,-0.10106323659420013
1761432073059028200,6.0770283203125,-0.01673169806599617,0.06148109585046768,-0.05735446885228157
1761432073078970000,6.09697021484375,-0.061951834708452225,-0.0646677017211914,-0.021709967404603958
1761432073098912000,6.116912109375,0.033229902386665344,-0.11321543157100677,0.10999322682619095
1761432073118855000,6.13685498046875,0.17385463416576385,0.09556625783443451,0.2696975767612457
1761432073138797000,6.156797119140625,0.3216751217842102,0.23994246125221252,0.23395593464374542
1761432073158739200,6.1767392578125,0.2598155438899994,0.27519455552101135,-0.06257050484418869
1761432073178681000,6.19668115234375,0.10397613048553467,0.029692063108086586,-0.3755623698234558
1761432073198624300,6.216624267578125,-0.010900176130235195,-0.051593512296676636,-0.34231775999069214
1761432073218566100,6.236566162109375,0.14317500591278076,0.030916936695575714,0.03153662383556366
1761432073238508000,6.256508056640625,0.39632168412208557,0.033568285405635834,0.36938732862472534
1761432073258450000,6.276449951171875,0.4852200150489807,-0.035010918974876404,0.36693713068962097
1761432073278393000,6.29639306640625,0.3985256552696228,-0.11101558804512024,0.06989076733589172
1761432073298335000,6.3163349609375,0.1416568011045456,-0.26493141055107117,-0.3029806911945343
1761432073318277000,6.336277099609375,-0.006864199414849281,-0.22922588884830475,-0.3374488353729248
1761432073338219300,6.35621923828125,0.09788830578327179,-0.09458070248365402,-0.05251751095056534
1761432073358162200,6.376162109375,0.2920992970466614,0.05884528160095215,0.194858580827713
1761432073378104000,6.39610400390625,0.3970400094985962,0.10266910493373871,0.17858538031578064
1761432073398046000,6.4160458984375,0.3602915108203888,0.0683441087603569,-0.05661190301179886
1761432073417988000,6.435988037109375,0.24174700677394867,0.09264492243528366,-0.19439347088336945
1761432073437931000,6.455930908203125,0.18430276215076447,0.16930706799030304,-0.10082586854696274
1761432073457873200,6.475873046875,0.17252273857593536,0.18861785531044006,0.10155132412910461
1761432073477815000,6.49581494140625,0.1312408745288849,0.10480423271656036,0.20483312010765076
1761432073497757200,6.515757080078125,0.041599031537771225,-0.013404523953795433,0.1401052176952362
1761432073517700000,6.5357001953125,-0.02347603440284729,-0.025168169289827347,0.05814320221543312
1761432073537642000,6.55564208984375,0.06810155510902405,0.05508299544453621,0.07895047962665558
1761432073557584100,6.575584228515625,0.19232384860515594,0.2171991467475891,0.1983824521303177
1761432073577526000,6.595526123046875,0.2008112668991089,0.29623210430145264,0.2984880805015564
1761432073597469200,6.61546923828125,0.08115474879741669,0.25105804204940796,0.16899587213993073
1761432073617411000,6.6354111328125,-0.1160137951374054,0.040981460362672806,0.029883308336138725
1761432073637353200,6.655353271484375,-0.25908270478248596,-0.10077451169490814,0.1491657793521881
1761432073657295000,6.675295166015625,-0.24295532703399658,-0.145173579454422,0.4083957374095917
1761432073677238000,6.695238037109375,-0.044559579342603683,-0.06293189525604248,0.5301677584648132
1761432073697180200,6.71518017578125,0.00800272449851036,-0.022244635969400406,0.19632507860660553
1761432073717122000,6.7351220703125,-0.08914125710725784,-0.19373394548892975,-0.4140787124633789
1761432073737064200,6.755064208984375,-0.2488754540681839,-0.3665243089199066,-0.8797522187232971
1761432073757007000,6.775007080078125,-0.1790379285812378,-0.25128278136253357,-0.89579176902771
1761432073776949200,6.79494921875,-0.030750703066587448,0.04061300307512283,-0.5054212808609009
1761432073796891000,6.814890869140625,0.21455958485603333,0.3390032649040222,-0.024350179359316826
1761432073816833000,6.8348330078125,0.19923989474773407,0.20576733350753784,0.17612770199775696
1761432073836775200,6.854775146484375,0.0503661073744297,0.0006356039084494114,0.10673940181732178
1761432073856718000,6.874718017578125,-0.10718903690576553,-0.021899672225117683,-0.060607414692640305
1761432073876660200,6.89466015625,-0.17210279405117035,-0.005981174763292074,-0.1336755007505417
1761432073896602000,6.91460205078125,-0.09657632559537888,0.008766122162342072,-0.0013623940758407116
1761432073916544300,6.934544189453125,0.04456339403986931,0.04626360163092613,0.15386204421520233
1761432073936487200,6.954487060546875,0.11480599641799927,0.08690541237592697,0.2050856649875641
1761432073956429000,6.974428955078125,0.12641453742980957,0.13975860178470612,0.16577768325805664
1761432073976371000,6.994370849609375,0.15984587371349335,0.2465464472770691,0.13046221435070038
1761432073996313000,7.01431298828125,0.19550363719463348,0.30396971106529236,0.1176941990852356
1761432074016255200,7.034255126953125,0.17126445472240448,0.2944444715976715,0.006846267729997635
1761432074036198100,7.0541982421875,0.05431056395173073,0.21062111854553223,-0.1654088795185089
1761432074056140300,7.074140380859375,-0.06631150096654892,0.05177175626158714,-0.23599772155284882
1761432074076082000,7.09408203125,-0.21284723281860352,-0.1685284674167633,-0.08761145174503326
1761432074096024000,7.114024169921875,-0.2350771725177765,-0.1337427943944931,0.13109132647514343
1761432074115967000,7.133967041015625,-0.024218767881393433,-0.008701018057763577,0.18332089483737946
1761432074135909000,7.1539091796875,0.20734359323978424,0.2014756202697754,0.10322891920804977
1761432074155851000,7.17385107421875,0.23905712366104126,0.18770581483840942,0.005568358115851879
1761432074175793200,7.193793212890625,0.04535358399152756,-0.17574335634708405,-0.0395805761218071
1761432074195735000,7.213735107421875,-0.1222214475274086,-0.4231266379356384,0.045740555971860886
1761432074215678000,7.233677978515625,-0.052442871034145355,-0.2835884690284729,0.11091642081737518
1761432074235620000,7.2536201171875,0.2622421681880951,0.1095174178481102,0.12217231094837189
1761432074255562000,7.27356201171875,0.377000629901886,0.4339374303817749,0.14452917873859406
1761432074275504000,7.293504150390625,0.29549339413642883,0.32746943831443787,0.14408992230892181
1761432074295447000,7.313447021484375,0.15042540431022644,0.08456812798976898,0.08946821838617325
1761432074315389200,7.33338916015625,0.04313606023788452,-0.04233591631054878,-0.021847886964678764
1761432074335331300,7.353331298828125,0.12940613925457,0.07199377566576004,0.0003277113428339362
1761432074355273000,7.37327294921875,0.3085537254810333,0.20339326560497284,0.07075857371091843
1761432074375215000,7.393215087890625,0.32878804206848145,0.10594409704208374,0.03744686022400856
1761432074395158000,7.413157958984375,0.20320378243923187,-0.09815573692321777,-0.07519599050283432
1761432074415100200,7.43310009765625,0.029790986329317093,-0.2334917187690735,-0.21305984258651733
1761432074435042000,7.4530419921875,-0.05592706426978111,-0.23263788223266602,-0.29610586166381836
1761432074454984200,7.472984130859375,-0.03177839145064354,-0.11232991516590118,-0.28374233841896057
1761432074474927000,7.492927001953125,0.06291836500167847,0.06350643187761307,-0.23607367277145386
1761432074494869000,7.512868896484375,0.19114117324352264,0.09988772124052048,-0.19588035345077515
1761432074514811100,7.53281103515625,0.3102687895298004,0.05701928958296776,-0.10120359063148499
1761432074534753000,7.5527529296875,0.36025965213775635,0.040317922830581665,-0.011399049311876297
1761432074554695200,7.572695068359375,0.3161582350730896,0.049016073346138,0.004874995443969965
1761432074574638000,7.59263818359375,0.2178323119878769,0.03657814487814903,-0.02405782788991928
1761432074594580200,7.612580322265625,0.14359693229198456,0.020807143300771713,-0.002403473947197199
1761432074614521900,7.63252197265625,0.06817510724067688,0.06632903218269348,0.04244028031826019
1761432074634464000,7.652464111328125,0.09458450973033905,0.13108903169631958,0.07768214493989944
1761432074654406700,7.67240673828125,0.1576434224843979,0.08306402713060379,0.12461037933826447
1761432074674349600,7.692349609375,0.22290290892124176,0.0741925910115242,0.16897086799144745
1761432074694291500,7.71229150390625,0.20263436436653137,0.15012700855731964,0.05500802397727966
1761432074714233300,7.7322333984375,0.04167088866233826,0.1929589956998825,-0.2214222252368927
1761432074734175500,7.752175537109375,-0.1932765692472458,0.021157756447792053,-0.34069323539733887
1761432074754118400,7.772118408203125,-0.3236216604709625,-0.18763740360736847,-0.04925678297877312
1761432074774060500,7.792060546875,-0.31598398089408875,-0.27384820580482483,0.37903621792793274
1761432074794002400,7.81200244140625,-0.1423538327217102,-0.14205391705036163,0.5945034027099609
1761432074813944600,7.831944580078125,0.01702265441417694,-0.03434833884239197,0.3175036609172821
1761432074833886500,7.851886474609375,-0.04680542275309563,0.1381588876247406,-0.238738015294075
1761432074853829400,7.871829345703125,-0.10998853296041489,0.1857377290725708,-0.6397401690483093
1761432074873771500,7.891771484375,-0.18431919813156128,-0.06465399265289307,-0.6411923766136169
1761432074893713400,7.91171337890625,-0.14180950820446014,-0.2489529550075531,-0.26888468861579895
1761432074913655600,7.931655517578125,-0.004559385124593973,-0.02161874994635582,0.17642442882061005
1761432074933597400,7.951597412109375,0.06405262649059296,0.19775108993053436,0.3367057740688324
1761432074953540600,7.97154052734375,0.0035740055609494448,0.1873454749584198,0.2028169184923172
1761432074973481500,7.9914814453125,-0.09399981051683426,0.17765706777572632,0.053181543946266174
1761432074993423400,8.01142333984375,-0.15331138670444489,0.2033405303955078,-0.009051905013620853
1761432075013365500,8.031365478515625,-0.2420566827058792,0.1504507064819336,-0.04240525886416435
1761432075033307600,8.0513076171875,-0.30282124876976013,0.04022137448191643,-0.046281564980745316
1761432075053249300,8.071249267578125,-0.32889771461486816,-0.08003192394971848,-0.05257551372051239
1761432075073192400,8.0911923828125,-0.2652156352996826,-0.1192288026213646,-0.015645841136574745
1761432075093134300,8.11113427734375,-0.08514581620693207,-0.08653806895017624,0.03288598358631134
1761432075113076500,8.131076416015626,0.1253444105386734,0.14191491901874542,-0.07231604307889938
1761432075133018400,8.151018310546876,0.16678065061569214,0.2964726686477661,-0.23291067779064178
1761432075152961500,8.17096142578125,0.0029528834857046604,0.1755041927099228,-0.34767627716064453
1761432075172903400,8.1909033203125,-0.22425661981105804,-0.1646190583705902,-0.26789796352386475
1761432075192845600,8.210845458984375,-0.3465562164783478,-0.3049170970916748,-0.04402552545070648
1761432075212787500,8.230787353515625,-0.24474844336509705,-0.18194124102592468,0.12269570678472519
1761432075232729300,8.250729248046875,-0.029841210693120956,-0.011823251843452454,0.17877046763896942
1761432075252672500,8.270672607421876,0.1334095001220703,0.15115098655223846,0.07077232748270035
1761432075272614400,8.290614501953126,0.20181305706501007,0.0884585976600647,0.05836120992898941
1761432075292556500,8.310556640625,0.2043299376964569,-0.03069877065718174,0.22046811878681183
1761432075312498700,8.330498779296875,0.15566590428352356,-0.07836678624153137,0.32391566038131714
1761432075332440300,8.3504404296875,0.04756412282586098,-0.11626869440078735,0.2649437487125397
1761432075352384500,8.370384521484375,-0.028276916593313217,-0.15347738564014435,0.16448137164115906
1761432075372326400,8.390326416015625,0.13233087956905365,-0.1997862607240677,0.20483553409576416
1761432075392268500,8.4102685546875,0.15743842720985413,-0.08170592784881592,0.23911720514297485
1761432075412210400,8.43021044921875,0.03922976180911064,0.019555989652872086,-0.00913173332810402
1761432075432153300,8.4501533203125,-0.06773876398801804,-0.06637517362833023,-0.40024757385253906
1761432075452095500,8.470095458984375,-0.06414792686700821,-0.193996399641037,-0.45052003860473633
1761432075472037600,8.49003759765625,0.0440218523144722,-0.20049649477005005,-0.09364929795265198
1761432075491979300,8.509979248046875,0.31886351108551025,0.06578231602907181,0.2932370901107788
1761432075511921400,8.52992138671875,0.44396013021469116,0.16105471551418304,0.22745847702026367
1761432075531864300,8.5498642578125,0.35138267278671265,0.044994574040174484,-0.0723419114947319
1761432075551806500,8.569806396484376,0.18429449200630188,-0.23629207909107208,-0.25136929750442505
1761432075571748600,8.58974853515625,0.1097763180732727,-0.34131544828414917,-0.10144610702991486
1761432075591690500,8.6096904296875,0.14361150562763214,-0.16709649562835693,0.18207961320877075
1761432075611632400,8.62963232421875,0.2443956434726715,0.007289947010576725,0.33781781792640686
1761432075631575300,8.6495751953125,0.3186179995536804,-0.023955266922712326,0.2568237781524658
1761432075651516700,8.6695166015625,0.2728082239627838,-0.10285431146621704,0.004657439887523651
1761432075671458800,8.689458740234375,0.1370796263217926,-0.028724990785121918,-0.24362599849700928
1761432075691400400,8.709400390625,0.002011456061154604,0.06477341800928116,-0.26890289783477783
1761432075711342600,8.729342529296876,0.042375992983579636,0.12692715227603912,-0.11361987143754959
1761432075731285500,8.749285400390624,0.20470260083675385,0.13590788841247559,0.08481791615486145
1761432075751227600,8.7692275390625,0.26624661684036255,0.09544084221124649,0.12793861329555511
1761432075771169500,8.78916943359375,0.14379693567752838,0.05787967890501022,-0.04143742471933365
1761432075791111700,8.809111572265625,0.08274926990270615,0.016622796654701233,-0.23138262331485748
1761432075811053600,8.829053466796875,0.1612483114004135,0.12836100161075592,-0.266674667596817
1761432075830996500,8.84899658203125,0.22854755818843842,0.15434157848358154,-0.24826766550540924
1761432075850938600,8.868938720703126,0.21457651257514954,0.04569808393716812,-0.10794626921415329
1761432075870880500,8.888880615234376,0.08614403009414673,-0.102127805352211,0.045837320387363434
1761432075890822700,8.90882275390625,-0.07664602249860764,-0.1563948541879654,0.20324136316776276
1761432075910764800,8.928764892578124,-0.22379106283187866,-0.0781877338886261,0.2979423701763153
1761432075930707700,8.948707763671875,-0.3113372325897217,-0.08725399523973465,0.2553552985191345
1761432075950649900,8.96864990234375,-0.27552419900894165,-0.15230022370815277,0.23619352281093597
1761432075970591500,8.988591552734375,-0.061962805688381195,-0.1700836420059204,0.3653760850429535
1761432075990533600,9.00853369140625,0.14369714260101318,0.11769143491983414,0.544315755367279
1761432076010475500,9.0284755859375,0.08170129358768463,0.3755923807621002,0.37179264426231384
1761432076030418700,9.048418701171874,-0.01620650291442871,0.2881569564342499,-0.1321183294057846
1761432076050360600,9.068360595703124,-0.2673591375350952,-0.09058908373117447,-0.6169474124908447
1761432076070302700,9.088302734375,-0.31012728810310364,-0.20650789141654968,-0.6290097236633301
1761432076090244600,9.10824462890625,-0.08151347935199738,-0.15615703165531158,-0.3382687568664551
1761432076110186500,9.1281865234375,0.1665676236152649,0.06969653069972992,0.02170996554195881
1761432076130129700,9.148129638671875,0.21734020113945007,0.17374539375305176,0.17650046944618225
1761432076150071600,9.168071533203126,0.08605558425188065,0.15465176105499268,0.013043077662587166
1761432076170013700,9.188013671875,-0.1312909573316574,0.07552008330821991,-0.3120664060115814
1761432076189955600,9.20795556640625,-0.29874536395072937,-0.09683669358491898,-0.42255082726478577
1761432076209898800,9.227898681640625,-0.31265926361083984,-0.1911040097475052,-0.21998824179172516
1761432076229840600,9.247840576171875,-0.22986923158168793,-0.15778778493404388,0.05598903447389603
1761432076249782500,9.267782470703125,-0.01746719516813755,-0.014998383820056915,0.1857106238603592
1761432076269724700,9.287724609375,0.22288502752780914,0.29520004987716675,-0.032551974058151245
1761432076289666600,9.30766650390625,0.32773223519325256,0.5302854180335999,-0.39116370677948
1761432076309608700,9.327608642578125,0.17127609252929688,0.5074576139450073,-0.5671127438545227
1761432076329551600,9.347551513671876,-0.0068148658610880375,0.2415313720703125,-0.35160064697265625
1761432076349493800,9.36749365234375,-0.10752779990434647,-0.008020593784749508,0.09839262813329697
1761432076369435600,9.387435546875,-0.06832776218652725,0.057647813111543655,0.4197764992713928
1761432076389377500,9.40737744140625,0.017515799030661583,0.28351664543151855,0.3419973850250244
1761432076409319700,9.427319580078125,-0.02515552192926407,0.2840771973133087,0.08538945764303207
1761432076429262600,9.4472626953125,-0.0537087507545948,0.1054689884185791,0.010877525433897972
1761432076449204700,9.467204833984376,-0.019074460491538048,0.007575059309601784,-0.04883011803030968
1761432076469146600,9.487146728515626,0.09237299114465714,0.043037205934524536,-0.15143658220767975
1761432076489088500,9.507088623046876,0.07358560711145401,-0.01533118262887001,-0.16690780222415924
1761432076509030700,9.52703076171875,-0.08268658071756363,-0.25326305627822876,0.03773955628275871
1761432076528973600,9.5469736328125,-0.15687207877635956,-0.3412138819694519,0.18394644558429718
1761432076548915700,9.566915771484375,-0.16619212925434113,-0.19563809037208557,0.0495016947388649
1761432076568857600,9.586857666015625,-0.20502622425556183,-0.018860289826989174,-0.17008492350578308
1761432076588799700,9.6067998046875,-0.22774705290794373,0.1011749804019928,-0.14693240821361542
1761432076608741600,9.62674169921875,-0.2662630081176758,0.03608546033501625,-0.00007211428601294756
1761432076628684500,9.6466845703125,-0.3405889570713043,-0.012868542224168777,0.06463617086410522
1761432076648626700,9.666626708984374,-0.37564224004745483,0.005782948806881905,0.11397403478622437
1761432076668568800,9.68656884765625,-0.20863156020641327,0.08113481104373932,0.24436435103416443
1761432076688510700,9.7065107421875,-0.019709745422005653,0.16628281772136688,0.3066679537296295
1761432076708452600,9.72645263671875,-0.028877967968583107,0.011218123137950897,0.36983275413513184
1761432076728395800,9.746395751953125,-0.09510557353496552,-0.20151743292808533,0.41477668285369873
1761432076748337700,9.766337646484375,-0.085433728992939,-0.3037707805633545,0.2930448055267334
1761432076768279800,9.78627978515625,-0.011780038475990295,-0.07325264811515808,0.16735444962978363
1761432076788222000,9.806221923828126,0.013567177578806877,0.16093753278255463,0.05500942841172218
1761432076808163600,9.82616357421875,-0.1640421450138092,-0.06692538410425186,-0.007990851067006588
1761432076828106800,9.846106689453125,-0.39931103587150574,-0.46717628836631775,-0.10562071204185486
1761432076848048600,9.866048583984375,-0.45187875628471375,-0.5144728422164917,-0.08124919980764389
1761432076867990800,9.88599072265625,-0.480794757604599,-0.48566189408302307,0.014470608904957771
