time,seconds_elapsed,z,y,x
1761507184479552000,0.093552001953125,1.8724521607249973,0.493333260025084,-1.887874770784378
1761507184499708000,0.1137080078125,0.5595592978656292,0.5813561191320419,-2.4865496889859435
1761507184519863800,0.13386376953125,0.4544213455677032,1.2065987262636422,-2.878547603866458
1761507184540021000,0.15402099609375,0.6437205131083726,1.9584134111270308,-4.131225359737873
1761507184560177000,0.174177001953125,1.0944576172053813,1.9091244795620441,-2.371125612734258
1761507184580333000,0.1943330078125,1.2070166594147682,0.7047519049152732,0.24989333697408436
1761507184600489700,0.21448974609375,0.6428489909708499,0.15649872170090676,0.5563219233796001
1761507184620646000,0.23464599609375,3.1213626730173822,-0.1949029788970947,-0.23270035624131558
1761507184640801800,0.2548017578125,2.4181296482324597,-0.9073734953656792,-2.0175535823598505
1761507184660959000,0.274958984375,0.7953320472896098,-0.8181506128191948,-2.563106274443865
1761507184681115000,0.295114990234375,1.1170423739790916,-1.9175795886963605,-0.41843583995103834
1761507184701270800,0.315270751953125,1.984111039224267,-3.62665378960073,-0.10092807951793074
1761507184721428000,0.335427978515625,-3.2115561541616913,-1.4677812267541885,-1.1466069066375493
1761507184741584000,0.355583984375,-9.424010865095257,1.1834053360722958,-1.2700406863436102
1761507184761740000,0.375739990234375,-15.515361992835997,0.44134909802675243,-2.9675013140827415
1761507184781896700,0.395896728515625,-16.937688459360597,-0.17506963972337544,-3.49483475112617
1761507184802052900,0.416052978515625,-17.59933450525999,0.15519669919162987,-1.4131656933389602
1761507184822209800,0.436209716796875,-12.35109482859373,1.2208026081830263,0.38580567264426496
1761507184842366000,0.456365966796875,-8.682781579393147,0.5022857972875238,2.326488306367397
1761507184862521900,0.47652197265625,-4.876436408552527,-0.5095329919368028,0.595072728991136
1761507184882679000,0.496678955078125,-4.733707853528857,0.24120763395428657,1.841402357944846
1761507184902835000,0.5168349609375,0.18072423141896723,0.909764774416387,1.3707042697064578
1761507184922991000,0.5369912109375,3.7716198944181203,2.3789444697916506,3.0086420105054974
1761507184943147500,0.5571474609375,5.339349103611707,3.8339924717009066,2.1612840079024433
1761507184963303400,0.577303466796875,5.4960868947654955,5.4818181309163565,-0.14705375214586966
1761507184983459300,0.597459228515625,6.605553865054249,5.311243537589907,-0.9390527551557868
1761507185003616300,0.6176162109375,8.287073119556903,3.4785856271147724,-0.8723273164257407
1761507185023772200,0.637772216796875,9.89070658582449,2.462937634991109,-0.27591712828576564
1761507185043928300,0.65792822265625,11.380053163176774,0.9557043955534696,-0.05207439756505191
1761507185064085200,0.678085205078125,10.545074165153503,0.35390199298113584,-0.9740053375281393
1761507185084241400,0.698241455078125,11.285629497116803,2.098860869476199,-0.8715868733219801
1761507185104397300,0.718397216796875,10.408006120109558,2.3276894988507033,-0.96893592530936
1761507185124554500,0.738554443359375,9.600502573511005,2.9134397612884637,-1.3598591966956852
1761507185144710400,0.75871044921875,8.521214468386768,2.0597969793275,-2.192648575720191
1761507185164866300,0.7788662109375,7.543867565345764,3.730905022192001,-3.8213419567033644
1761507185185023200,0.799023193359375,6.797673350712657,2.338303977975994,-4.946315415942669
1761507185205179100,0.81917919921875,8.165850293898583,-0.0673468585640192,-4.715860938932002
1761507185225335300,0.839335205078125,4.039422689831256,-2.0074423765815794,-2.8788594462946056
1761507185245492200,0.8594921875,0.16009820749759673,-4.7439165283322335,-0.2245905534133315
1761507185265648400,0.8796484375,-4.595594098824263,-7.1603159917712205,2.5649773290127516
1761507185285805300,0.899805419921875,-14.867666146355866,-3.0669007227286693,2.5444097572803495
1761507185305961500,0.91996142578125,-21.882163800394533,-3.400743385760486,5.075839621478319
1761507185326117400,0.940117431640625,-26.979723086249827,-0.30843554231375453,3.2136674472272393
1761507185346274300,0.9602744140625,-26.16839968910217,0.3615697511300444,2.055342922528088
1761507185366430200,0.98043017578125,-20.35075853499174,0.6213812555283308,1.4381896599583326
1761507185386586000,1.000586181640625,-12.227469617968797,-1.0962009537413715,2.500773444649577
1761507185406743300,1.020743408203125,-5.554700996297598,-2.540708272413909,3.2342405719175935
1761507185426899200,1.040899169921875,-0.5991746844172477,-2.483462244364619,2.2930115687012673
1761507185447055400,1.061055419921875,1.7361287965685128,-2.183953812611103,0.2663378374271095
1761507185467212300,1.08121240234375,3.157563282689452,-1.2632437196798623,-1.8958963108070193
1761507185487368400,1.101368408203125,4.732305000993609,0.6408987336859107,-3.5837387769818303
1761507185507524400,1.1215244140625,6.606995880556106,1.242451837672293,-4.510333397907019
1761507185527681300,1.141681396484375,8.212397525539993,0.12156097157150507,-4.055511362583935
1761507185547837200,1.161837158203125,8.881356524801253,-0.8305500756651163,-4.093353601983189
1761507185567993300,1.181993408203125,8.97151668819785,-2.661078572896123,-4.301028676430881
1761507185588150300,1.202150390625,8.889407144787906,-3.306731515371799,-5.158935837838054
1761507185608306400,1.222306396484375,8.408764147248863,-2.9982924659267067,-4.781125146003067
1761507185628463400,1.24246337890625,8.053813814258575,-2.875356406609714,-4.089405156618357
1761507185648619500,1.26261962890625,7.817281770899891,-2.6346795185312626,-3.277166105930507
1761507185668775400,1.282775390625,7.37069009604454,-1.2822301597006618,-3.068350044754147
1761507185688932400,1.302932373046875,7.206634090831876,-0.4097989079764113,-3.0209765914216637
1761507185709088300,1.323088134765625,6.533924799126386,-0.25468312853388486,-3.0741701292097567
1761507185729244200,1.343244140625,4.93445079062581,-1.3609446538448333,-2.1838950681611893
1761507185749401300,1.3634013671875,1.9301812961161136,-3.774587512052059,-0.6037374622881412
1761507185769557200,1.38355712890625,-2.6246213581144806,-6.5703253152847285,1.7029083717510103
1761507185789713400,1.40371337890625,-7.785568535774946,-6.719682348537445,3.380010394333303
1761507185809870300,1.423870361328125,-12.788034293484687,-7.868229283326864,4.817930443570018
1761507185830026500,1.444026611328125,-19.314891053920984,-5.967865617847442,7.005457438492774
1761507185850182400,1.464182373046875,-21.451684471428393,-2.555623225212097,5.461424746707081
1761507185870339300,1.48433935546875,-18.94527682028413,0.19702157848626375,2.4012289284445343
1761507185890495200,1.5044951171875,-11.894377481043339,0.7408607446506619,-0.8144114262908697
1761507185910651100,1.524651123046875,-7.051030272144079,1.0074220155701041,0.040469153836742044
1761507185930808300,1.544808349609375,-3.14727219029963,1.2289283392325043,2.3052838980361816
1761507185950965200,1.56496533203125,0.8311831128716468,2.241017469830811,3.947044265863299
1761507185971122200,1.5851220703125,4.157075840309262,0.7055877712175249,1.1323868773009627
1761507185991278000,1.605278076171875,5.586964266520738,4.058246632766723,-0.29658984089307483
1761507186011434200,1.625434326171875,5.817807742848992,4.8465445436358445,-1.6653071015007792
1761507186031591200,1.645591064453125,9.739649178394675,2.1475760928064584,-1.6866868663989008
1761507186051747300,1.665747314453125,9.992205304837226,0.8403240123130381,-1.4686181159697471
1761507186071903200,1.6859033203125,9.803059282031654,-0.33925811220929025,-1.2160573133520782
1761507186092060400,1.706060302734375,9.81289736995697,-1.3127560847371815,-1.3649892530605197
1761507186112216300,1.72621630859375,9.621704351493715,-2.132023572757095,-1.6441995776727794
1761507186132372200,1.746372314453125,8.921392767113447,-2.1900176426947118,-1.7534591399453578
1761507186152529200,1.766529052734375,8.251466384124756,-2.287072241780162,-2.2616057920902968
1761507186172685000,1.78668505859375,6.332163624897599,-2.0402891457810997,-1.8162134100221097
1761507186192841200,1.80684130859375,4.861394322243332,-1.1094027459461242,-1.8463837996192276
1761507186212998100,1.826998046875,3.813995393332839,-0.915258257266134,-2.5424548238202926
1761507186233154300,1.847154296875,2.0728280180752274,0.46962870544120666,-2.3314658025190234
1761507186253311200,1.867311279296875,-0.39462884790599345,-0.8602269826568663,-2.1868575712285936
1761507186273467400,1.88746728515625,-4.201766630429029,-0.9598295126594603,-0.029153467639535663
1761507186293623300,1.907623291015625,-7.536056014811992,-1.5819517958134413,2.6332360417246816
1761507186313780200,1.9277802734375,-11.918567334926127,-3.0573961045414206,3.659000646454096
1761507186333936000,1.94793603515625,-15.911211906969546,-2.6359412090301513,6.103910165062547
1761507186354092000,1.968092041015625,-17.890728019618987,-2.380551028205454,6.772622496086359
1761507186374249200,1.988249267578125,-18.093050919383764,-2.2549942649960517,6.627876171499491
1761507186394405000,2.008405029296875,-16.161586013197898,-0.9758224699527025,4.128203966090083
1761507186414561300,2.028561279296875,-11.589561006009578,0.13685907846838236,2.041042009975016
1761507186434718200,2.04871826171875,-5.967921147426963,0.889779386486113,0.4844692778289318
1761507186454874400,2.068874267578125,-0.7791559885144234,1.8785536924704909,-0.47370472270846364
1761507186475031000,2.089031005859375,3.3613328741312025,3.136626585383713,-1.7101000368207693
1761507186495187200,2.109187255859375,5.799243912154436,4.16392409876883,-2.7690757140174505
1761507186515343000,2.129343017578125,7.260227733853459,4.860805124178529,-3.512675528243184
1761507186535500300,2.149500244140625,8.62878461626768,5.130440395715833,-3.9716099673211573
1761507186555656200,2.16965625,9.720527129295467,4.569793594874441,-4.1237890722572805
1761507186575812000,2.18981201171875,10.246426734143496,3.27001740321964,-3.9483340134128926
1761507186595969300,2.20996923828125,10.34438675763607,2.2703441020801662,-3.854381764256954
1761507186616125200,2.230125244140625,10.052110615223645,1.9734674801349639,-4.018261536119878
1761507186636281300,2.25028125,9.855179345369338,1.8007801324382424,-3.919531697298586
1761507186656438000,2.27043798828125,9.613832595205306,1.7023714883953331,-3.6287057536944745
1761507186676594200,2.29059423828125,9.004993425863981,1.6861059977710247,-3.3740874340251086
1761507186696751000,2.310751220703125,8.04175805028379,0.719933399695158,-2.96689779523164
1761507186716907300,2.3309072265625,6.7890551599711175,-0.16794833647608756,-2.87572670122683
1761507186737063200,2.351063232421875,4.469046863272786,-1.7760137938417493,-2.3908830371275545
1761507186757220400,2.371220458984375,0.24725451290309428,-4.720710424789786,-0.638300241625309
1761507186777376300,2.391376220703125,-5.639104203602671,-6.762611389681696,0.6885778919667005
1761507186797532400,2.411532470703125,-12.313829220038652,-6.712886697047948,0.6794118580840528
1761507186817689000,2.431689208984375,-16.89562860226631,-6.696698947834968,3.044461804166436
1761507186837845200,2.45184521484375,-19.668719689404963,-4.746747952365875,4.610424588209391
1761507186858001200,2.472001220703125,-20.63418384695053,-4.265487407450378,5.580345140641928
1761507186878158300,2.492158447265625,-18.680453332942722,-2.900786031420529,4.099875112706423
1761507186898314200,2.512314208984375,-14.684798473167419,-2.223750985470414,3.9250253262788055
1761507186918471400,2.532471435546875,-10.018373180794715,-1.835826311378181,3.878822378030419
1761507186938627300,2.55262744140625,-4.687976614445447,-1.7643062587827443,2.826843720114231
1761507186958783200,2.572783203125,0.16210604018867014,-1.4739847575694323,0.7461651346690953
1761507186978940200,2.592940185546875,3.5170547662407157,-1.079454401601851,-1.432773187867552
1761507186999096000,2.613095947265625,5.081390241342783,-0.8735980670139193,-3.852493174031377
1761507187019252000,2.633251953125,6.715638041582703,-0.3110816729083657,-4.09783776165992
1761507187039409200,2.6534091796875,9.751057876637578,-0.5188087698042393,-4.153287846203148
1761507187059565000,2.67356494140625,10.423065742075442,-0.49530017618387934,-3.5296067892998453
1761507187079722200,2.69372216796875,10.772691665172577,-1.1035673908561467,-2.620133983567357
1761507187099878100,2.713878173828125,10.157575899779795,-1.6449572641722856,-1.9646452912539243
1761507187120034300,2.734034423828125,9.172426214033365,-1.4014358003176748,-1.4986089112162588
1761507187140191000,2.75419091796875,8.8269790379256,-0.6598772826611995,-1.3728741610914468
1761507187160347100,2.77434716796875,8.555476218950748,0.3126537445306778,-1.243923371529579
1761507187180503000,2.7945029296875,8.33855488499105,1.240507133345306,-1.3139058392941951
1761507187200660200,2.81466015625,7.9920216672122475,1.907267891909927,-1.4691374636687338
1761507187220816100,2.834816162109375,7.029099010843038,2.240864617356658,-1.6356218650721013
1761507187240973300,2.854973388671875,6.35493250606656,2.149116454116255,-1.9709628038376568
1761507187261129200,2.875129150390625,4.955145788130164,1.2899264132916926,-1.3677854596503078
1761507187281285400,2.895285400390625,2.1747265500605106,-0.24798224265575408,0.524524663233012
1761507187301442000,2.915442138671875,-3.0376018552690742,-2.362184327518195,3.4405332520961758
1761507187321598200,2.93559814453125,-8.80743671758771,-2.7342718194007873,4.182533522170782
1761507187341754000,2.955754150390625,-15.069689770913124,-3.070989161086082,4.998509713560343
1761507187361911000,2.9759111328125,-19.384988087975977,-1.813067659342289,4.100218811577558
1761507187382067200,2.996067138671875,-23.89439677225351,0.9694709089688957,2.530453128120303
1761507187402224000,3.01622412109375,-21.61661550590992,4.115140778638422,-0.14302351938225327
1761507187422380300,3.03638037109375,-15.16186185865402,4.070547895935178,0.031375527603179215
1761507187442536200,3.0565361328125,-9.12882847984731,3.1813296504631636,0.18488339692503214
1761507187462693000,3.076693115234375,-3.6341426840513944,1.7037803322799503,-1.5232846489198506
1761507187482849000,3.09684912109375,0.8502081313371658,0.3045777709070593,-3.2181323176816106
1761507187503005200,3.117005126953125,5.417831688696146,-1.796063186918944,-3.5223496577784417
1761507187523162000,3.137162109375,9.140859109380841,-1.9701814442016183,-3.377094506886601
1761507187543318300,3.157318359375,11.506374188756942,-1.9342501529902218,-2.8794156188726423
1761507187563475200,3.17747509765625,12.585998978489636,-2.5787337594255804,-1.800337795498222
1761507187583631400,3.19763134765625,12.37077217348814,-3.317914588165283,-0.4854264324232936
1761507187603787300,3.217787353515625,11.774688440823555,-2.7972727577149867,0.015486322945356368
1761507187623944200,3.237944091796875,10.207490562027692,-1.818127280819416,0.2477447806380689
1761507187644100000,3.25810009765625,8.399926176276802,-1.2513896157570183,0.38649098802730436
1761507187664257300,3.27825732421875,6.974883436530828,-0.7186759469799697,0.3666716043137014
1761507187684413200,3.2984130859375,5.989531506210565,-0.15594854047223924,0.3622742461375892
1761507187704569000,3.318569091796875,5.336705895626545,-0.12797288444042204,0.1865804101012647
1761507187724726300,3.338726318359375,3.9230888052582737,-1.0577731695391237,0.4818278234094381
1761507187744882200,3.358882080078125,1.2292132936537266,-2.2860578040406105,1.8230542158275842
1761507187765038300,3.379038330078125,-2.8114152648359534,-4.484655935814977,4.743658754178881
1761507187785195000,3.399195068359375,-9.272257292094826,-3.009627514411509,4.973731830656528
1761507187805351200,3.41935107421875,-15.54715881459117,0.4308367641016841,4.645264138661325
1761507187825508000,3.439508056640625,-18.966992977529763,3.445662431678176,4.41431077221781
1761507187845664300,3.459664306640625,-19.912233846735955,4.293445089434087,4.0469767584726215
1761507187865820200,3.479820068359375,-18.952161319100856,4.143303043283522,3.167822810897231
1761507187885977300,3.499977294921875,-15.136951873803138,2.1453151621371505,1.9798484133437275
1761507187906133200,3.52013330078125,-9.6860210485816,0.4346159903794527,0.3291153422489762
1761507187926290200,3.540290283203125,-4.009711442178488,-0.3003659253656864,-0.8396066578239202
1761507187946445800,3.56044580078125,0.7708259670644998,-0.06478373007774353,-1.515520298528671
1761507187966601700,3.580601806640625,4.175082037121057,0.4016366808414459,-2.207488417455554
1761507187986758700,3.600758544921875,6.463484066200256,1.3141796877995133,-3.469912491315603
1761507188006914800,3.620914794921875,8.009221808338165,1.3733932165294884,-4.917829326170683
1761507188027071700,3.64107177734375,9.07465206850171,1.9668004234611987,-5.9236634880274535
1761507188047228000,3.661227783203125,9.843850142103433,2.3391592796310783,-6.52491030254364
1761507188067383800,3.6813837890625,10.270289255768061,2.127604148879647,-6.173571730309725
1761507188087541000,3.701541015625,10.122709169059991,1.6755334580913186,-5.6171501459479325
1761507188107697000,3.72169677734375,9.567513327100873,1.0796803193122149,-4.733543602877855
1761507188127852800,3.741852783203125,9.034713441345096,1.0026488098189235,-4.111580455808341
1761507188148009700,3.762009765625,7.866227880376577,1.2252373757600783,-3.3748674784868955
1761507188168165600,3.78216552734375,6.759848354709148,1.603750370645523,-2.774239380390942
1761507188188322800,3.80232275390625,5.813007064568996,2.0341396832406518,-2.142388168774545
1761507188208478700,3.822478759765625,4.814507483384013,2.072101457366347,-1.6278399790242313
1761507188228635000,3.842634765625,3.6872371453791857,1.346170863083005,-0.6231836287751793
1761507188248791800,3.862791748046875,1.5213462282031773,-0.3229273012638092,0.791493492040038
1761507188268947700,3.88294775390625,-1.8315052333086728,-3.842171101981401,4.335724434497952
1761507188289104600,3.903104736328125,-8.94908332259357,-7.844554977750778,10.45626658540964
1761507188309260800,3.9232607421875,-18.072981944823265,-5.476915161305666,11.964055997425318
1761507188329416700,3.943416748046875,-23.72456744433641,-2.8890669520542023,13.940205263990164
1761507188349574000,3.963573974609375,-25.256012457227705,-2.0355027882874013,14.864496868669987
1761507188369729800,3.983729736328125,-22.925984286296366,0.328062033803761,11.550739400184154
1761507188389884700,4.003884765625,-15.07187705182433,0.8364891103252768,6.151864925414324
1761507188410041900,4.024041748046875,-7.2575219820261,0.6744008980542421,1.130937628340721
1761507188430197800,4.04419775390625,-0.4234264878451824,1.1552455556452275,-2.4709867936730383
1761507188450354000,4.06435400390625,4.301645054763555,2.0142823056042194,-5.342003417512774
1761507188470510800,4.0845107421875,6.405052920019626,4.346687142539024,-7.711047255536913
1761507188490666800,4.104666748046875,7.482759308910369,6.790747350841761,-9.332354910182952
1761507188510822700,4.12482275390625,8.556147834601997,7.3458081682443614,-10.267718528497218
1761507188530979800,4.144979736328125,9.428003734123706,7.227122752109169,-10.30641504663825
1761507188551135700,4.1651357421875,10.12714919733405,6.470467349216341,-9.312743031740188
1761507188571293000,4.18529296875,9.705131991764903,6.4520712763041255,-8.169325861054658
1761507188591448800,4.20544873046875,8.557277130892873,7.241978375935554,-6.85647040759623
1761507188611604700,4.225604736328125,7.595831561338901,6.823773422130942,-4.98859271517992
1761507188631761700,4.24576171875,7.7227289255023,5.7227247360974545,-3.154594496011734
1761507188651917600,4.26591748046875,7.9776459358572955,3.319311010959744,-1.74309045227468
1761507188672074800,4.28607470703125,6.017530104726553,1.5209095903515815,-1.0772568915575742
1761507188692230700,4.306230712890625,4.781664951968192,0.3477864327102899,-1.2682827367603777
1761507188712386800,4.32638671875,3.4009131893694398,-0.0801762372598052,-0.9316875601500272
1761507188732543700,4.346543701171875,1.6720394784957169,-0.575637741485238,-0.30000352179408074
1761507188752700000,4.366699951171875,-1.9302882636219263,-1.8009321081295608,1.5840449687004088
1761507188772856800,4.38685693359375,-6.565842032390832,-1.9799030661404131,3.9769279474735257
1761507188793014800,4.407014892578125,-10.489418328905105,-2.8348882026210425,5.593592744749784
1761507188813172000,4.427171875,-15.021277329921721,-4.208439240060747,6.524041703015565
1761507188833327900,4.447327880859375,-18.178712602317333,-2.6668080564588306,5.450492433804273
1761507188853484800,4.46748486328125,-19.231050741195677,-3.4854733408018945,6.318242651572823
1761507188873640700,4.487640625,-17.866002743685243,-2.4014018007934093,4.871876845552027
1761507188893796900,4.507796875,-13.415523218238352,-1.1705594446331262,2.5195997256726024
1761507188913953800,4.527953857421875,-9.121511434832215,-0.9808511117696761,0.4126077183194458
1761507188934109700,4.548109619140625,-5.44096881865561,-0.8202405708357692,-0.1214396832793951
1761507188954267100,4.56826708984375,-1.3430699744582175,0.03283288680464029,-0.17678776875287294
1761507188974423300,4.58842333984375,2.1491385198175905,1.1789584396660326,-0.33059863960929214
1761507188994579200,4.6085791015625,4.872021514719725,2.5241879302456973,-0.23352555501908062
1761507189014736100,4.628736083984375,7.163850011116266,3.956491016383469,-0.9073171620685606
1761507189034892300,4.648892333984375,8.807837699604034,4.2236014456182716,-1.6802032034680245
1761507189055049200,4.66904931640625,10.1886397310853,3.1089681786075234,-1.9580872479125857
1761507189075205400,4.689205322265625,10.610507883572577,1.9850953740864992,-1.6912418993547558
1761507189095361300,4.709361328125,10.465094034987688,1.7889599307850002,-1.4699766909718512
1761507189115518200,4.729518310546875,9.957536142516135,2.2657649575963617,-1.8791142489627002
1761507189135674000,4.749674072265625,9.284775997406244,3.940148076608777,-2.0784806370094415
1761507189155831300,4.769831298828125,8.919387857031822,4.644044825999439,-2.1586172729112207
1761507189175987200,4.7899873046875,8.213594041848182,5.44546203842163,-2.2812761227220295
1761507189196143000,4.81014306640625,6.878744783246517,5.956901740762591,-2.0775302044168114
1761507189216300300,4.83030029296875,6.258189457148313,5.2947074133306735,-2.00791189378947
1761507189236456200,4.850456298828125,5.142323141211271,2.862043043789267,-1.1031085411727428
1761507189256613400,4.87061328125,2.3747779977619645,-0.4498150208160281,0.8510013275414705
1761507189276769300,4.890769287109375,-2.2111001782119275,-2.261967318879068,2.2453519919037817
1761507189296925200,4.91092529296875,-7.615067007684707,-4.762426290751994,3.0740134773433208
1761507189317082000,4.93108203125,-12.15135434653759,-5.3556636940747495,3.475770569694042
1761507189337238300,4.95123828125,-15.934319226312637,-6.399178475028276,3.8021962344676252
1761507189357395200,4.971395263671875,-17.73437659743428,-6.998158513656258,4.930173259437084
1761507189377551400,4.99155126953125,-17.66423513971567,-6.428361899414658,5.0538721198201175
1761507189397707300,5.011707275390625,-15.739445473510026,-3.844329741320014,2.8340625654518603
1761507189417864400,5.031864501953125,-11.220110438501834,-1.830290596821904,0.2777072265729308
1761507189438020400,5.052020263671875,-5.648660551977157,-1.2255293444439768,-1.4523147775530814
1761507189458177300,5.07217724609375,-0.21354630456864832,-0.376802099314332,-2.715142756038904
1761507189478333200,5.092333251953125,4.102023230651021,1.0931383513003587,-3.4794977735236285
1761507189498489000,5.112489013671875,6.791262899148464,2.1211934050545094,-3.457530564126372
1761507189518646300,5.132646240234375,8.679747910785675,2.9958050330251456,-2.596380475275218
1761507189538802200,5.15280224609375,10.17761798633337,3.3758164497748013,-1.6318386932715772
1761507189558959400,5.17295947265625,10.972102476882934,1.9716931639388202,-0.24060309218987821
1761507189579115300,5.193115234375,10.89183943812251,0.8560995274633169,0.7768783989712595
1761507189599272200,5.213272216796875,10.521254898148774,1.1613438725203276,0.9801409176737069
1761507189619428000,5.233427978515625,9.799331785941124,1.3523431219771505,0.9290104498952627
1761507189639584300,5.253584228515625,9.086875590258837,1.742669011992216,0.6281139247842132
1761507189659741200,5.2737412109375,8.42930424645245,2.0722090093940495,0.20765549296438693
1761507189679897300,5.2938974609375,6.976280443847179,1.929901017870009,-0.07270765494480728
1761507189700054300,5.31405419921875,6.02928425540626,1.4805091909021137,-0.3506955981552601
1761507189720210400,5.33421044921875,4.766448093613982,0.5909693122602999,-0.3682560970261693
1761507189740366300,5.354366455078125,2.3912691138356923,-1.9900515351891517,0.5353631603725254
1761507189760523300,5.374523193359375,-2.6361452071696516,-4.049401063010096,1.8626310239344834
1761507189780679200,5.39467919921875,-9.106354782232641,-4.819309330707788,2.7409032202392813
1761507189800836400,5.41483642578125,-15.156769503951072,-5.331124880623817,4.376207836055755
1761507189820992300,5.4349921875,-19.887239690732955,-4.511360402867198,5.392649316644668
1761507189841148200,5.455148193359375,-21.593351534700393,-3.61298357616663,5.451424161696433
1761507189861305300,5.475305419921875,-21.70371394364834,-0.9601914778396486,3.7938089298725126
1761507189881461200,5.495461181640625,-18.06183394334316,0.6248027544096112,1.8120422618173062
1761507189901618200,5.5156181640625,-12.726872261035442,0.3241480752304196,0.8913212091006338
1761507189921774000,5.535774169921875,-6.449235760617256,-0.7836006929636001,1.0265708065457642
1761507189941930200,5.55593017578125,-0.7744032410293817,-0.7900622901931404,0.326213775588572
1761507189962087200,5.576087158203125,3.848952724945545,0.6760454503908753,-1.3393553378492593
1761507189982243000,5.5962431640625,7.062520218929648,2.590247379347682,-2.8856799399644135
1761507190002400300,5.616400146484375,9.371360640403628,3.435663600233197,-3.4741344929248092
1761507190022556200,5.63655615234375,11.226298187226057,3.783627143076062,-3.6719451759621498
1761507190042713000,5.656713134765625,12.116881583571434,3.1529034741848707,-3.4523639751434323
1761507190062869000,5.676868896484375,12.312310632169247,2.2006465887367725,-2.998770897093415
1761507190083025200,5.697025146484375,11.955084755462407,2.0429840839535,-2.941515224432945
1761507190103182000,5.71718212890625,11.016348445844649,2.1253467253416773,-2.827216645079851
1761507190123338200,5.737338134765625,10.05984150173664,2.0841203964620827,-2.9155212437376377
1761507190143495200,5.7574951171875,9.124203158134222,2.4484406153440474,-3.0526570933207866
1761507190163651300,5.7776513671875,8.198129930734634,2.3980101125285027,-3.2078970471322537
1761507190183807200,5.79780712890625,7.177976736146211,1.7382538258984683,-2.9414187783211467
1761507190203964200,5.817964111328125,5.754207085075974,0.7766352378651499,-2.607246152682602
1761507190224120000,5.8381201171875,3.8001352102845907,-1.946684102627635,-1.0262912589520214
1761507190244277200,5.85827734375,-0.41169104186594485,-5.078022226214409,1.8470447477459906
1761507190264433200,5.87843310546875,-7.3768708305060855,-5.54188360030055,3.168723559129238
1761507190284589300,5.89858935546875,-15.702310797858237,-6.283028130328655,4.270568656237423
1761507190304746200,5.918746337890625,-22.23637237510681,-6.065369129744171,5.441410132682323
1761507190324902400,5.93890234375,-26.262718141222,-5.674844210025668,5.401483780485392
1761507190345059000,5.95905908203125,-26.0396645881176,-2.301055758947134,3.099828302079439
1761507190365215000,5.979215087890625,-21.264691242742536,-0.6948764075890183,1.9876973732784389
1761507190385372200,5.9993720703125,-13.823701868069172,-1.3119766247972846,1.6277068541638553
1761507190405528000,6.019528076171875,-5.167406729063392,-1.0463917976945638,0.7631096935987473
1761507190425684200,6.039684326171875,2.3576316326498983,-0.4356315971627831,-0.3726172148451209
1761507190445841200,6.059841064453125,8.03813693717718,0.6283356047108769,-1.3218100365474819
1761507190465997300,6.079997314453125,11.891301726859806,1.2063871293395756,-1.2517755463346838
1761507190486154000,6.100154052734375,14.551739079242944,1.4412714054912328,-0.8254745259664952
1761507190506310100,6.12031005859375,14.800805025482177,0.899878463435173,-0.1282215985044837
1761507190526466000,6.140466064453125,13.70355923886299,0.2769868033438921,0.5785968835517764
1761507190546623200,6.160623291015625,12.201481774753331,1.295778061929345,0.5571216954551637
1761507190566779100,6.180779052734375,10.929265205675362,2.289932891908288,0.2690396437317133
1761507190586936300,6.200936279296875,9.816133283138274,2.820495227870345,0.26651816243007775
1761507190607092200,6.22109228515625,8.92202171266675,3.6733445213660594,0.2870974246002734
1761507190627248400,6.241248291015625,7.763342090919614,3.9035049838662146,-0.7798026158548891
1761507190647405000,6.261405029296875,6.532273524788022,3.7874697899788616,-1.6941364517524837
1761507190667561200,6.281561279296875,5.43000201896131,3.1074425764754414,-1.8896438262835145
1761507190687718100,6.30171826171875,4.609495782926678,2.215145654210448,-1.442608207052946
1761507190707874000,6.3218740234375,3.181909203916788,0.8552288821086287,-1.0474831000626086
1761507190728031200,6.34203125,0.9274421776652335,-1.2721627930641173,-0.4240887511461973
1761507190748187100,6.362187255859375,-2.238845094227791,-3.3204148805484173,0.28945202490240335
1761507190768343300,6.38234326171875,-5.635929080697894,-3.3566450085759163,0.9282752674885094
1761507190788500000,6.4025,-9.819913970720767,-3.5849618890359998,2.134001156440377
1761507190808656100,6.42265625,-13.549120372301338,-2.9981179861426352,2.1691391053169964
1761507190828813000,6.44281298828125,-17.415488342428205,-3.05880509455651,2.142964215096831
1761507190848969200,6.46296923828125,-17.78969224194288,0.20892215189933774,-0.25438451091349124
1761507190869125000,6.483125,-15.263351225316523,0.8701403277754783,-0.31508667076602576
1761507190889282300,6.5032822265625,-11.170001714986562,-0.11029986510574817,0.8031809341590851
1761507190909438200,6.523438232421875,-5.728661140409112,-0.6597605244137347,1.0525119610752909
1761507190929595100,6.54359521484375,-0.5439373658418655,0.0925229470051825,0.18182824713811277
1761507190949750800,6.563750732421875,3.175306444650888,0.5316534921996295,-0.22916306722695007
1761507190969907700,6.58390771484375,6.015039456954598,0.38417438164800405,-0.3726208681069314
1761507190990063900,6.60406396484375,8.267734797358512,-0.3671870064899325,-0.5754571242213249
1761507191010219800,6.6242197265625,9.502475914523005,-1.54673347517699,-0.9385241281718015
1761507191030377000,6.644376953125,9.601415596702694,-2.3270950400888917,-1.278586688631773
1761507191050532900,6.664532958984375,9.297748291704059,-2.1126247525431214,-0.8748492361187934
1761507191070689800,6.684689697265625,9.119253426772355,-1.416412274044752,-0.6235953513812273
1761507191090845700,6.704845703125,8.788902697509526,-0.7325647716008127,-0.2705503405556083
1761507191111001900,6.725001953125,8.301500873360038,0.10805106326565146,-0.43898138251472263
1761507191131158800,6.74515869140625,7.843559536972641,0.6985444285772741,-0.7183812018170952
1761507191151314700,6.765314697265625,7.696473955783247,1.0462908215381204,-0.9164087424755096
1761507191171472000,6.785471923828125,7.593886857011914,1.0153430178277194,-0.8414224020089953
1761507191191627800,6.805627685546875,6.745139445877075,0.46160511959195133,-0.2869080395080149
1761507191211785000,6.825784912109375,4.824955812162161,-1.1172907957822085,0.6650631608664989
1761507191231940900,6.84594091796875,1.9592823029160498,-2.271549093955755,1.7016637785173951
1761507191252096800,6.8660966796875,-2.076631502011418,-1.3625995814450085,1.9490432329744098
1761507191272253700,6.886253662109375,-7.991540021175146,0.25552622829452154,2.2707025601290165
1761507191292409900,6.906409912109375,-15.085332745724916,1.6875917062841355,3.374879461185634
1761507191312566800,6.92656689453125,-18.728394649291037,3.8197529339462517,1.5297231575347483
1761507191332723000,6.946722900390625,-20.05008281302452,5.699295345193147,-0.7665311194147915
1761507191352878800,6.96687890625,-18.58827072380781,4.589027872176468,-2.8718098200440405
1761507191373036000,6.9870361328125,-16.154563567215202,1.3027676285557448,-1.6622709486752747
1761507191393192000,7.00719189453125,-11.74520983288288,0.2905105209793895,-0.2006482262845151
1761507191413348900,7.027348876953125,-8.188070893535018,0.12932561422362923,1.0561621541459112
1761507191433504800,7.0475048828125,-3.844730138814449,-1.2413503061711788,2.731369083696604
1761507191453662000,7.067661865234375,2.508615390321612,-2.3230660768337548,3.6681080820173024
1761507191473817900,7.08781787109375,3.4647494094640017,-2.452524669787288,2.0318743686571716
1761507191493973800,7.107973876953125,7.4556550288856025,-1.584792572197318,1.2092140233285724
1761507191514131000,7.128130859375,10.34332292779684,-2.4588421823710203,-0.8932414365734904
1761507191534286800,7.148286865234375,11.489280430614947,-2.741381943666935,0.052230702371615916
1761507191554443800,7.16844384765625,12.151081959336995,-1.849258770533651,0.726366793743521
1761507191574599700,7.188599609375,11.679371625316142,-1.61004099522233,1.1306976821050048
1761507191594755800,7.208755859375,10.858469083440303,-0.787434425907582,0.32346663230489936
1761507191614912800,7.228912841796875,9.617582887649535,0.33112449011430145,-0.24138291745595633
1761507191635069000,7.24906884765625,8.634031284749508,1.0660141975313424,-0.4123346004664898
1761507191655225900,7.269225830078125,7.595604766845702,1.4024629514083264,-0.6407157783344387
1761507191675382000,7.289382080078125,6.86986063504517,1.854833063534647,-0.858500597255677
1761507191695538700,7.30953857421875,6.022704292494058,2.800703608946502,-1.0574095969237387
1761507191715694800,7.32969482421875,3.4459856722831725,2.16779908888489,-0.19786329000741243
1761507191735850800,7.349850830078125,-0.8997457769662142,0.23989772039949891,1.5442185697466133
1761507191756008000,7.370008056640625,-6.416837465837597,-0.41652854502499104,1.256315381721407
1761507191776163800,7.390163818359375,-11.37161149804592,-0.335447467879951,-0.5415370997671037
1761507191796321000,7.410321044921875,-15.250647226566075,-0.7708209986284374,-0.28402751563563944
1761507191816477000,7.430476806640625,-16.747305003714562,-1.6097952037677168,-1.380731304332614
1761507191836632800,7.4506328125,-15.79747797576189,0.3222372731730342,-2.265655505872518
1761507191856789800,7.470789794921875,-13.532227689689398,-0.816993843999505,-0.890010199567303
1761507191876945700,7.490945556640625,-10.23877066643238,-0.675580609358102,1.2647995708197355
1761507191897102800,7.511102783203125,-5.549603380897641,0.4633953640095889,2.6962004474207757
1761507191917258800,7.5312587890625,-1.2248533448785544,0.33498847206607457,2.0311502921663225
1761507191937416000,7.551416015625,2.7309815456837416,-0.28533421432003375,0.7009666142228991
1761507191957571300,7.5715712890625,5.854843049779534,0.3295458426207304,0.10403755330797285
1761507191977727500,7.5917275390625,7.73309834382534,0.14173209133222697,-0.004705510809831321
1761507191997884200,7.61188427734375,9.045168784385918,0.19390213129147887,-0.3823014639155939
1761507192018040300,7.632040283203125,9.875518369042872,0.7313638713784515,-0.022978651462122798
1761507192038197200,7.652197265625,10.54026705713272,0.8786870607160031,0.18583949207346886
1761507192058353400,7.672353515625,11.203832672917843,0.9940968161813915,0.6111681602781638
1761507192078510300,7.69251025390625,11.701348479324578,1.3233774319946765,0.7254032094083726
1761507192098666500,7.71266650390625,12.088911042106151,1.3742412116609513,0.5936276812819764
1761507192118822400,7.732822509765625,11.824071188151835,1.354615450823307,0.46655981938987967
1761507192138979300,7.752979248046875,11.278962440443038,1.071532814822346,0.4157620176319033
1761507192159135200,7.77313525390625,10.484496654593944,0.2931391889825463,0.3054385889874771
1761507192179292400,7.79329248046875,7.891844552192092,-0.780480807377398,0.4274629768196493
1761507192199448300,7.8134482421875,0.9882043971419334,-1.8918878058180213,0.8383489128477871
1761507192219604200,7.833604248046875,-9.85169091873169,-3.1305349905103443,0.19382303817328064
1761507192239761400,7.853761474609375,-20.40195563826561,-1.1008937877327203,-3.1132763971954582
1761507192259917300,7.873917236328125,-27.938261828446386,-1.053293832167983,-3.373697265663743
1761507192280074200,7.89407421875,-28.44919007413387,0.14534721308946608,-4.279252313430607
1761507192300230100,7.914230224609375,-25.026134026539324,-0.5808341410845518,-4.492822291135788
1761507192320387300,7.93438720703125,-18.62266399179697,-1.473280116431415,-3.2251258298307657
1761507192340543200,7.954543212890625,-12.181625566160678,-2.8911867206871507,-0.9383273634906858
1761507192360699400,7.974699462890625,-7.308625561797618,-2.7830326354384423,0.8210876161191611
1761507192380854300,7.994854248046875,-3.472574404001236,-1.53092771101892,1.3315804660640655
1761507192401010200,8.01501025390625,-0.0828577314287424,0.3982566830143332,0.8000839910570532
1761507192421166300,8.035166259765624,3.0905186219424006,1.4342565582931042,-0.711840621067211
1761507192441323300,8.0553232421875,6.595344605728983,2.244203114129603,-1.2656896515272558
1761507192461479400,8.0754794921875,9.451635369601846,2.0114619874864816,-0.8701883316356688
1761507192481636400,8.09563623046875,10.965317346787453,2.52661691095829,-0.7195843670617789
1761507192501792500,8.11579248046875,11.411185968065261,2.583568339975178,-0.20807033910928294
1761507192521948400,8.135948486328125,11.353624590456485,2.795599271544814,0.7183006108615547
1761507192542105300,8.156105224609375,11.150986048871278,2.722641879622638,1.3642214835584163
1761507192562261200,8.17626123046875,11.023690040779114,3.18044176171273,1.4538726745195687
1761507192582418400,8.19641845703125,10.845820029747486,3.7428628787502642,1.3266226975262165
1761507192602574300,8.21657421875,10.70674006035924,4.121650891184807,1.372785459894687
1761507192622731500,8.2367314453125,10.451445448863506,4.470242795059085,1.048813033492118
1761507192642887400,8.256887451171876,9.800734053954482,4.529071123863757,0.524796721640043
1761507192663043300,8.277043212890625,8.5448805906564,3.8077372097209095,0.37399186419919134
1761507192683200300,8.2972001953125,6.024333355000615,2.2047721442341803,1.1628263661630451
1761507192703356200,8.317356201171876,1.2381956415325404,-0.4714546056941151,0.997824385337159
1761507192723513300,8.337513427734375,-7.0353609938472506,-3.8578549933254718,-5.191739206287265
1761507192743669200,8.357669189453125,-11.323201395142078,-7.704616930228472,-3.9592122580409046
1761507192763825400,8.377825439453124,-17.921576746869086,-4.785616319942474,-1.754731059577316
1761507192783982300,8.397982421875,-20.17961052569151,-1.18481038056463,-0.203925713585224
1761507192804138500,8.418138427734375,-19.73868462151289,0.14101386006027458,-0.5185446755079552
1761507192824295200,8.438295166015624,-15.365509285020828,-1.2534224367588758,1.3880237994283438
1761507192844451300,8.458451416015626,-9.805800689694285,-2.3996663553029296,1.8121251177951692
1761507192864608300,8.478608154296875,-4.320038789588213,-3.089354254338145,1.9285946114465593
1761507192884764400,8.498764404296875,0.7426105109274387,-3.2929110798120496,1.6279446084424853
1761507192904920300,8.51892041015625,4.2896489120215175,-2.2593208960235116,0.8717930634185671
1761507192925077500,8.539077392578125,5.719769393423199,-1.1950298690229653,0.185817024513334
1761507192945233400,8.5592333984375,6.856336552083492,-0.3120478875920176,0.6457828524656594
1761507192965391000,8.57939111328125,8.0956164817214,0.4527598420962691,1.4132416811846196
1761507192985547300,8.59954736328125,8.825886566513777,0.8088441475525497,1.8405181224562226
1761507193005704200,8.6197041015625,9.374985845163463,0.3064668725892901,1.2937113386578858
1761507193025860400,8.6398603515625,9.644024904373287,-0.02845014167577028,0.4783024257622659
1761507193046016300,8.660016357421876,9.482433827969432,0.5342910010963678,-0.10386157568655907
1761507193066173400,8.68017333984375,8.723225817984343,1.6005290705114603,0.07090455104559659
1761507193086329300,8.700329345703125,8.043015941390395,2.4573045975401997,0.3036516690380871
1761507193106486300,8.720486328125,7.186897709226608,3.089865126469731,0.31082945171296594
1761507193126642200,8.74064208984375,5.854717962095141,2.967567657317221,0.05369739565700292
1761507193146799400,8.76079931640625,3.528716562461853,1.9310934425249695,0.3618029022987932
1761507193166955300,8.780955322265624,-0.9689461544424295,-0.32276860357075926,-0.4780054155770689
1761507193187111200,8.801111083984376,-6.47002311258018,-1.399500594471395,-2.9593498640701172
1761507193207268400,8.821268310546875,-10.900630647343396,-2.343698968887329,-2.5541657198801637
1761507193227424300,8.84142431640625,-15.25668299959898,-3.8790903813168405,-1.258628334838897
1761507193247581200,8.861581298828124,-17.359537907147406,-2.6183652203291654,-1.935437901470065
1761507193267737000,8.881737060546875,-17.937843991059065,-1.2630556497618555,-2.331650803697109
1761507193287893200,8.901893310546875,-16.58592435519099,-0.8254264490410685,-1.429411456349492
1761507193308050200,8.92205029296875,-13.400947580397128,-1.014516650006175,-0.25383257611915466
1761507193328206300,8.942206298828125,-9.198846018925309,-1.5727230719581244,0.7393553085237741
1761507193348363300,8.96236328125,-4.9733559830814595,-1.636457000721991,1.1627720786925404
1761507193368519400,8.98251953125,-1.0067629671394824,-0.5858475853323936,1.4139689725458622
1761507193388676000,9.002676025390626,1.9689099629610776,0.39794250249862667,1.2762734432533382
1761507193408832300,9.022832275390625,4.557071183684468,1.5724100604861975,0.7767468815460801
1761507193428988200,9.04298828125,6.842439544156194,2.6286387770622968,0.5993169789647683
1761507193449145300,9.063145263671874,8.496512573328614,3.31158860001415,0.18543717661658302
1761507193469301200,9.08330126953125,9.723915018168091,3.1762931176006792,0.33497122867032886
1761507193489458400,9.10345849609375,10.503962402564287,2.658271114259958,0.48778158071469513
1761507193509614300,9.1236142578125,10.786540157783032,2.097747647537291,0.3041931555036455
1761507193529771300,9.143771240234376,10.395892488467693,2.3630510273501275,-0.0007769711552886292
1761507193549927200,9.16392724609375,9.773107795882224,2.9571435861974953,0.06412307421192527
1761507193570083000,9.1840830078125,8.852298772621154,3.1992320946395396,0.3142490143654868
1761507193590240300,9.204240234375,7.704383121472596,2.8770108958184717,0.20636777297509834
1761507193610396200,9.224396240234375,5.527623019757867,2.2170646395742892,-0.077534600177221
1761507193630553300,9.24455322265625,2.2154653876841066,1.316910281807184,0.012430732483731116
1761507193650709200,9.264709228515626,-1.1378396628141403,-0.11422580637782812,0.32302341858204453
1761507193670865400,9.284865478515625,-4.501187383899093,-2.179274422623217,-0.5193541287273168
1761507193691022000,9.30502197265625,-7.551729969283938,-3.6653067608609793,-0.2999122998466715
1761507193711178200,9.32517822265625,-9.910479792308807,-5.272825836390257,0.7851105860698968
1761507193731335200,9.345335205078126,-11.279755052125454,-7.555318349164724,0.6006219606161117
1761507193751491300,9.3654912109375,-11.787063938271999,-6.932001741659641,-0.51463078999985
1761507193771648300,9.385648193359375,-12.629190469962358,-3.6237004927530885,-1.8314235463745892
1761507193791804400,9.405804443359376,-12.010112815201282,-2.3529241856113075,-1.3268135439231992
1761507193811960300,9.425960205078125,-8.285054180949926,-2.294334049476683,0.16268387660924344
1761507193832117200,9.4461171875,-2.52523685477674,-0.9873194310009479,0.953170054770261
1761507193852273200,9.466273193359376,3.092686613631248,0.07794365590214729,1.01315982856974
1761507193872430300,9.486430419921875,6.145580730578303,1.5062015583023427,0.755843063596636
1761507193892586200,9.506586181640625,7.397107562848925,1.8302324368938803,0.3979642028737813
1761507193912743400,9.526743408203124,8.374441606408357,2.125343802732229,0.5052092469861731
1761507193932899300,9.5468994140625,8.765448756685853,1.737042696543038,0.2932686240484938
1761507193953055000,9.567054931640625,8.936406211850047,0.48390083029121156,-0.3233587514836341
1761507193973212000,9.5872119140625,9.218989812287688,0.6922112800329924,-0.23582793194362892
1761507193993367800,9.607367919921876,8.99865428597033,1.7407587944567202,0.22897273228662088
1761507194013525000,9.62752490234375,8.521340725114941,2.185873090235889,0.12398644515275954
1761507194033681000,9.647680908203125,8.132961585253476,2.1299194400846955,0.1850466977279633
1761507194053837000,9.667837158203126,8.353132860919832,1.8466490264266728,0.3314706732034683
1761507194073994000,9.687993896484375,7.9560408377707,1.2847063405558465,0.28918371108872815
1761507194094150100,9.708150146484375,5.54992252984941,0.8821151354685425,0.6129628251425921
1761507194114306800,9.728306884765624,1.1734013900607823,-0.13789543577879668,0.9832435598641633
1761507194134463000,9.748462890625,-4.438282891696692,-0.7278443189501762,0.3587376695092767
1761507194154620000,9.768619873046875,-10.591838254415988,-1.3858639910459518,-1.1241208609979598
1761507194174776000,9.788776123046874,-16.644384727466104,-1.0764119651660322,-1.4471899818852543
1761507194194932000,9.808931884765625,-19.137335515666006,-2.118809140266478,0.0713319096121937
1761507194215089200,9.829089111328125,-19.800351680874822,-3.355250339347124,0.2218921811748296
1761507194235245000,9.8492451171875,-19.263622638976575,-1.5904937064483762,-0.7853690178103745
1761507194255401700,9.869401611328126,-15.97084716824293,-1.31029700114727,-0.5555475049410015
1761507194275558000,9.889557861328125,-10.183924977523088,-2.6412562665730714,-0.13469516016645355
1761507194295714800,9.90971484375,-4.15607280074656,-2.694714008255303,0.120299080143217
1761507194315871000,9.92987109375,0.7858569474577903,-1.3997057616546749,0.22830413057636467
1761507194336027000,9.95002685546875,4.5621951025694605,0.29845103165507314,0.4217771862681955
1761507194356184000,9.97018408203125,7.796009850290417,1.2965475849971175,0.3079357030328363
1761507194376340000,9.990340087890624,10.094716415762901,1.4443494977623224,0.09370203725453466
1761507194396497000,10.010496826171876,11.54328557704687,1.1086354879006743,-0.42544411127790804
1761507194416652800,10.03065283203125,12.195859843218326,0.8561486273020505,-0.47776828235294666
1761507194436810000,10.05081005859375,12.114868490183353,1.1117091962575911,0.41409437668062743
1761507194456966000,10.0709658203125,11.542273185133933,1.5454066104874014,0.7822057314738631
1761507194477122000,10.0911220703125,10.378913296616076,1.8516715307638048,0.5999695611219853
1761507194497279000,10.111279052734375,8.685670286571979,2.43338508503139,0.8499687696233391
1761507194517435100,10.13143505859375,6.515276212757826,3.2903663637652993,1.184396539066732
1761507194537591800,10.151591796875,5.120909181782603,4.029097695171833,1.2144861185126006
1761507194557748000,10.171748046875,4.237039603862166,4.035328990776836,1.040299106842652
1761507194577903900,10.19190380859375,3.078550536251068,2.2306512663781644,1.271206807513535
1761507194598061000,10.21206103515625,0.7708031707108021,-1.3669345419093966,1.006230175437033
1761507194618217000,10.232217041015625,-3.6936142791956663,-2.6594924727484583,-1.5954831852987408
1761507194638374000,10.252373779296875,-10.605950950920581,-3.2883640840321777,-2.940119970682263
1761507194658530000,10.272530029296876,-16.148145516866446,-3.994381771099567,-2.400846504998207
1761507194678687000,10.29268701171875,-19.76761377887726,-4.190267331293225,-1.9204202189497648
1761507194698843000,10.3128427734375,-20.27222918815613,-4.399456901957095,-2.1137109403446317
1761507194718998800,10.332998779296876,-18.027772683787344,-3.8896202508985995,-1.997480808407068
1761507194739156000,10.353156005859375,-12.953183939152956,-4.5807826064005495,-0.981529303292185
1761507194759312000,10.373311767578125,-7.257564652124047,-4.521872152270376,-0.2628697777240537
1761507194779469000,10.393468994140624,-2.2622551959097383,-3.2081545290246605,0.5473470281548798
1761507194799625000,10.413625,1.301059801724553,-2.3655682708680628,0.501528622244671
1761507194819782100,10.4337822265625,4.348674516963959,-0.3275806800276041,0.217147763126716
1761507194839938000,10.45393798828125,6.757646460750698,1.9401105694562195,0.46059232582021503
1761507194860094000,10.474093994140626,9.460178741541505,3.564295240843296,1.6290971394784748
1761507194880251000,10.4942509765625,10.864718791484831,3.995941275501251,2.1841598565772173
1761507194900407000,10.514406982421875,11.154772581672669,3.9906455071806906,2.0742441684834656
1761507194920564000,10.53456396484375,10.713802253830432,4.734961652982235,2.096579772801697
1761507194940720000,10.55472021484375,9.975713604241609,5.480344551232457,2.021109959667176
1761507194960876300,10.574876220703125,9.453131161117554,6.152820618703961,1.566438877122104
1761507194981033000,10.595032958984374,8.45368173186183,6.308854645502567,0.8816698759190738
1761507195001189000,10.615189208984376,6.951010393512249,6.370907489311695,0.5342760957881808
1761507195021346000,10.635345947265625,5.712816505545377,5.614508107006549,-0.03428659274429083
1761507195041502200,10.655502197265625,4.769371287584304,2.7646950147151945,-1.2332932564437389
1761507195061659100,10.6756591796875,3.004498042568564,-0.4332523008108139,-0.904389072727412
1761507195081815300,10.695815185546875,0.4542144248187542,-2.785826650071144,0.68261533030048
1761507195101971200,10.71597119140625,-3.7696401187777515,-3.580285421657562,0.9270589505013078
1761507195122128100,10.736128173828124,-7.917892016640305,-4.177005114138126,0.8523980425968766
1761507195142284000,10.756283935546875,-10.800337212467193,-6.545829171931743,0.6225587748751044
1761507195162441200,10.776441162109375,-10.602537343084812,-8.869194377842545,-0.3904404197728261
1761507195182597000,10.79659716796875,-9.514095040646195,-10.091059646821021,0.07461633811034261
1761507195202753000,10.8167529296875,-9.615124388581513,-7.684698177793622,-2.1379713752456007
1761507195222910200,10.83691015625,-8.811077704438567,-4.104712615865469,-2.461274962475896
1761507195243066000,10.857066162109374,-5.904577094763517,-2.651747265449166,-1.8014862348809837
1761507195263223300,10.877223388671876,-3.2864462677121162,-1.5265625015467403,-1.5866313319317995
1761507195283379200,10.897379150390625,-0.6038251405715942,-0.597534808255732,-1.3381965232029556
