time,seconds_elapsed,z,y,x
1761507184479552000,0.093552001953125,-1.0363696813583374,0.4202505946159363,1.125819206237793
1761507184499708000,0.1137080078125,-0.8842858672142029,0.5716769099235535,0.7756041884422302
1761507184519863800,0.13386376953125,-0.39303910732269287,0.2121885120868683,0.7354182004928589
1761507184540021000,0.15402099609375,0.39377862215042114,-0.3073442578315735,0.7953111529350281
1761507184560177000,0.174177001953125,0.3455468714237213,-0.9600436687469482,0.6577218770980835
1761507184580333000,0.1943330078125,-0.5597818493843079,-1.3933663368225098,0.01963982544839382
1761507184600489700,0.21448974609375,-1.2704826593399048,-1.4035425186157227,-0.7882694005966187
1761507184620646000,0.23464599609375,-1.6960422992706299,-0.31651341915130615,-1.3556157350540161
1761507184640801800,0.2548017578125,-1.6720707416534424,0.7664020657539368,-2.1696643829345703
1761507184660959000,0.274958984375,-1.3905178308486938,0.4066956043243408,-2.936683177947998
1761507184681115000,0.295114990234375,-1.1771421432495117,0.12260191142559052,-3.189601182937622
1761507184701270800,0.315270751953125,-0.5007578730583191,-0.3423826992511749,-2.724127769470215
1761507184721428000,0.335427978515625,-0.14152847230434418,-2.4671754837036133,-2.2432186603546143
1761507184741584000,0.355583984375,-0.9125185608863831,-3.6969399452209473,-1.286715030670166
1761507184761740000,0.375739990234375,-1.6099387407302856,-1.2230583429336548,1.1503736972808838
1761507184781896700,0.395896728515625,-0.8431805372238159,1.388608694076538,3.489633560180664
1761507184802052900,0.416052978515625,0.2729138135910034,0.326758474111557,4.298141956329346
1761507184822209800,0.436209716796875,0.2918028235435486,-1.1572680473327637,4.927002906799316
1761507184842366000,0.456365966796875,-0.011089956387877464,-1.678262710571289,5.3847808837890625
1761507184862521900,0.47652197265625,-0.17244349420070648,-0.24911223351955414,4.049471855163574
1761507184882679000,0.496678955078125,-0.23966197669506073,0.13590316474437714,0.973236083984375
1761507184902835000,0.5168349609375,0.19237370789051056,0.4013293385505676,-0.5185031890869141
1761507184922991000,0.5369912109375,0.35572201013565063,0.6332002878189087,-0.7536774277687073
1761507184943147500,0.5571474609375,0.014296057634055614,0.5549742579460144,-1.0553821325302124
1761507184963303400,0.577303466796875,-0.20915967226028442,0.5106621980667114,-1.6643788814544678
1761507184983459300,0.597459228515625,-0.3191252648830414,1.3409733772277832,-1.4672095775604248
1761507185003616300,0.6176162109375,-0.17775219678878784,1.7610632181167603,-0.811439037322998
1761507185023772200,0.637772216796875,-0.25812581181526184,1.6347297430038452,-0.4753165543079376
1761507185043928300,0.65792822265625,-0.7185690999031067,1.4478400945663452,-0.28532806038856506
1761507185064085200,0.678085205078125,-0.9594230651855469,1.2798678874969482,-0.5230794548988342
1761507185084241400,0.698241455078125,-1.2699203491210938,1.371146559715271,-0.7632933855056763
1761507185104397300,0.718397216796875,-1.4190492630004883,1.3610436916351318,-0.9732729196548462
1761507185124554500,0.738554443359375,-1.3663270473480225,1.3137098550796509,-0.9494596719741821
1761507185144710400,0.75871044921875,-0.7455124258995056,0.854529857635498,-0.8762087225914001
1761507185164866300,0.7788662109375,-0.07816680520772934,-0.20432595908641815,-1.0303488969802856
1761507185185023200,0.799023193359375,0.45361799001693726,-0.6020452976226807,-1.2963876724243164
1761507185205179100,0.81917919921875,0.8324124217033386,0.6287634372711182,-0.46799999475479126
1761507185225335300,0.839335205078125,1.2028528451919556,0.4627469778060913,0.6126108765602112
1761507185245492200,0.8594921875,1.2290929555892944,-1.007112741470337,0.7761209011077881
1761507185265648400,0.8796484375,0.391245573759079,-2.239515542984009,1.0017813444137573
1761507185285805300,0.899805419921875,-0.1908179521560669,-3.0683135986328125,1.3421082496643066
1761507185305961500,0.91996142578125,-0.07881134748458862,-2.9320595264434814,1.760024905204773
1761507185326117400,0.940117431640625,0.16718900203704834,-1.6935993432998657,1.0721485614776611
1761507185346274300,0.9602744140625,0.49236297607421875,0.14741531014442444,0.5237624645233154
1761507185366430200,0.98043017578125,1.0402146577835083,1.4846971035003662,-0.1606435328722
1761507185386586000,1.000586181640625,1.1534483432769775,2.0873918533325195,-1.0101264715194702
1761507185406743300,1.020743408203125,0.4554285407066345,1.9939364194869995,-2.091735363006592
1761507185426899200,1.040899169921875,-0.20164285600185394,1.1286159753799438,-2.9499826431274414
1761507185447055400,1.061055419921875,-0.6021559238433838,0.37122631072998047,-3.4874818325042725
1761507185467212300,1.08121240234375,-1.082065224647522,0.6668215990066528,-3.8594841957092285
1761507185487368400,1.101368408203125,-1.428208589553833,1.504264235496521,-4.013336181640625
1761507185507524400,1.1215244140625,-1.1566537618637085,2.1142773628234863,-3.5571305751800537
1761507185527681300,1.141681396484375,-0.5494353175163269,2.1593306064605713,-2.485872507095337
1761507185547837200,1.161837158203125,0.043089814484119415,1.7099428176879883,-1.2860991954803467
1761507185567993300,1.181993408203125,0.5649934411048889,1.529067873954773,0.054342448711395264
1761507185588150300,1.202150390625,0.9366923570632935,1.2924782037734985,1.199517011642456
1761507185608306400,1.222306396484375,0.6837900280952454,0.5555240511894226,1.5617057085037231
1761507185628463400,1.24246337890625,0.023678703233599663,-0.12094420194625854,1.4226595163345337
1761507185648619500,1.26261962890625,-0.5509385466575623,-0.47497788071632385,1.4157716035842896
1761507185668775400,1.282775390625,-0.7506586909294128,-0.7093254327774048,1.8715298175811768
1761507185688932400,1.302932373046875,-0.4870240390300751,-0.8858147859573364,2.6869421005249023
1761507185709088300,1.323088134765625,0.01763647049665451,-1.3039352893829346,3.1473169326782227
1761507185729244200,1.343244140625,0.23900559544563293,-1.5158504247665405,3.1101527214050293
1761507185749401300,1.3634013671875,0.3789534270763397,-1.404212236404419,2.824209690093994
1761507185769557200,1.38355712890625,0.5861724019050598,-1.6104958057403564,2.569153308868408
1761507185789713400,1.40371337890625,0.23443596065044403,-1.880208969116211,2.5365488529205322
1761507185809870300,1.423870361328125,-0.4691932499408722,-1.867283582687378,2.3171958923339844
1761507185830026500,1.444026611328125,-1.6067614555358887,-2.7821929454803467,1.8106341361999512
1761507185850182400,1.464182373046875,-1.9129124879837036,-3.204909086227417,1.5539720058441162
1761507185870339300,1.48433935546875,-1.3521184921264648,-2.2377679347991943,1.6965581178665161
1761507185890495200,1.5044951171875,-0.18790747225284576,0.17524860799312592,1.642570972442627
1761507185910651100,1.524651123046875,0.6717239022254944,1.1731116771697998,0.653922438621521
1761507185930808300,1.544808349609375,1.0846796035766602,1.2253683805465698,-1.0089753866195679
1761507185950965200,1.56496533203125,1.3390206098556519,0.7181020975112915,-2.5087602138519287
1761507185971122200,1.5851220703125,1.4232085943222046,0.6911141872406006,-3.4707415103912354
1761507185991278000,1.605278076171875,0.41343286633491516,0.9840619564056396,-4.311428546905518
1761507186011434200,1.625434326171875,0.3423878252506256,1.7181975841522217,-3.7594528198242188
1761507186031591200,1.645591064453125,0.7645379900932312,1.6391574144363403,-1.760664701461792
1761507186051747300,1.665747314453125,0.9527906775474548,0.48692160844802856,-0.693220317363739
1761507186071903200,1.6859033203125,0.8232074975967407,-0.09103849530220032,-0.7618510723114014
1761507186092060400,1.706060302734375,0.6541078686714172,0.11681245267391205,-1.0856719017028809
1761507186112216300,1.72621630859375,0.6091428399085999,0.4372482895851135,-1.155087947845459
1761507186132372200,1.746372314453125,0.6191921830177307,0.7278029918670654,-0.8351632952690125
1761507186152529200,1.766529052734375,0.6658803224563599,1.0393422842025757,-0.24051974713802338
1761507186172685000,1.78668505859375,0.3134760856628418,0.7748563885688782,-0.08197776973247528
1761507186192841200,1.80684130859375,-0.05436151102185249,0.1652262657880783,0.14487774670124054
1761507186212998100,1.826998046875,0.14477039873600006,-0.6732558608055115,0.520806074142456
1761507186233154300,1.847154296875,0.24354206025600433,-0.5503444671630859,0.8494859337806702
1761507186253311200,1.867311279296875,0.5706742405891418,0.5492196679115295,1.2083767652511597
1761507186273467400,1.88746728515625,0.7972031831741333,0.9350524544715881,1.4953466653823853
1761507186293623300,1.907623291015625,0.8029340505599976,0.3140249252319336,1.5839430093765259
1761507186313780200,1.9277802734375,1.1966146230697632,-0.0031564775854349136,2.0215516090393066
1761507186333936000,1.94793603515625,1.0479884147644043,-0.02486634999513626,2.3000802993774414
1761507186354092000,1.968092041015625,0.628040611743927,-0.9076312184333801,1.5106699466705322
1761507186374249200,1.988249267578125,0.24984385073184967,-1.2714040279388428,0.33110731840133667
1761507186394405000,2.008405029296875,0.5626177191734314,-0.32246607542037964,-0.12523867189884186
1761507186414561300,2.028561279296875,0.8164956569671631,0.7859766483306885,-0.16776831448078156
1761507186434718200,2.04871826171875,0.48227909207344055,1.0741218328475952,-0.4538309872150421
1761507186454874400,2.068874267578125,-0.1212666928768158,0.6798253059387207,-0.9092322587966919
1761507186475031000,2.089031005859375,-0.25286006927490234,0.2714488208293915,-1.0390515327453613
1761507186495187200,2.109187255859375,-0.1206502914428711,0.34063515067100525,-1.1439181566238403
1761507186515343000,2.129343017578125,-0.00494937039911747,0.5950517058372498,-1.1988823413848877
1761507186535500300,2.149500244140625,0.17063871026039124,0.8069128394126892,-0.8045151233673096
1761507186555656200,2.16965625,0.3534145653247833,0.6380945444107056,-0.275489866733551
1761507186575812000,2.18981201171875,0.4030900001525879,0.3590604364871979,-0.018028922379016876
1761507186595969300,2.20996923828125,0.3992083966732025,0.23997274041175842,-0.036515358835458755
1761507186616125200,2.230125244140625,0.2780109941959381,0.08919380605220795,-0.3945372700691223
1761507186636281300,2.25028125,0.06553678959608078,0.2232629954814911,-0.6885375380516052
1761507186656438000,2.27043798828125,-0.0829712450504303,0.4786294996738434,-0.6682417988777161
1761507186676594200,2.29059423828125,-0.16821105778217316,0.40756598114967346,-0.5526837706565857
1761507186696751000,2.310751220703125,-0.15987743437290192,-0.016326462849974632,-0.5417002439498901
1761507186716907300,2.3309072265625,-0.18678848445415497,-0.455340176820755,-0.2939005196094513
1761507186737063200,2.351063232421875,-0.2572992742061615,-0.815954864025116,0.16531886160373688
1761507186757220400,2.371220458984375,-0.2354307919740677,-1.6614423990249634,0.6557185053825378
1761507186777376300,2.391376220703125,0.030357038602232933,-2.684208869934082,1.031702995300293
1761507186797532400,2.411532470703125,0.15575911104679108,-2.738028049468994,1.4846479892730713
1761507186817689000,2.431689208984375,-0.08481261134147644,-1.5861395597457886,2.3464505672454834
1761507186837845200,2.45184521484375,-0.1579764187335968,-1.3635584115982056,2.5001394748687744
1761507186858001200,2.472001220703125,-0.23206765949726105,-1.3538093566894531,1.3422532081604004
1761507186878158300,2.492158447265625,-0.15134282410144806,-0.3461689054965973,0.35709524154663086
1761507186898314200,2.512314208984375,-0.16238068044185638,0.7938746213912964,-0.3396458029747009
1761507186918471400,2.532471435546875,-0.1623736321926117,1.1618566513061523,-1.2341434955596924
1761507186938627300,2.55262744140625,-0.1444329172372818,1.1732678413391113,-1.9834237098693848
1761507186958783200,2.572783203125,-0.2323990911245346,0.9773985743522644,-2.233320713043213
1761507186978940200,2.592940185546875,-0.4192366302013397,0.6358031630516052,-2.1276278495788574
1761507186999096000,2.613095947265625,-0.41340216994285583,0.9012758135795593,-1.9972875118255615
1761507187019252000,2.633251953125,-0.39163970947265625,0.5578426718711853,-1.3360360860824585
1761507187039409200,2.6534091796875,-0.585874617099762,-0.3669183552265167,-0.08057035505771637
1761507187059565000,2.67356494140625,-0.8587065935134888,-1.0059350728988647,0.8033542037010193
1761507187079722200,2.69372216796875,-0.8732420206069946,-0.9383812546730042,1.2397621870040894
1761507187099878100,2.713878173828125,-0.7626577019691467,-0.1823502779006958,0.6065666675567627
1761507187120034300,2.734034423828125,-0.7451002597808838,0.6503686904907227,-0.5551562309265137
1761507187140191000,2.75419091796875,-0.753156840801239,1.158087968826294,-0.9238143563270569
1761507187160347100,2.77434716796875,-0.8563779592514038,1.1854074001312256,-0.5318478345870972
1761507187180503000,2.7945029296875,-1.0230666399002075,0.7152695655822754,0.16129820048809052
1761507187200660200,2.81466015625,-1.1028392314910889,0.16577181220054626,0.8152920603752136
1761507187220816100,2.834816162109375,-0.9827988743782043,-0.21569618582725525,0.9971985220909119
1761507187240973300,2.854973388671875,-0.5975030660629272,-0.17229485511779785,1.0663422346115112
1761507187261129200,2.875129150390625,-0.2441352754831314,0.015800338238477707,1.268209457397461
1761507187281285400,2.895285400390625,-0.5276406407356262,-0.44319915771484375,1.2088998556137085
1761507187301442000,2.915442138671875,-1.460691213607788,-1.5985645055770874,0.7341339588165283
1761507187321598200,2.93559814453125,-1.9115898609161377,-2.4218339920043945,0.12968893349170685
1761507187341754000,2.955754150390625,-1.3008537292480469,-2.123420000076294,-0.5068153738975525
1761507187361911000,2.9759111328125,-0.18747790157794952,-1.2302980422973633,-1.196836233139038
1761507187382067200,2.996067138671875,0.15781770646572113,-0.6653172373771667,-2.773754835128784
1761507187402224000,3.01622412109375,0.4952704906463623,0.6197209358215332,-2.999511480331421
1761507187422380300,3.03638037109375,0.8403164744377136,1.444625973701477,-2.053990364074707
1761507187442536200,3.0565361328125,0.8628953099250793,0.592856228351593,-1.0476629734039307
1761507187462693000,3.076693115234375,0.668550431728363,-0.7533581852912903,-0.23118992149829865
1761507187482849000,3.09684912109375,0.29704686999320984,-1.1199469566345215,0.2464962899684906
1761507187503005200,3.117005126953125,0.12289387732744217,0.009517211467027664,0.5162399411201477
1761507187523162000,3.137162109375,-0.020818186923861504,1.1372872591018677,0.49484169483184814
1761507187543318300,3.157318359375,-0.12697768211364746,1.2048929929733276,0.6375612020492554
1761507187563475200,3.17747509765625,-0.29595139622688293,0.4491657018661499,0.9483593702316284
1761507187583631400,3.19763134765625,-0.3428170084953308,-0.04654194042086601,1.1214646100997925
1761507187603787300,3.217787353515625,-0.20990274846553802,0.00038613099604845047,0.9913091063499451
1761507187623944200,3.237944091796875,-0.00919441506266594,0.1804211139678955,0.4470839500427246
1761507187644100000,3.25810009765625,0.36538854241371155,0.5200158357620239,-0.33718442916870117
1761507187664257300,3.27825732421875,0.5150135159492493,1.023146152496338,-0.8247807621955872
1761507187684413200,3.2984130859375,0.5792486071586609,1.20555579662323,-0.5625976920127869
1761507187704569000,3.318569091796875,0.7386574149131775,1.101404070854187,0.24375934898853302
1761507187724726300,3.338726318359375,0.8781789541244507,0.9857943058013916,0.9140775203704834
1761507187744882200,3.358882080078125,0.8848299980163574,0.9850744009017944,1.2029101848602295
1761507187765038300,3.379038330078125,0.8123685717582703,1.174835443496704,1.23334801197052
1761507187785195000,3.399195068359375,0.8458678722381592,0.619288980960846,0.8489112854003906
1761507187805351200,3.41935107421875,1.0495492219924927,0.21714717149734497,1.1676594018936157
1761507187825508000,3.439508056640625,1.2719742059707642,1.069231629371643,2.5294971466064453
1761507187845664300,3.459664306640625,1.3892462253570557,1.7491079568862915,3.529021739959717
1761507187865820200,3.479820068359375,1.3778077363967896,1.4886407852172852,3.293362855911255
1761507187885977300,3.499977294921875,1.412485122680664,1.3289140462875366,2.4102885723114014
1761507187906133200,3.52013330078125,1.3968119621276855,1.0713388919830322,1.2201353311538696
1761507187926290200,3.540290283203125,0.9650043249130249,0.5131908059120178,0.1178944781422615
1761507187946445800,3.56044580078125,0.48529884219169617,0.4170350134372711,-0.857884407043457
1761507187966601700,3.580601806640625,0.39434516429901123,0.274396687746048,-1.6002277135849
1761507187986758700,3.600758544921875,0.4524224102497101,-0.3337717354297638,-1.9120603799819946
1761507188006914800,3.620914794921875,0.3268064856529236,-0.577396035194397,-2.018174171447754
1761507188027071700,3.64107177734375,-0.07029843330383301,-0.21204614639282227,-1.8787654638290405
1761507188047228000,3.661227783203125,-0.24098439514636993,0.04821116104722023,-1.2735371589660645
1761507188067383800,3.6813837890625,-0.44955992698669434,0.05012483149766922,-0.4373423755168915
1761507188087541000,3.701541015625,-0.9168071150779724,-0.03428476303815842,0.26542750000953674
1761507188107697000,3.72169677734375,-1.3016833066940308,-0.025637928396463394,0.8196584582328796
1761507188127852800,3.741852783203125,-1.4719594717025757,0.2079913467168808,1.191990613937378
1761507188148009700,3.762009765625,-1.5189865827560425,0.3129886984825134,1.0839753150939941
1761507188168165600,3.78216552734375,-1.454545497894287,0.27380409836769104,0.5951899290084839
1761507188188322800,3.80232275390625,-1.3090394735336304,0.36657413840293884,-0.03384477645158768
1761507188208478700,3.822478759765625,-1.1900306940078735,0.41024041175842285,-0.4885857403278351
1761507188228635000,3.842634765625,-1.2378435134887695,0.19739234447479248,-0.4268767237663269
1761507188248791800,3.862791748046875,-1.0318565368652344,-0.1355818510055542,0.13985611498355865
1761507188268947700,3.88294775390625,-0.7179458141326904,-0.02102435752749443,0.8038049340248108
1761507188289104600,3.903104736328125,-0.7982217073440552,-0.16758497059345245,0.44767946004867554
1761507188309260800,3.9232607421875,-0.8102787137031555,0.08685611933469772,-0.04808628559112549
1761507188329416700,3.943416748046875,-0.19716371595859528,1.54259192943573,0.6667526960372925
1761507188349574000,3.963573974609375,1.0968754291534424,2.1947813034057617,1.8137212991714478
1761507188369729800,3.983729736328125,1.8276176452636719,1.5167587995529175,2.392080307006836
1761507188389884700,4.003884765625,1.8228201866149902,0.9598700404167175,2.432778835296631
1761507188410041900,4.024041748046875,1.6010509729385376,0.9022394418716431,1.8392682075500488
1761507188430197800,4.04419775390625,1.9714980125427246,1.8679070472717285,0.8868611454963684
1761507188450354000,4.06435400390625,2.346867084503174,2.602323532104492,0.42449718713760376
1761507188470510800,4.0845107421875,2.3129520416259766,2.2838497161865234,0.75408935546875
1761507188490666800,4.104666748046875,1.4220560789108276,1.2035186290740967,1.1829421520233154
1761507188510822700,4.12482275390625,0.42400094866752625,0.1253432184457779,1.1930630207061768
1761507188530979800,4.144979736328125,0.01271071471273899,-0.2444777488708496,0.8567039966583252
1761507188551135700,4.1651357421875,-0.28619304299354553,-0.27829083800315857,0.4328782260417938
1761507188571293000,4.18529296875,-0.5905513763427734,-0.1276617795228958,0.13545843958854675
1761507188591448800,4.20544873046875,-1.116095781326294,-0.3640865683555603,-0.25322186946868896
1761507188611604700,4.225604736328125,-1.9093722105026245,-0.7579092979431152,-0.6897086501121521
1761507188631761700,4.24576171875,-2.5464446544647217,-0.14522935450077057,-1.4534828662872314
1761507188651917600,4.26591748046875,-2.5151140689849854,0.4282833933830261,-2.2344839572906494
1761507188672074800,4.28607470703125,-2.0940728187561035,-0.6626610159873962,-2.689648389816284
1761507188692230700,4.306230712890625,-1.5059247016906738,-2.128929853439331,-2.7335729598999023
1761507188712386800,4.32638671875,-1.0174908638000488,-2.866628646850586,-2.3584706783294678
1761507188732543700,4.346543701171875,-0.4561428427696228,-2.503356456756592,-1.3838557004928589
1761507188752700000,4.366699951171875,0.13775752484798431,-2.209500789642334,-0.6525313854217529
1761507188772856800,4.38685693359375,0.5288000702857971,-2.065685510635376,-0.11066210269927979
1761507188793014800,4.407014892578125,0.8763071298599243,-2.255988836288452,0.29062336683273315
1761507188813172000,4.427171875,0.8396298289299011,-2.689347982406616,0.05823950096964836
1761507188833327900,4.447327880859375,0.878085196018219,-2.3720970153808594,-0.06055820733308792
1761507188853484800,4.46748486328125,1.1310081481933594,-2.1560049057006836,0.3972885310649872
1761507188873640700,4.487640625,1.5230140686035156,-2.4123153686523438,1.1979751586914062
1761507188893796900,4.507796875,1.6540343761444092,-2.3169801235198975,1.8400530815124512
1761507188913953800,4.527953857421875,1.449349045753479,-1.649957299232483,1.3624690771102905
1761507188934109700,4.548109619140625,0.9173175096511841,-0.9453642964363098,0.30387258529663086
1761507188954267100,4.56826708984375,0.425977885723114,-0.4098118245601654,-0.18492743372917175
1761507188974423300,4.58842333984375,-0.146832674741745,-0.13105539977550507,-0.45745617151260376
1761507188994579200,4.6085791015625,-0.7026737928390503,-0.04224270209670067,-0.6505465507507324
1761507189014736100,4.628736083984375,-0.8129615187644958,0.2244710624217987,-0.5902025699615479
1761507189034892300,4.648892333984375,-0.3354107141494751,0.7436224222183228,-0.47833073139190674
1761507189055049200,4.66904931640625,0.48435962200164795,0.9517090916633606,-0.14930976927280426
1761507189075205400,4.689205322265625,0.989963710308075,0.7798328399658203,0.21903984248638153
1761507189095361300,4.709361328125,0.8609281182289124,0.6546977758407593,0.29844406247138977
1761507189115518200,4.729518310546875,0.38021954894065857,0.6734092235565186,0.14430966973304749
1761507189135674000,4.749674072265625,-0.19559265673160553,0.7401894330978394,0.06924226880073547
1761507189155831300,4.769831298828125,-0.45393288135528564,0.9836611747741699,0.30793365836143494
1761507189175987200,4.7899873046875,-0.34447699785232544,1.2572773694992065,0.44648444652557373
1761507189196143000,4.81014306640625,-0.11999388784170151,1.1155729293823242,0.2964783310890198
1761507189216300300,4.83030029296875,0.082496777176857,0.980232834815979,0.12985669076442719
1761507189236456200,4.850456298828125,0.226545512676239,1.0572352409362793,0.07428251206874847
1761507189256613400,4.87061328125,0.1934427171945572,0.6731316447257996,-0.11598116159439087
1761507189276769300,4.890769287109375,-0.13743317127227783,-0.16520249843597412,-0.40495365858078003
1761507189296925200,4.91092529296875,-0.18059353530406952,-0.766308069229126,-0.41673046350479126
1761507189317082000,4.93108203125,-0.02397608570754528,-0.7572792768478394,-0.4357464015483856
1761507189337238300,4.95123828125,0.5131473541259766,-0.39599692821502686,-0.7978634238243103
1761507189357395200,4.971395263671875,0.8033317923545837,-0.1981378048658371,-1.313449501991272
1761507189377551400,4.99155126953125,0.641506552696228,-0.5242964625358582,-1.9459795951843262
1761507189397707300,5.011707275390625,0.499237596988678,-0.8744287490844727,-1.996259331703186
1761507189417864400,5.031864501953125,0.8037151098251343,-0.8799546360969543,-1.3550326824188232
1761507189438020400,5.052020263671875,1.123052954673767,-0.9921389818191528,-0.7634264230728149
1761507189458177300,5.07217724609375,0.9297082424163818,-1.1944303512573242,-0.49919044971466064
1761507189478333200,5.092333251953125,0.25634050369262695,-1.1533178091049194,-0.5482269525527954
1761507189498489000,5.112489013671875,-0.31902092695236206,-0.562412440776825,-0.6823858618736267
1761507189518646300,5.132646240234375,-0.5706110596656799,0.17889556288719177,-0.5222427248954773
1761507189538802200,5.15280224609375,-0.46029651165008545,0.48537734150886536,-0.030844146385788918
1761507189558959400,5.17295947265625,-0.1962175965309143,0.4568631947040558,0.2578980326652527
1761507189579115300,5.193115234375,-0.2345292866230011,0.3019847571849823,-0.07707972824573517
1761507189599272200,5.213272216796875,-0.6148229837417603,0.1985272318124771,-0.5835791230201721
1761507189619428000,5.233427978515625,-1.0570528507232666,0.20965351164340973,-0.8374097943305969
1761507189639584300,5.253584228515625,-1.1777108907699585,0.23902837932109833,-0.6815703511238098
1761507189659741200,5.2737412109375,-0.8505553603172302,0.2592642903327942,-0.19032810628414154
1761507189679897300,5.2938974609375,-0.5169455409049988,0.10784384608268738,0.006828010082244873
1761507189700054300,5.31405419921875,-0.46604040265083313,0.04229659587144852,0.10683036595582962
1761507189720210400,5.33421044921875,-0.46597737073898315,0.32198768854141235,0.5940021276473999
1761507189740366300,5.354366455078125,-0.046671442687511444,0.6226275563240051,0.8940024971961975
1761507189760523300,5.374523193359375,0.17274534702301025,0.546268105506897,0.2563467025756836
1761507189780679200,5.39467919921875,0.03622192516922951,0.23329749703407288,0.03900287300348282
1761507189800836400,5.41483642578125,-0.041916728019714355,-0.02488882467150688,0.6800675988197327
1761507189820992300,5.4349921875,0.1273082047700882,-0.30682089924812317,1.0435161590576172
1761507189841148200,5.455148193359375,0.2769043743610382,-0.5525705814361572,0.8664824366569519
1761507189861305300,5.475305419921875,0.19656923413276672,-0.5452242493629456,0.3069136142730713
1761507189881461200,5.495461181640625,0.3771349787712097,0.15058362483978271,0.25722047686576843
1761507189901618200,5.5156181640625,0.6983445882797241,0.8923357129096985,0.37357258796691895
1761507189921774000,5.535774169921875,0.7185407280921936,0.9628586173057556,0.23758183419704437
1761507189941930200,5.55593017578125,0.39794763922691345,0.46120351552963257,-0.24139022827148438
1761507189962087200,5.576087158203125,0.09477623552083969,0.14907968044281006,-0.4341963529586792
1761507189982243000,5.5962431640625,0.12927357852458954,0.30838456749916077,0.10816305875778198
1761507190002400300,5.616400146484375,0.2854800522327423,0.5240497589111328,0.5996747612953186
1761507190022556200,5.63655615234375,0.3315478563308716,0.6623604893684387,0.6694071888923645
1761507190042713000,5.656713134765625,0.36765897274017334,0.6008844375610352,0.5231199860572815
1761507190062869000,5.676868896484375,0.323513001203537,0.3885982036590576,0.3424021005630493
1761507190083025200,5.697025146484375,0.03780360147356987,0.13097548484802246,0.16951139271259308
1761507190103182000,5.71718212890625,-0.4147769510746002,-0.04788048192858696,-0.05320008099079132
1761507190123338200,5.737338134765625,-0.6779437065124512,-0.006791963707655668,-0.24454033374786377
1761507190143495200,5.7574951171875,-0.7608665823936462,0.10792297124862671,-0.38798943161964417
1761507190163651300,5.7776513671875,-0.7053335905075073,0.25701433420181274,-0.4414767324924469
1761507190183807200,5.79780712890625,-0.6581688523292542,0.40847140550613403,-0.43572601675987244
1761507190203964200,5.817964111328125,-0.5690818428993225,0.22598904371261597,-0.25855809450149536
1761507190224120000,5.8381201171875,-0.33920323848724365,-0.18083438277244568,0.28308355808258057
1761507190244277200,5.85827734375,-0.3877676725387573,-0.89410001039505,0.45921483635902405
1761507190264433200,5.87843310546875,-0.584898054599762,-1.9145238399505615,0.33291539549827576
1761507190284589300,5.89858935546875,-0.4401797354221344,-2.047555923461914,1.0481926202774048
1761507190304746200,5.918746337890625,-0.48052409291267395,-1.104361653327942,1.4847280979156494
1761507190324902400,5.93890234375,-0.5813993811607361,-0.7711016535758972,0.55031418800354
1761507190345059000,5.95905908203125,-0.4117882251739502,-0.40069717168807983,0.013107232749462128
1761507190365215000,5.979215087890625,-0.1816171258687973,-0.19453708827495575,0.12970800697803497
1761507190385372200,5.9993720703125,-0.2305653989315033,-0.664675772190094,0.28002601861953735
1761507190405528000,6.019528076171875,-0.3961013853549957,-1.3278779983520508,0.41772451996803284
1761507190425684200,6.039684326171875,-0.5358179807662964,-1.000098466873169,-0.008674830198287964
1761507190445841200,6.059841064453125,-0.21774153411388397,0.15784987807273865,-0.48925134539604187
1761507190465997300,6.079997314453125,0.36993208527565,0.6390072703361511,-0.21744190156459808
1761507190486154000,6.100154052734375,0.4261452555656433,0.28008702397346497,0.42266038060188293
1761507190506310100,6.12031005859375,0.17961563169956207,-0.2717515826225281,0.6615845561027527
1761507190526466000,6.140466064453125,0.028952470049262047,-0.3657922148704529,0.5516552925109863
1761507190546623200,6.160623291015625,-0.12784309685230255,-0.11155377328395844,-0.19746670126914978
1761507190566779100,6.180779052734375,-0.09258261322975159,0.1741717904806137,-0.8366020321846008
1761507190586936300,6.200936279296875,0.09195926785469055,0.1021154373884201,-0.884032666683197
1761507190607092200,6.22109228515625,0.053815893828868866,-0.41138768196105957,-0.865989625453949
1761507190627248400,6.241248291015625,0.04793057590723038,-0.7038483023643494,-1.0200958251953125
1761507190647405000,6.261405029296875,0.3222113251686096,-0.14721453189849854,-1.387073278427124
1761507190667561200,6.281561279296875,0.6556212306022644,0.6687426567077637,-1.5212631225585938
1761507190687718100,6.30171826171875,0.9023628830909729,0.772024393081665,-0.8194324970245361
1761507190707874000,6.3218740234375,1.0622992515563965,0.45558515191078186,0.3461606800556183
1761507190728031200,6.34203125,0.9783248901367188,0.17227092385292053,0.7377009987831116
1761507190748187100,6.362187255859375,0.7537106871604919,0.02701258659362793,0.553555428981781
1761507190768343300,6.38234326171875,0.4920903444290161,-0.05445033684372902,0.6653598546981812
1761507190788500000,6.4025,0.24852636456489563,-0.4031377136707306,0.6274323463439941
1761507190808656100,6.42265625,-0.03637323155999184,-0.6609818339347839,-0.13399595022201538
1761507190828813000,6.44281298828125,-0.18059737980365753,-0.8169958591461182,-1.3395183086395264
1761507190848969200,6.46296923828125,-0.12876421213150024,-0.21349652111530304,-1.8271052837371826
1761507190869125000,6.483125,0.10434409230947495,0.12315022200345993,-1.4966742992401123
1761507190889282300,6.5032822265625,0.08881150186061859,-0.30261164903640747,-0.9593852162361145
1761507190909438200,6.523438232421875,-0.1804703027009964,-1.06583571434021,-0.5721588730812073
1761507190929595100,6.54359521484375,-0.16450661420822144,-1.2449886798858643,-0.5187609195709229
1761507190949750800,6.563750732421875,0.21649661660194397,-0.8840834498405457,-0.5684714317321777
1761507190969907700,6.58390771484375,0.6398829817771912,-0.35591307282447815,-0.6920635104179382
1761507190990063900,6.60406396484375,0.8267706632614136,0.30015406012535095,-0.7100551724433899
1761507191010219800,6.6242197265625,0.9139233827590942,0.7667570114135742,-0.5950218439102173
1761507191030377000,6.644376953125,0.8941054940223694,0.9428425431251526,-0.49557530879974365
1761507191050532900,6.664532958984375,0.5784265995025635,0.7792989015579224,-0.1383020579814911
1761507191070689800,6.684689697265625,0.2046910971403122,0.1597427874803543,0.37217602133750916
1761507191090845700,6.704845703125,-0.04835032671689987,-0.29748862981796265,0.5425735712051392
1761507191111001900,6.725001953125,-0.13503603637218475,-0.12921729683876038,0.12981364130973816
1761507191131158800,6.74515869140625,-0.023173807188868523,0.42343735694885254,-0.29813987016677856
1761507191151314700,6.765314697265625,0.1767626255750656,0.864761471748352,-0.3243939280509949
1761507191171472000,6.785471923828125,0.3140208423137665,1.068132996559143,-0.07776348292827606
1761507191191627800,6.805627685546875,0.3323800563812256,1.038469910621643,-0.0037314146757125854
1761507191211785000,6.825784912109375,0.47678399085998535,1.014291524887085,0.05424928665161133
1761507191231940900,6.84594091796875,0.8715982437133789,0.8546038866043091,-0.05427437275648117
1761507191252096800,6.8660966796875,1.296566367149353,0.21949821710586548,-0.4262635111808777
1761507191272253700,6.886253662109375,1.2827469110488892,-0.8831585049629211,-0.4299890100955963
1761507191292409900,6.906409912109375,0.027403749525547028,-1.845199704170227,-0.014271046034991741
1761507191312566800,6.92656689453125,-0.959210216999054,-2.3381388187408447,0.30776822566986084
1761507191332723000,6.946722900390625,-0.9001964926719666,-2.4079740047454834,-0.2995424270629883
1761507191352878800,6.96687890625,0.18881943821907043,-0.8938658237457275,-0.593712568283081
1761507191373036000,6.9870361328125,0.8260109424591064,0.7390794157981873,-0.817600667476654
1761507191393192000,7.00719189453125,0.157488614320755,2.4889678955078125,-0.6336237192153931
1761507191413348900,7.027348876953125,-0.48483726382255554,0.5660452842712402,-0.07928092032670975
1761507191433504800,7.0475048828125,-1.0706202983856201,-1.549139142036438,0.9572797417640686
1761507191453662000,7.067661865234375,-0.992559552192688,-1.7873650789260864,1.6299415826797485
1761507191473817900,7.08781787109375,-0.19635866582393646,-1.1059261560440063,1.343186378479004
1761507191493973800,7.107973876953125,0.5632984042167664,0.11897611618041992,0.7088041305541992
1761507191514131000,7.128130859375,0.8677293062210083,0.9399802088737488,0.6168454885482788
1761507191534286800,7.148286865234375,1.1001837253570557,1.191689133644104,0.701042890548706
1761507191554443800,7.16844384765625,1.0011265277862549,0.9133086800575256,0.4143916964530945
1761507191574599700,7.188599609375,0.48856186866760254,0.6161648035049438,-0.12014628201723099
1761507191594755800,7.208755859375,0.03841172903776169,0.4700703024864197,-0.2135498821735382
1761507191614912800,7.228912841796875,-0.14732626080513,0.3334175646305084,-0.02098909579217434
1761507191635069000,7.24906884765625,-0.2531832158565521,0.3023165464401245,-0.02713949605822563
1761507191655225900,7.269225830078125,-0.24493035674095154,0.2524782121181488,-0.03185286745429039
1761507191675382000,7.289382080078125,-0.004004649352282286,0.3199567198753357,0.5305540561676025
1761507191695538700,7.30953857421875,0.36167991161346436,0.5042770504951477,0.8523751497268677
1761507191715694800,7.32969482421875,0.6532521843910217,0.8186842799186707,0.5094696283340454
1761507191735850800,7.349850830078125,0.7788773775100708,0.2595551013946533,0.25701290369033813
1761507191756008000,7.370008056640625,0.6579983234405518,-0.5817795395851135,0.2786468267440796
1761507191776163800,7.390163818359375,0.07896240800619125,-0.49580147862434387,0.31353145837783813
1761507191796321000,7.410321044921875,-0.6647159457206726,0.09321580082178116,0.4111924469470978
1761507191816477000,7.430476806640625,-0.9649315476417542,-0.4506727457046509,-0.19351078569889069
1761507191836632800,7.4506328125,-0.6329498887062073,-0.23027580976486206,-0.7488415837287903
1761507191856789800,7.470789794921875,-0.09329351037740707,1.0704011917114258,-0.9135884046554565
1761507191876945700,7.490945556640625,0.0024160072207450867,1.0143769979476929,-1.0395879745483398
1761507191897102800,7.511102783203125,-0.3120638132095337,-0.01323732826858759,-0.8800122141838074
1761507191917258800,7.5312587890625,-0.6218807101249695,-0.9550886154174805,-0.5334697365760803
1761507191937416000,7.551416015625,-0.5975407958030701,-1.3011114597320557,-0.4069522023200989
1761507191957571300,7.5715712890625,-0.038362931460142136,-0.8545278310775757,-0.4299188256263733
1761507191977727500,7.5917275390625,0.34023022651672363,-0.09379096329212189,-0.40791037678718567
1761507191997884200,7.61188427734375,0.5034223794937134,0.39901211857795715,-0.3912978172302246
1761507192018040300,7.632040283203125,0.7005141377449036,0.21869784593582153,-0.13119374215602875
1761507192038197200,7.652197265625,0.7482133507728577,0.004281092435121536,0.25822877883911133
1761507192058353400,7.672353515625,0.7527612447738647,0.04529627040028572,0.3800119459629059
1761507192078510300,7.69251025390625,0.6886976957321167,-0.08233825862407684,0.4731996953487396
1761507192098666500,7.71266650390625,0.5393959283828735,-0.3493916690349579,0.48598459362983704
1761507192118822400,7.732822509765625,0.37810683250427246,-0.6917321085929871,0.45873087644577026
1761507192138979300,7.752979248046875,0.37255775928497314,-0.8332276940345764,0.6049610376358032
1761507192159135200,7.77313525390625,0.4965948760509491,-0.4416821300983429,0.6305472254753113
1761507192179292400,7.79329248046875,0.7179904580116272,-0.028780188411474228,0.6778864860534668
1761507192199448300,7.8134482421875,0.9327149391174316,-0.12146400660276413,0.0890604704618454
1761507192219604200,7.833604248046875,0.8863430619239807,-1.0460996627807617,-0.42315784096717834
1761507192239761400,7.853761474609375,0.5195180773735046,-1.0727899074554443,0.25677454471588135
1761507192259917300,7.873917236328125,0.16287408769130707,0.4146782159805298,1.648587703704834
1761507192280074200,7.89407421875,0.0020956657826900482,0.1076829805970192,1.8566503524780273
1761507192300230100,7.914230224609375,-0.2305053323507309,-0.05441766977310181,1.5624494552612305
1761507192320387300,7.93438720703125,-0.10109785944223404,0.7041696310043335,1.4493447542190552
1761507192340543200,7.954543212890625,-0.06512009352445602,0.8849889636039734,0.4939623475074768
1761507192360699400,7.974699462890625,-0.07853665202856064,0.7205204963684082,-0.2160649597644806
1761507192380854300,7.994854248046875,-0.11907395720481873,0.4684365689754486,-0.34191957116127014
1761507192401010200,8.01501025390625,-0.10969788581132889,0.0719139352440834,-0.05986960977315903
1761507192421166300,8.035166259765624,0.14133219420909882,-0.11132122576236725,0.37736839056015015
1761507192441323300,8.0553232421875,0.30158135294914246,0.20632699131965637,0.6540399789810181
1761507192461479400,8.0754794921875,0.048407960683107376,0.3791135251522064,0.7789654731750488
1761507192481636400,8.09563623046875,-0.06430534273386002,0.1448601931333542,0.8778750896453857
1761507192501792500,8.11579248046875,0.18006809055805206,-0.035281479358673096,0.8736864924430847
1761507192521948400,8.135948486328125,0.2677497863769531,0.11740915477275848,0.6872447729110718
1761507192542105300,8.156105224609375,-0.08208560198545456,0.07772411406040192,0.626229465007782
1761507192562261200,8.17626123046875,-0.37860020995140076,-0.19334185123443604,0.5880857110023499
1761507192582418400,8.19641845703125,-0.5262043476104736,-0.24640202522277832,0.33729439973831177
1761507192602574300,8.21657421875,-0.5738633275032043,-0.24906717240810394,0.08763956278562546
1761507192622731500,8.2367314453125,-0.47362035512924194,-0.27074864506721497,-0.054654013365507126
1761507192642887400,8.256887451171876,-0.314527690410614,-0.16696284711360931,-0.07666917145252228
1761507192663043300,8.277043212890625,-0.179201140999794,-0.155312642455101,0.07476150989532471
1761507192683200300,8.2972001953125,-0.20602762699127197,-0.689591646194458,0.03765219822525978
1761507192703356200,8.317356201171876,-0.15490983426570892,-1.1334308385849,-0.32675501704216003
1761507192723513300,8.337513427734375,-0.07306840270757675,1.4367871284484863,-1.7488118410110474
1761507192743669200,8.357669189453125,-0.9271791577339172,0.21986611187458038,-0.8098415732383728
1761507192763825400,8.377825439453124,-1.0890296697616577,-0.42252856492996216,-1.3135758638381958
1761507192783982300,8.397982421875,-0.756122887134552,-0.257559597492218,-2.21785831451416
1761507192804138500,8.418138427734375,-0.16740623116493225,0.7108803391456604,-1.8702538013458252
1761507192824295200,8.438295166015624,-0.02811511792242527,0.5326763391494751,-1.1025735139846802
1761507192844451300,8.458451416015626,-0.2216358184814453,-0.5517309308052063,-0.8631445169448853
1761507192864608300,8.478608154296875,-0.07257986068725586,-1.352449655532837,-0.4844318628311157
1761507192884764400,8.498764404296875,0.04699011147022247,-1.4646055698394775,-0.493868350982666
1761507192904920300,8.51892041015625,0.1568555235862732,-1.1796971559524536,-0.621458888053894
1761507192925077500,8.539077392578125,0.3944551646709442,-0.5632739663124084,-0.3524490296840668
1761507192945233400,8.5592333984375,0.4574016332626343,-0.2880253493785858,0.461693674325943
1761507192965391000,8.57939111328125,0.17273496091365814,-0.24234363436698914,0.9210538864135742
1761507192985547300,8.59954736328125,-0.03693539276719093,-0.20653271675109863,0.8728500008583069
1761507193005704200,8.6197041015625,-0.08171842992305756,-0.35233548283576965,0.7934843301773071
1761507193025860400,8.6398603515625,-0.153919517993927,-0.41859662532806396,0.7353665232658386
1761507193046016300,8.660016357421876,-0.3033849000930786,-0.14540357887744904,0.6188017725944519
1761507193066173400,8.68017333984375,-0.4146691858768463,0.13354702293872833,0.4765911400318146
1761507193086329300,8.700329345703125,-0.46161261200904846,0.2633574306964874,0.3409145474433899
1761507193106486300,8.720486328125,-0.4229338467121124,0.46111825108528137,0.2105860859155655
1761507193126642200,8.74064208984375,-0.31663092970848083,0.6040834188461304,0.3132740557193756
1761507193146799400,8.76079931640625,-0.2378935068845749,0.3528321385383606,0.5152290463447571
1761507193166955300,8.780955322265624,0.032987236976623535,-0.06721467524766922,0.4618479013442993
1761507193187111200,8.801111083984376,0.16189435124397278,-0.09393758326768875,0.20111620426177979
1761507193207268400,8.821268310546875,-0.10967882722616196,-0.0038605118170380592,0.6681016683578491
1761507193227424300,8.84142431640625,-0.4565722644329071,-0.7520297765731812,0.958709180355072
1761507193247581200,8.861581298828124,-0.39705514907836914,-1.224661946296692,0.47991207242012024
1761507193267737000,8.881737060546875,-0.2960692346096039,-0.38873833417892456,-0.07203030586242676
1761507193287893200,8.901893310546875,-0.0402584932744503,0.16539934277534485,0.09099337458610535
1761507193308050200,8.92205029296875,-0.04300646856427193,0.09845611453056335,0.1480676829814911
1761507193328206300,8.942206298828125,-0.2523331642150879,-0.12101464718580246,-0.14217372238636017
1761507193348363300,8.96236328125,-0.46366989612579346,-0.06473352760076523,-0.7157458662986755
1761507193368519400,8.98251953125,-0.5409067273139954,0.2634055018424988,-1.077091932296753
1761507193388676000,9.002676025390626,-0.5875065326690674,0.37389975786209106,-0.9457542896270752
1761507193408832300,9.022832275390625,-0.6626583933830261,0.132982075214386,-0.4419373571872711
1761507193428988200,9.04298828125,-0.6630261540412903,0.09560288488864899,0.1381295770406723
1761507193449145300,9.063145263671874,-0.5510261058807373,0.2887859642505646,0.5938118696212769
1761507193469301200,9.08330126953125,-0.47894516587257385,0.2933594882488251,0.8628520965576172
1761507193489458400,9.10345849609375,-0.3935338854789734,0.12703248858451843,0.997154712677002
1761507193509614300,9.1236142578125,-0.4352540969848633,0.03388024866580963,0.809849739074707
1761507193529771300,9.143771240234376,-0.47988763451576233,-0.05181904137134552,0.5716384649276733
1761507193549927200,9.16392724609375,-0.4682328701019287,-0.18413466215133667,0.3918568193912506
1761507193570083000,9.1840830078125,-0.492419570684433,-0.17032860219478607,0.13453711569309235
1761507193590240300,9.204240234375,-0.4854311943054199,-0.08971278369426727,-0.1185101717710495
1761507193610396200,9.224396240234375,-0.30863383412361145,-0.1823243796825409,-0.16589060425758362
1761507193630553300,9.24455322265625,-0.1330379992723465,-0.28467804193496704,-0.2362581491470337
1761507193650709200,9.264709228515626,-0.05500033497810364,-0.17803378403186798,-0.046783436089754105
1761507193670865400,9.284865478515625,0.10385597497224808,-0.3047580420970917,0.4323141574859619
1761507193691022000,9.30502197265625,0.18710152804851532,-0.2060706466436386,0.5240324139595032
1761507193711178200,9.32517822265625,0.1307830959558487,-0.151431143283844,0.4541056156158447
1761507193731335200,9.345335205078126,-0.06367694586515427,-0.5212128758430481,-0.05190131813287735
1761507193751491300,9.3654912109375,-0.26526182889938354,-1.0515239238739014,-1.084029197692871
1761507193771648300,9.385648193359375,-0.09018401056528091,-0.043468356132507324,-2.0627872943878174
1761507193791804400,9.405804443359376,0.02694735676050186,0.5887786149978638,-1.6482269763946533
1761507193811960300,9.425960205078125,-0.09321603924036026,0.12695200741291046,-0.6485890746116638
1761507193832117200,9.4461171875,-0.2506961524486542,-0.6790781021118164,-0.17794518172740936
1761507193852273200,9.466273193359376,-0.14707307517528534,-0.876887321472168,-0.2665219008922577
1761507193872430300,9.486430419921875,0.16207486391067505,-0.11595725268125534,-0.7633568644523621
1761507193892586200,9.506586181640625,0.0986555889248848,0.7270875573158264,-0.9587359428405762
1761507193912743400,9.526743408203124,-0.1279142051935196,0.7870551347732544,-0.7368379831314087
1761507193932899300,9.5468994140625,-0.05082792043685913,0.6206315755844116,-0.38530871272087097
1761507193953055000,9.567054931640625,0.09071216732263565,0.11696956306695938,0.04669256508350372
1761507193973212000,9.5872119140625,0.18223322927951813,-0.31858572363853455,0.2874636948108673
1761507193993367800,9.607367919921876,0.2059270739555359,-0.34660130739212036,0.11863166093826294
1761507194013525000,9.62752490234375,0.27495497465133667,0.048976391553878784,0.05619419366121292
1761507194033681000,9.647680908203125,0.4197006821632385,0.3490873873233795,0.1621522605419159
1761507194053837000,9.667837158203126,0.45767030119895935,0.32458680868148804,0.11859866976737976
1761507194073994000,9.687993896484375,0.34397703409194946,0.15855678915977478,-0.1751406341791153
1761507194094150100,9.708150146484375,0.3462449312210083,0.131292924284935,-0.3082490861415863
1761507194114306800,9.728306884765624,0.7444770932197571,-0.11578300595283508,-0.0572672039270401
1761507194134463000,9.748462890625,1.050563931465149,-0.4709251821041107,-0.1483667492866516
1761507194154620000,9.768619873046875,0.7320749759674072,-0.4840519428253174,-0.12408703565597534
1761507194174776000,9.788776123046874,0.5491722822189331,0.5034371614456177,0.1997828185558319
1761507194194932000,9.808931884765625,0.5210911631584167,0.4852791428565979,0.40069475769996643
1761507194215089200,9.829089111328125,0.2278498262166977,0.07316869497299194,-0.6604671478271484
1761507194235245000,9.8492451171875,-0.08819596469402313,0.44297900795936584,-1.1259353160858154
1761507194255401700,9.869401611328126,-0.18901163339614868,0.6245690584182739,-0.5283811688423157
1761507194275558000,9.889557861328125,-0.2036532759666443,0.378754198551178,-0.06945175677537918
1761507194295714800,9.90971484375,-0.010048426687717438,0.14817911386489868,-0.22261345386505127
1761507194315871000,9.92987109375,0.15145540237426758,-0.06403915584087372,-0.2052648663520813
1761507194336027000,9.95002685546875,0.12436605989933014,-0.4344310164451599,0.34035974740982056
1761507194356184000,9.97018408203125,0.09073301404714584,-0.5782623887062073,1.1062963008880615
1761507194376340000,9.990340087890624,0.2092844843864441,-0.3581947684288025,1.4000599384307861
1761507194396497000,10.010496826171876,0.20752134919166565,-0.10616578906774521,1.1659040451049805
1761507194416652800,10.03065283203125,0.06462648510932922,-0.12424050271511078,0.9586693644523621
1761507194436810000,10.05081005859375,-0.09263115376234055,-0.4046937823295593,0.9135447144508362
1761507194456966000,10.0709658203125,-0.18813569843769073,-0.6006146669387817,0.763253927230835
1761507194477122000,10.0911220703125,-0.31847137212753296,-0.6446085572242737,0.5389322638511658
1761507194497279000,10.111279052734375,-0.42265942692756653,-0.5488903522491455,0.3498643636703491
1761507194517435100,10.13143505859375,-0.5943940281867981,-0.3702598512172699,0.28072813153266907
1761507194537591800,10.151591796875,-0.7371723651885986,0.1526736170053482,0.6510095000267029
1761507194557748000,10.171748046875,-0.7012118101119995,0.5316835045814514,0.8697145581245422
1761507194577903900,10.19190380859375,-0.5379147529602051,0.4899204671382904,0.7099608182907104
1761507194598061000,10.21206103515625,-0.15065428614616394,0.10886019468307495,0.6251910924911499
1761507194618217000,10.232217041015625,0.49639666080474854,0.7312037944793701,0.2109251469373703
1761507194638374000,10.252373779296875,0.7013006210327148,1.3930771350860596,-0.2691839039325714
1761507194658530000,10.272530029296876,0.3798336684703827,1.029504656791687,-0.01183427032083273
1761507194678687000,10.29268701171875,-0.05203014984726906,0.40565523505210876,0.08297277987003326
1761507194698843000,10.3128427734375,-0.09813199192285538,-0.11889806389808655,-0.08153846859931946
1761507194718998800,10.332998779296876,0.07882269471883774,-0.13948653638362885,-0.019334889948368073
1761507194739156000,10.353156005859375,0.02427026256918907,-0.5038190484046936,0.4004862308502197
1761507194759312000,10.373311767578125,-0.12482573091983795,-0.6397044658660889,0.41470426321029663
1761507194779469000,10.393468994140624,-0.09531553834676743,-0.5688790678977966,0.10951349139213562
1761507194799625000,10.413625,-0.03345610946416855,-0.6508469581604004,0.1630721241235733
1761507194819782100,10.4337822265625,-0.09231412410736084,-0.7936550974845886,0.6520694494247437
1761507194839938000,10.45393798828125,-0.18676821887493134,-0.6756850481033325,1.0847481489181519
1761507194860094000,10.474093994140626,-0.31876349449157715,-0.4138079285621643,1.2597094774246216
1761507194880251000,10.4942509765625,-0.3309752345085144,0.009631694294512272,1.1060314178466797
1761507194900407000,10.514406982421875,-0.2587171792984009,0.3635013699531555,0.9468777775764465
1761507194920564000,10.53456396484375,-0.16314338147640228,0.30136677622795105,0.7590613961219788
1761507194940720000,10.55472021484375,-0.12182706594467163,0.06640532612800598,0.4759534001350403
1761507194960876300,10.574876220703125,-0.026925144717097282,0.24619010090827942,-0.020118670538067818
1761507194981033000,10.595032958984374,0.07478981465101242,0.6921275854110718,-0.5918177366256714
1761507195001189000,10.615189208984376,0.24879564344882965,0.8387930393218994,-0.7729388475418091
1761507195021346000,10.635345947265625,0.33338016271591187,0.6485750079154968,-0.3811838924884796
1761507195041502200,10.655502197265625,0.23850470781326294,0.5026649832725525,0.12574492394924164
1761507195061659100,10.6756591796875,0.3431679904460907,0.7268776893615723,0.4099571108818054
1761507195081815300,10.695815185546875,0.44703900814056396,0.6614123582839966,0.34476786851882935
1761507195101971200,10.71597119140625,0.36478570103645325,0.5465083718299866,0.13660450279712677
1761507195122128100,10.736128173828124,0.1236523687839508,0.26590195298194885,0.889536440372467
1761507195142284000,10.756283935546875,-0.009737259708344936,-0.3107769787311554,1.5640844106674194
1761507195162441200,10.776441162109375,-0.10958697646856308,-1.0199373960494995,1.3094145059585571
1761507195182597000,10.79659716796875,-0.021549135446548462,-1.3467538356781006,-0.3185008764266968
1761507195202753000,10.8167529296875,0.49726879596710205,-0.4218406677246094,-1.6797150373458862
1761507195222910200,10.83691015625,0.8440723419189453,0.20224474370479584,-1.7393890619277954
1761507195243066000,10.857066162109374,1.005183458328247,0.47727254033088684,-1.6477867364883423
1761507195263223300,10.877223388671876,0.776306688785553,0.4174836575984955,-1.9814181327819824
1761507195283379200,10.897379150390625,0.4796358644962311,0.3396029770374298,-1.8502283096313477
