time,seconds_elapsed,z,y,x
1761431319236046800,0.113046875,0.0007115055341273546,0.002048715017735958,-0.0023813419975340366
1761431319255991800,0.13299169921875,0.000030268914997577667,0.0006803832948207855,-0.0021451194770634174
1761431319275935500,0.152935546875,0.0013560462975874543,-0.002257781568914652,-0.0013158502988517284
1761431319295880200,0.172880126953125,-0.000690228771418333,0.00016690324991941452,0.0015102977631613612
1761431319315824400,0.192824462890625,-0.0010626297444105148,-0.0011701053008437157,0.001160025130957365
1761431319335769300,0.212769287109375,-0.00017497764201834798,0.00022098468616604805,-0.001158987870439887
1761431319355714300,0.23271435546875,0.0009102331241592765,0.0003443933092057705,-0.0026775244623422623
1761431319375658200,0.252658203125,-0.0025864257477223873,0.0002072206698358059,0.0006919018924236298
1761431319395603500,0.272603515625,0.001299386378377676,0.0001712273806333542,0.001175862504169345
1761431319415547400,0.29254736328125,0.0006028202478773892,0.0022101420909166336,0.0006337175145745277
1761431319435492400,0.312492431640625,-0.003064008429646492,0.0005643297918140888,-0.0006713002221658826
1761431319455436300,0.332436279296875,-0.00026768300449475646,0.001998482272028923,-0.0007352812099270523
1761431319475381200,0.35238134765625,-0.00023787491954863071,0.000366908498108387,0.002402116544544697
1761431319495326200,0.372326171875,0.0020686951465904713,-0.0004972466267645359,-0.0016137282364070415
1761431319515270100,0.392270263671875,0.0011042674304917455,0.0016310089267790318,0.0005511522758752108
1761431319535215400,0.41221533203125,-0.0007476038881577551,-0.0002988819032907486,-0.0023151407949626446
1761431319555159300,0.4321591796875,0.00016265199519693851,-0.0011943187564611435,-0.0020447024144232273
1761431319575104300,0.452104248046875,0.00017964397557079792,-0.0031380176078528166,0.002928297035396099
1761431319595048400,0.47204833984375,-0.0010610318277031183,-0.0012673106975853443,-0.0014149853959679604
1761431319614993400,0.491993408203125,0.0030462571885436773,-0.0015298156067728996,0.0005430340534076095
1761431319634938400,0.5119384765625,-0.0009862169390544295,-0.0008706217631697655,0.00318555417470634
1761431319654882300,0.53188232421875,0.0004659139667637646,0.0014749877154827118,-0.002672934904694557
1761431319674827300,0.5518271484375,-0.0003311701584607363,-0.0004302375018596649,-0.00273338844999671
1761431319694771200,0.571771240234375,-0.0004940516664646566,-0.0009222063235938549,0.0011499705724418163
1761431319714716200,0.591716064453125,-0.0009231126750819385,0.00009016552940011024,-0.0015896315453574061
1761431319734660400,0.611660400390625,-0.0010717043187469244,0.0012513846158981323,-0.0027833885978907347
1761431319754605300,0.631605224609375,-0.0004726683837361634,-0.00016877660527825356,0.0007538890931755304
1761431319774549200,0.65154931640625,0.0008297082385979593,-0.0009361971169710159,0.00021147052757441998
1761431319794494500,0.671494384765625,-0.002795808482915163,0.0017748582176864147,-0.0009876139229163527
1761431319814439400,0.691439453125,-0.0010105612454935908,0.0005084043368697166,0.0002852297620847821
1761431319834383400,0.71138330078125,0.0010395526187494397,0.0010312646627426147,0.002161565702408552
1761431319854328300,0.731328369140625,-0.0013374094851315022,-0.0009246631525456905,0.002764171687886119
1761431319874272300,0.751272216796875,0.000026518828235566616,0.0023036603815853596,0.001765761524438858
1761431319894217200,0.77121728515625,0.00018254737369716167,-0.00019592000171542168,0.0009868453489616513
1761431319914162400,0.791162353515625,0.00020316388690844178,-0.00017732009291648865,0.0008378480561077595
1761431319934106400,0.8111064453125,-0.0003245966508984566,-0.0014731930568814278,-0.0012802332639694214
1761431319954051300,0.83105126953125,-0.0019293456571176648,0.0008349483832716942,-0.0022847841028124094
1761431319973995300,0.850995361328125,0.001551600405946374,0.0003540017642080784,0.0008484313730150461
1761431319993940500,0.8709404296875,0.0005377413472160697,0.0020318343304097652,-0.0004914697492495179
1761431320013884400,0.890884521484375,0.00040253071347251534,0.0001157103106379509,0.0006458965362980962
1761431320033829000,0.9108291015625,0.0013817037688568234,-0.0024749930016696453,0.001480535720475018
1761431320053774300,0.9307744140625,0.0020820600911974907,-0.0004280759021639824,0.00147356151137501
1761431320073718300,0.95071826171875,-0.0007536901393905282,-0.0015327269211411476,-0.0007599791861139238
1761431320093663200,0.970663330078125,-0.0006316139479167759,0.0015990682877600193,-0.0030386396683752537
1761431320113607400,0.990607421875,-0.0026868535205721855,0.0004163379780948162,-0.0019924798980355263
1761431320133552400,1.010552490234375,-0.00013920047786086798,-0.0024919025599956512,-0.0015880707651376724
1761431320153496300,1.030496337890625,-0.001208954257890582,-0.0026501049287617207,0.002771001309156418
1761431320173441500,1.050441650390625,-0.0009634682210162282,-0.001552574336528778,0.00041551562026143074
1761431320193386200,1.07038623046875,0.0008306187228299677,-0.0005143033340573311,0.0017631360096856952
1761431320213330200,1.090330078125,0.0020916706416755915,-0.0009337537921965122,-0.0031244130805134773
1761431320233275400,1.110275390625,-0.0003377791144885123,0.0003356928937137127,0.000728950253687799
1761431320253219300,1.13021923828125,-0.00007623544661328197,0.0011179069988429546,0.0016453447751700878
1761431320273164300,1.150164306640625,0.000795744068454951,-0.001086135394871235,-0.0009150256519205868
1761431320293109200,1.170109130859375,0.00004766008350998163,0.001102436799556017,-0.0003159050829708576
1761431320313053200,1.19005322265625,0.0019083467777818441,0.001942882314324379,0.0013681177515536547
1761431320332998400,1.209998291015625,-0.00009018968557938933,0.0011391779407858849,0.00005590118234977126
1761431320352942300,1.2299423828125,0.0022496599704027176,0.0002516447566449642,-0.0014109847834333777
1761431320372887000,1.249886962890625,0.00049797841347754,0.0022668479941785336,0.0015541338361799717
1761431320392831200,1.269831298828125,0.002317521721124649,-0.0003218306228518486,0.000274474557954818
1761431320412776200,1.289776123046875,0.0009564808569848537,-0.0005601420998573303,0.0003824468585662544
1761431320432721200,1.30972119140625,0.0009687839774414897,0.00015451060608029366,-0.0010492093861103058
1761431320452665300,1.329665283203125,-0.00093353126430884,0.0013257344253361225,0.002293996512889862
1761431320472610300,1.3496103515625,0.0007453195285052061,-0.001347620040178299,0.002276565646752715
1761431320492554200,1.36955419921875,0.0015014249365776777,0.002097457181662321,0.00046910037053748965
1761431320512499500,1.38949951171875,-0.0005146819166839123,0.003469334449619055,-0.0007111317245289683
1761431320532443400,1.409443359375,-0.0003644147072918713,-0.001456273254007101,0.0017241582972928882
1761431320552388000,1.42938818359375,0.0007969927391968668,-0.0002074139192700386,-0.0011106731835752726
1761431320572333300,1.449333251953125,-0.0008233109256252646,0.00014814501628279686,0.0016059349291026592
1761431320592277200,1.46927734375,-0.0026464485563337803,-0.0012939483858644962,0.0006053438410162926
1761431320612222200,1.48922216796875,0.0018483302555978298,-0.00039886683225631714,0.0016852334374561906
1761431320632166100,1.509166259765625,-0.0037786592729389668,-0.0016069263219833374,0.0006232278537936509
1761431320652111400,1.529111328125,0.0008106822497211397,-0.0010231263004243374,0.0016994848847389221
1761431320672055300,1.54905517578125,-0.0008373829768970609,-0.0007724571041762829,-0.0010070818243548274
1761431320692000300,1.569000244140625,0.0005908400053158402,-0.0007937322370707989,-0.002055214252322912
1761431320711945200,1.5889453125,-0.0009253071038983762,0.001396268606185913,0.0019578109495341778
1761431320731889200,1.60888916015625,0.0030832020565867424,-0.003083311952650547,-0.00020576250972226262
1761431320751834000,1.628834228515625,-0.0009482137393206358,0.0009071365930140018,-0.0020284897182136774
1761431320771778300,1.6487783203125,0.001607828657142818,-0.0002591279335319996,0.0008943630964495242
1761431320791723300,1.66872314453125,0.003021092852577567,-0.0010123001411557198,0.0020639775320887566
1761431320811667200,1.688667236328125,0.0018720831722021103,0.0005989079363644123,0.0017718999879434705
1761431320831612200,1.708612060546875,-0.00016783468890935183,0.00034783221781253815,-0.00122546567581594
1761431320851557400,1.728557373046875,0.0017770861741155386,-0.00026682671159505844,0.0036223018541932106
1761431320871501300,1.748501220703125,0.0004351745592430234,0.0016247699968516827,-0.00023726560175418854
1761431320891446000,1.768446044921875,0.0016045714728534222,-0.001427849754691124,0.0013687328901141882
1761431320911390200,1.78839013671875,-0.0016103468369692564,-0.0011997120454907417,-0.0005859597586095333
1761431320931335200,1.808335205078125,-0.0008204147452488542,0.0001920592039823532,0.000626255408860743
1761431320951279000,1.828279052734375,-0.0010462949285283685,0.0000637182965874672,-0.0005338116898201406
1761431320971224300,1.848224365234375,0.00018476761761121452,-0.00012349337339401245,-0.00007912487490102649
1761431320991169300,1.868169189453125,-0.0017825753893703222,0.0003853687085211277,-0.00015685323160141706
1761431321011113200,1.88811328125,-0.00015720271039754152,-0.0015705102123320103,0.0004856299492530525
1761431321031058400,1.908058349609375,0.0019601525273174047,-0.00039733294397592545,0.0019912011921405792
1761431321051002400,1.92800244140625,0.0003135836450383067,0.002672648523002863,0.0006518958834931254
1761431321070947000,1.947947021484375,0.0004998912918381393,-0.0002514994703233242,-0.0013530137948691845
1761431321090891000,1.96789111328125,-0.0009893241804093122,0.0018816986121237278,-0.002378694247454405
1761431321110836200,1.987836181640625,0.0011688480153679848,-0.00028888974338769913,0.00023118819808587432
1761431321130781200,2.00778125,0.00036752247251570225,-0.0018660551868379116,0.0006092290277592838
1761431321150725000,2.02772509765625,0.0005792320007458329,0.0005920804105699062,-0.0011586633045226336
1761431321170670300,2.04767041015625,-0.0005662385956384242,-0.00010514305904507637,0.0013075231108814478
1761431321190614300,2.0676142578125,0.0025955582968890667,-0.000168707687407732,0.00023752753622829914
1761431321210559200,2.087559326171875,0.001047445577569306,-0.00019633304327726364,-0.001346538309007883
1761431321230503400,2.10750341796875,0.00022289686603471637,-0.0014600101858377457,-0.001088809804059565
1761431321250448100,2.1274482421875,-0.002379477256909013,0.0007980908267199993,-0.0017861005617305636
1761431321270393000,2.14739306640625,-0.0006496109999716282,-0.0008975006639957428,0.001514853211119771
1761431321290337000,2.1673369140625,-0.0017630732618272305,0.0014661913737654686,0.000712808920070529
1761431321310282000,2.187281982421875,-0.000007882306817919016,-0.0015658996999263763,0.00006985565414652228
1761431321330226200,2.20722607421875,-0.0017192673403769732,0.0014012297615408897,0.0014362013898789883
1761431321350171100,2.227171142578125,0.0004597409861162305,-0.0007064128294587135,0.0005593532114289701
1761431321370115000,2.247114990234375,0.00006006821058690548,-0.0002576368860900402,-0.00009265390690416098
1761431321390060300,2.267060302734375,0.0005226415814831853,0.0003860169090330601,0.002569079864770174
1761431321410005000,2.2870048828125,-0.0004944647662341595,-0.0006363894790410995,-0.003467055270448327
1761431321429949000,2.306948974609375,-0.0007758447900414467,-0.0001399768516421318,0.0014087375020608306
1761431321449894100,2.32689404296875,-0.0012382471468299627,0.0019247513264417648,0.0030181545298546553
1761431321469838000,2.346838134765625,-0.0017869495786726475,0.0008175722323358059,0.0008918197127059102
1761431321489783000,2.366782958984375,-0.0005555090610869229,-0.0007005203515291214,-0.0007026031380519271
1761431321509727000,2.38672705078125,-0.002020149491727352,-0.0016667265444993973,-0.00038081384263932705
1761431321529672200,2.406672119140625,-0.0005549680208787322,-0.00018308591097593307,0.002048433292657137
1761431321549617200,2.4266171875,0.0007282458245754242,-0.0005488842725753784,0.0007909133564680815
1761431321569561000,2.44656103515625,-0.0006270197918638587,0.0003806459717452526,0.0015012203948572278
1761431321589506000,2.466506103515625,0.0013992745662108064,-0.000054928939789533615,0.0025872669648379087
1761431321609450000,2.486449951171875,0.0008148655178956687,-0.0008918484672904015,-0.0022950784768909216
1761431321629395000,2.50639501953125,-0.001789727946743369,0.0009744083508849144,-0.000629451940767467
1761431321649339100,2.526339111328125,0.0005962554132565856,0.0006233029998838902,-0.001891927677206695
1761431321669284000,2.5462841796875,-0.00021305569680407643,0.00020972965285182,0.0006972894188947976
1761431321689229000,2.56622900390625,-0.0017857046332210302,0.0011483244597911835,0.0016284571029245853
1761431321709173200,2.58617333984375,0.0010822485201060772,-0.0004352233372628689,0.0005017862422391772
1761431321729118200,2.6061181640625,0.001569254556670785,0.0001237494871020317,-0.0005630375817418098
1761431321749062100,2.626062255859375,0.0008513645152561367,-0.0017603025771677494,0.0000186741235665977
1761431321769007000,2.646007080078125,0.0004998556687496603,0.0011481489054858685,-0.00004073622403666377
1761431321788951000,2.665950927734375,0.0020605335012078285,-0.002204324584454298,0.0005102499853819609
1761431321808896000,2.68589599609375,-0.0018408199539408088,-0.0006436132825911045,-0.001534569775685668
1761431321828841200,2.70584130859375,0.00071713823126629,-0.0027598910965025425,-0.00047182751586660743
1761431321848785200,2.72578515625,-0.0020376390311867,-0.0007842550985515118,-0.000025835703127086163
1761431321868730000,2.745730224609375,-0.0014662598259747028,0.0016530542634427547,-0.002094658324494958
1761431321888674000,2.765674072265625,-0.0025830650702118874,0.00011230260133743286,-0.0011832702439278364
1761431321908619300,2.785619384765625,0.0012091889511793852,-0.002468826249241829,0.00029521877877414227
1761431321928563200,2.805563232421875,-0.00008212338434532285,0.0019432022236287594,-0.001632914412766695
1761431321948508000,2.8255078125,-0.0005301451892592013,-0.0011634919792413712,-0.002808383898809552
1761431321968453000,2.845453125,0.0004950744332745671,0.000258058775216341,0.0009621069766581059
1761431321988397000,2.86539697265625,0.0010733543895184994,0.0004167761653661728,-0.0012071377132087946
1761431322008342000,2.885342041015625,-0.0021680633071810007,0.0025427164509892464,-0.0020725312642753124
1761431322028286200,2.9052861328125,-0.0009520121966488659,0.0001946934498846531,-0.0022476385347545147
1761431322048231200,2.925231201171875,-0.0006518801674246788,0.00043461984023451805,0.00035943486727774143
1761431322068175000,2.945175048828125,-0.0017872045282274485,-0.0036292581353336573,0.001794776413589716
1761431322088120000,2.9651201171875,-0.001597537542693317,-0.001459434162825346,0.000570931937545538
1761431322108064300,2.985064208984375,0.0010726561304181814,0.0013575260527431965,-0.00030088069615885615
1761431322128009000,3.005009033203125,0.002120109973475337,0.0007543247193098068,0.001292928820475936
1761431322147954000,3.024953857421875,-0.00021105894120410085,0.0000972328707575798,0.0024711228907108307
1761431322167898000,3.044898193359375,-0.0002667857916094363,-0.0014151306822896004,0.004593925084918737
1761431322187843000,3.064843017578125,0.001056911307387054,-0.00020293192937970161,0.0016403074841946363
1761431322207787000,3.084787109375,0.00007488648407161236,-0.00010172976180911064,0.001157641876488924
1761431322227732200,3.104732177734375,0.00042241980554535985,-0.000980643555521965,0.00011449633166193962
1761431322247676200,3.12467626953125,-0.0009137192973867059,-0.0004274691455066204,0.0003862102748826146
1761431322267622000,3.144621826171875,0.00043558640754781663,-0.00099900271743536,0.00007293670205399394
1761431322287566800,3.16456689453125,0.0016575492918491364,-0.0005508549511432648,-0.0019528880948200822
1761431322307510800,3.1845107421875,-0.00010802922770380974,0.0019357153214514256,-0.0004490944556891918
1761431322327456000,3.2044560546875,0.004040958825498819,-0.000774092972278595,0.0010820423485711217
1761431322347400000,3.22439990234375,-0.0003887900384142995,0.002834106795489788,0.0009011742658913136
1761431322367345000,3.244344970703125,-0.00027286942349746823,-0.00009128032252192497,-0.001664610579609871
1761431322387289000,3.2642890625,-0.00012491020606830716,-0.0011936156079173088,0.0007985524134710431
1761431322407234000,3.284234130859375,0.00047734344843775034,-0.00014201179146766663,-0.00018055335385724902
1761431322427178800,3.3041787109375,-0.0012790965847671032,0.003330572973936796,0.001786642475053668
1761431322447123000,3.324123046875,0.0021736484486609697,0.0018672021105885506,-0.0021202536299824715
1761431322467068000,3.34406787109375,-0.0008343349909409881,-0.000978620257228613,-0.0011357682524248958
1761431322487011800,3.36401171875,0.00043063104385510087,-0.0007371297106146812,0.0011888337321579456
1761431322506957000,3.38395703125,-0.0006706464919261634,0.00026297755539417267,-0.0018038834678009152
1761431322526901000,3.40390087890625,0.0012651407159864902,0.00023267511278390884,-0.0015371518675237894
1761431322546846000,3.423845947265625,0.0007487524417228997,0.0009592985734343529,-0.0003292974433861673
1761431322566791000,3.443791015625,0.0019520616624504328,0.0007998766377568245,0.00016972859157249331
1761431322586735000,3.463735107421875,-0.0015019126003608108,-0.0010432163253426552,0.00022613757755607367
1761431322606679800,3.4836796875,-0.0009221357759088278,0.00021500233560800552,-0.0008472540648654103
1761431322626623700,3.503623779296875,0.0011674977140501142,-0.0007961420342326164,0.001813807524740696
1761431322646569000,3.52356884765625,0.00007916783215478063,-0.000277648214250803,-0.0003149060648865998
1761431322666513000,3.543512939453125,0.000639771344140172,-0.004329453222453594,0.0011997476685792208
1761431322686457900,3.563457763671875,-0.0006704573752358556,0.0021829851903021336,-0.0006622620858252048
1761431322706403000,3.583403076171875,-0.00009421864524483681,0.00029776105657219887,-0.000006875605322420597
1761431322726347000,3.603346923828125,0.0013206261210143566,-0.00003584427759051323,0.00046811741776764393
1761431322746292000,3.6232919921875,0.001024667639285326,-0.00011396082118153572,0.0008967035682871938
1761431322766236000,3.64323583984375,-0.002820361405611038,0.003480476327240467,-0.001286520273424685
1761431322786180900,3.663180908203125,0.002009796444326639,0.0005481326952576637,-0.000807243341114372
1761431322806124800,3.683124755859375,0.0016989775467664003,-0.0009721154347062111,0.0022380640730261803
1761431322826069800,3.70306982421875,0.0005553821101784706,-0.0008851927705109119,-0.00022715370869264007
1761431322846014000,3.723013916015625,-0.0018101679161190987,0.001352839171886444,-0.0024274461902678013
1761431322865959000,3.742958984375,0.004257238004356623,-0.000017780810594558716,0.0017582664731889963
1761431322885904000,3.76290380859375,0.0009522003238089383,0.000882965512573719,-0.00260725524276495
1761431322905848000,3.78284814453125,-0.000502376351505518,0.0006656162440776825,0.0005965530872344971
1761431322925793000,3.80279296875,0.002094046212732792,0.0026966528967022896,0.0037947059608995914
1761431322945737000,3.822737060546875,0.0003096048312727362,0.0003965790383517742,0.0005078613758087158
1761431322965682000,3.842681884765625,-0.0000854749814607203,0.0024596145376563072,0.0003658430650830269
1761431322985625900,3.8626259765625,-0.0016598035581409931,-0.0005961526185274124,-0.000913372787181288
1761431323005570800,3.88257080078125,-0.00018045585602521896,-0.0010562688112258911,0.0004317377461120486
1761431323025514800,3.9025146484375,0.00043813453521579504,-0.0021479190327227116,0.00022401264868676662
1761431323045460000,3.9224599609375,0.0007180829416029155,0.0009573278948664665,-0.00022384413750842214
1761431323065405000,3.942405029296875,-0.0006122571649029851,-0.0027482963632792234,0.001641367212869227
1761431323085348900,3.962348876953125,0.0007537693018093705,-0.0016467110253870487,0.0006555316504091024
1761431323105294000,3.982294189453125,0.0011576269753277302,-0.0013001379556953907,0.0013869700487703085
1761431323125238000,4.002238037109375,-0.00006015924736857414,-0.001642865128815174,-0.0005902276607230306
1761431323145182000,4.022181884765625,0.0010178800439462066,0.001807129941880703,-0.0011540844570845366
1761431323165127000,4.042126953125,0.0016926298849284649,0.000016227830201387405,0.0037854837719351053
1761431323185071000,4.062071044921875,-0.0008039059466682374,0.00321299210190773,-0.00034682935802266
1761431323205015800,4.082015869140625,-0.00281509873457253,-0.000044129788875579834,0.0016586326528340578
1761431323224961000,4.1019609375,-0.0003908483195118606,0.000033229589462280273,-0.0001665620948188007
1761431323244905000,4.121905029296875,0.002851559314876795,0.0010474990122020245,0.0013607556466013193
1761431323264850000,4.141849853515625,0.00022418182925321162,0.0004936698824167252,0.00141033751424402
1761431323284793000,4.16179296875,-0.0008368347189389169,0.0001658787950873375,0.00119249545969069
1761431323304738300,4.18173828125,0.0003819623962044716,-0.0015808525495231152,-0.0013876636512577534
1761431323324682200,4.20168212890625,0.00039105850737541914,0.0014391555450856686,-0.00027448509354144335
1761431323344627200,4.221627197265625,-0.0009570479160174727,0.00010575540363788605,-0.0011356051545590162
1761431323364571100,4.241571044921875,0.00045474671060219407,0.0001469198614358902,-0.0011393096065148711
1761431323384516400,4.261516357421875,-0.0006033515674062073,0.0004463084042072296,-0.0008171747322194278
1761431323404461000,4.2814609375,0.0007934137247502804,0.00039970502257347107,0.00025281310081481934
1761431323424405000,4.301405029296875,0.0003187074908055365,-0.0011422531679272652,-0.0012051751837134361
1761431323444350200,4.32135009765625,0.000845146831125021,-0.0012693069875240326,0.0011328181717544794
1761431323464294100,4.341294189453125,-0.00023728684755042195,0.00019846390932798386,-0.002308301627635956
1761431323484239000,4.361239013671875,-0.00037503684870898724,0.0013868603855371475,-0.00013261602725833654
1761431323504183300,4.381183349609375,-0.0005668471567332745,0.002383289858698845,0.0006925897905603051
1761431323524128300,4.401128173828125,-0.0007764084148220718,0.0003529121167957783,-0.00225154310464859
1761431323544072200,4.421072265625,-0.000029585149604827166,-0.0013157287612557411,0.0021523036994040012
1761431323564017400,4.441017333984375,-0.0009511204552836716,0.0004070545546710491,-0.0009906585328280926
1761431323583962000,4.460962158203125,-0.0009579558973200619,0.0012720315717160702,-0.00033749709837138653
1761431323603906000,4.480906005859375,-0.00007034261943772435,0.0006359685212373734,-0.0022445276845246553
1761431323623851300,4.500851318359375,-0.0008379804203286767,0.0005371812731027603,-0.003500231308862567
1761431323643795200,4.520795166015625,0.0031376213300973177,-0.0015617762692272663,-0.002115098526701331
1761431323663740200,4.540740234375,-0.0016533134039491415,0.0002126418985426426,-0.001290798420086503
1761431323683684000,4.56068408203125,0.0013737221015617251,-0.00020583532750606537,-0.0011826572008430958
1761431323703629300,4.58062939453125,0.0004191093030385673,0.0033364323899149895,0.001520397374406457
1761431323723573200,4.6005732421875,-0.0016512218862771988,0.0015307976864278316,0.0028766475152224302
1761431323743518200,4.620518310546875,0.0020305346697568893,0.00034800125285983086,0.002387237036600709
1761431323763463200,4.640463134765625,0.0005312063731253147,-0.0016693896614015102,0.00020993524231016636
1761431323783407000,4.660406982421875,0.0019758499693125486,0.0015564761124551296,-0.0032951892353594303
1761431323803352000,4.68035205078125,0.00041500103543512523,-0.00010359892621636391,0.0036636143922805786
1761431323823296000,4.7002958984375,0.0010425187647342682,-0.000032471492886543274,-0.001359439454972744
1761431323843241200,4.7202412109375,0.00004438014002516866,-0.000594582874327898,0.00028918945463374257
1761431323863185200,4.74018505859375,-0.0008110271883197129,0.0013045016676187515,-0.000703587953466922
1761431323883130000,4.760130126953125,0.0011135650565847754,-0.001345090102404356,0.0027080848813056946
1761431323903074300,4.78007421875,0.0003158612234983593,-0.0017840145155787468,0.0008281201589852571
1761431323923019300,4.800019287109375,0.00023899649386294186,-0.0006192540749907494,-0.00016027357196435332
1761431323942964000,4.8199638671875,-0.0009575951844453812,0.0003567594103515148,-0.0028792344965040684
1761431323962908200,4.839908203125,0.0024048699997365475,-0.0012410786002874374,0.0012697671772912145
1761431323982853000,4.85985302734375,0.001107020303606987,-0.002158834133297205,0.0005770765710622072
1761431324002797000,4.879797119140625,0.0006075058481656015,-0.0006245588883757591,0.0002947789616882801
1761431324022742300,4.8997421875,-0.0008120880229398608,0.0009044469334185123,0.0024260752834379673
1761431324042686200,4.919686279296875,-0.0009027892374433577,-0.0014873058535158634,0.0007851650007069111
1761431324062631200,4.939631103515625,-0.0003113101120106876,0.003371921367943287,-0.0005993932718411088
1761431324082575000,4.9595751953125,-0.0023226095363497734,-0.0005076355300843716,0.0016972462181001902
1761431324102520300,4.979520263671875,-0.0011432395549491048,0.0033866544254124165,0.0004986560670658946
1761431324122465000,4.999465087890625,-0.004242733586579561,0.00040512997657060623,0.00048500095726922154
1761431324142409000,5.019408935546875,-0.0009512027609162033,0.002413446083664894,0.001338042551651597
1761431324162354200,5.039354248046875,0.0014751290436834097,-0.0018044104799628258,0.002879283158108592
1761431324182298000,5.059298095703125,0.0005045888246968389,0.002197911962866783,0.001454429468140006
1761431324202243000,5.0792431640625,-0.0007851095870137215,0.0011173593811690807,0.0007480610511265695
1761431324222187300,5.099187255859375,-0.003203623928129673,0.00249140290543437,0.0017117377137765288
1761431324242132200,5.11913232421875,-0.0005529485642910004,0.0005558952689170837,-0.0015743619296699762
1761431324262076200,5.139076171875,0.0008941537234932184,-0.00032872240990400314,-0.0002428647130727768
1761431324282022000,5.15902197265625,-0.0008705153595656157,-0.0029382023494690657,0.002013325458392501
1761431324301966800,5.178966796875,0.0002876262296922505,0.0010878541506826878,-0.00045026233419775963
1761431324321910800,5.198910888671875,-0.0018087397329509258,0.0018713613972067833,0.0003749572206288576
1761431324341855700,5.218855712890625,-0.0016687489114701748,-0.00034564826637506485,0.00025012355763465166
1761431324361800000,5.238800048828125,0.001106027513742447,0.00032576313242316246,-0.0005220943130552769
1761431324381745000,5.258744873046875,-0.0007915602764114738,-0.000364075880497694,0.0008616154664196074
1761431324401688800,5.278688720703125,-0.0007371579413302243,-0.001300436444580555,-0.0004990954184904695
1761431324421634000,5.298634033203125,-0.0025650979951024055,-0.001724845264106989,0.0001530490699224174
1761431324441578000,5.318577880859375,0.0011585922911763191,-0.00026191724464297295,0.0015840907581150532
1761431324461523000,5.33852294921875,-0.002402330283075571,0.000588561873883009,-0.000612125382758677
1761431324481467000,5.358466796875,-0.0005969716003164649,0.00034404173493385315,-0.002329822862520814
1761431324501411800,5.378411865234375,0.00012327064177952707,-0.0018130969256162643,0.00197058473713696
1761431324521356800,5.398356689453125,0.0017015496268868446,-0.0011058668605983257,0.0019153864122927189
1761431324541300700,5.41830078125,-0.001019035466015339,-0.00034685712307691574,0.0016753135714679956
1761431324561246000,5.438245849609375,0.0018637008033692837,-0.0010051243007183075,0.0035094742197543383
1761431324581190000,5.45818994140625,0.0001994460471905768,-0.0009738006629049778,0.0003239964134991169
1761431324601134800,5.478134765625,-0.0016117370687425137,-0.0010294876992702484,-0.000892329029738903
1761431324621079000,5.4980791015625,0.0003013481618836522,0.00010527251288294792,0.00080160575453192
1761431324641024000,5.51802392578125,-0.0008424365660175681,-0.000048776157200336456,-0.002029582392424345
1761431324660968000,5.537968017578125,-0.0011688440572470427,0.000015391036868095398,-0.0008709202520549297
1761431324680912600,5.55791259765625,-0.0017332960851490498,0.0020472262986004353,0.0005822890088893473
1761431324700857900,5.57785791015625,0.0011834221659228206,-0.0025205258280038834,-0.00007051025750115514
1761431324720801800,5.5978017578125,-0.000039307691622525454,-0.0004787924699485302,0.0003182083601132035
1761431324740746800,5.617746826171875,0.00023064020206220448,-0.0003424016758799553,-0.0009384634904563427
1761431324760691000,5.63769091796875,0.001958126202225685,-0.0006830012425780296,-0.00027377280639484525
1761431324780636000,5.657635986328125,-0.004081929102540016,0.0003220401704311371,0.00044815154979005456
1761431324800579800,5.677579833984375,-0.0010371990501880646,-0.0006479066796600819,0.0015776967629790306
1761431324820525000,5.697525146484375,0.00032809923868626356,-0.0000701691024005413,-0.0010121517116203904
1761431324840469000,5.717468994140625,0.0012346918229013681,0.0008486853912472725,0.0008810819708742201
1761431324860413700,5.73741357421875,-0.0003147625830024481,0.00037915538996458054,0.00021341198589652777
1761431324880357600,5.757357666015625,-0.0010843458585441113,-0.0005170917138457298,0.0017119267722591758
1761431324900302800,5.777302734375,0.0008130972273647785,-0.0034170669969171286,-0.0006776296067982912
1761431324920247800,5.797247802734375,-0.0007832224946469069,0.0008777673356235027,-0.00007470662239938974
1761431324940191700,5.817191650390625,0.0006169200059957802,0.0005056653171777725,-0.00017362041398882866
1761431324960137000,5.837136962890625,-0.002078300341963768,0.0022061471827328205,-0.00014800269855186343
1761431324980081000,5.857080810546875,-0.0006696558557450771,0.0004137149080634117,0.0014360429486259818
1761431325000025900,5.87702587890625,-0.00013462681090459228,-0.0008331770077347755,0.0010818425798788667
1761431325019970000,5.896969970703125,0.0009154817089438438,0.0018846122547984123,0.00043000082951039076
1761431325039914800,5.916914794921875,0.00027857552049681544,-0.0002595013938844204,-0.0012914129765704274
1761431325059858700,5.936858642578125,-0.0005430097226053476,-0.00022221729159355164,0.002494803164154291
1761431325079804000,5.956803955078125,0.002627650508657098,0.0006106770597398281,-0.0005465220892801881
1761431325099747800,5.976747802734375,-0.00011742347851395607,-0.0003363178111612797,0.0008511992637068033
1761431325119692800,5.99669287109375,0.0007025969680398703,-0.0002840026281774044,-0.00030078308191150427
1761431325139638000,6.016637939453125,0.0006065588095225394,-0.0020396793261170387,-0.0013983814278617501
1761431325159582000,6.03658203125,0.00040289308526553214,0.002530517987906933,-0.000013624608982354403
1761431325179527000,6.05652685546875,-0.0008895141072571278,0.0003719381056725979,0.0001021471107378602
1761431325199470800,6.076470947265625,0.0006166133098304272,0.0017122444696724415,-0.0021917554549872875
1761431325219415800,6.096415771484375,-0.0009980325121432543,-0.0007330160588026047,0.0004972720053046942
1761431325239359700,6.11635986328125,0.0008852111641317606,-0.0011817244812846184,-0.000266246497631073
1761431325259304700,6.1363046875,-0.00037688366137444973,0.0010804086923599243,0.0005825718399137259
1761431325279248400,6.156248291015625,0.003045330522581935,-0.00022576330229640007,0.0006477390415966511
1761431325299193600,6.176193603515625,-0.0026300009340047836,-0.0007254472002387047,0.00042343081440776587
1761431325319137500,6.196137451171875,-0.0003552314010448754,-0.0006216722540557384,0.0005627127247862518
1761431325339082500,6.21608251953125,-0.0007823891937732697,-0.000692310743033886,0.00019562477245926857
1761431325359027700,6.23602783203125,-0.00016249006148427725,-0.00017698248848319054,-0.0007827370427548885
1761431325378971600,6.2559716796875,0.00028675678186118603,0.000722044613212347,-0.0008175335242412984
1761431325398916600,6.27591650390625,-0.0007740161381661892,0.0006493180990219116,0.0013186498545110226
1761431325418860800,6.29586083984375,-0.00008067890303209424,0.001161704771220684,-0.0017380965873599052
1761431325438805500,6.315805419921875,-0.0009534753626212478,0.0010727755725383759,-0.000020633277017623186
1761431325458749400,6.33574951171875,-0.0005465612048283219,-0.0013497942127287388,0.0019344249740242958
1761431325478694700,6.355694580078125,-0.00200352119281888,0.0009757843799889088,-0.0005887307925149798
1761431325498638600,6.375638671875,-0.000018653867300599813,-0.0012720734812319279,-0.00022836454445496202
1761431325518583600,6.39558349609375,-0.000418825977249071,0.0012985304929316044,-0.0001702691661193967
1761431325538527500,6.415527587890625,0.002578586572781205,-0.0010695131495594978,0.0004036707105115056
1761431325558472700,6.43547265625,-0.0018754489719867706,-0.00009738747030496597,-0.0008390283328481019
1761431325578417700,6.455417724609375,-0.00044224702287465334,-0.0013226717710494995,-0.0006311291363090277
1761431325598361600,6.475361572265625,0.0005958073888905346,-0.0002715722657740116,-0.0011701715411618352
1761431325618306600,6.495306640625,-0.0008934952784329653,0.0005679805763065815,0.0007793238619342446
1761431325638250500,6.51525048828125,0.002385733649134636,0.0006070719100534916,-0.0007945743855088949
1761431325658195500,6.535195556640625,-0.002166483551263809,-0.0012533171102404594,-0.0008065953152254224
1761431325678139400,6.555139404296875,-0.000374945520889014,0.00011796178296208382,0.001165967434644699
1761431325698084600,6.575084716796875,-0.0003743269480764866,0.0024760207161307335,-0.0016887325327843428
1761431325718028500,6.595028564453125,-0.0003704609698615968,0.00043012993410229683,-0.0024520608130842447
1761431325737973500,6.614973388671875,0.0005632289685308933,-0.0010481439530849457,-0.0013350731460377574
1761431325757917700,6.634917724609375,-0.00016548935673199594,0.001779667567461729,0.0008334591402672231
1761431325777862700,6.654862548828125,0.00002093549119308591,0.0016262219287455082,0.00014701171312481165
1761431325797806600,6.674806640625,0.001022789510898292,0.00026431120932102203,0.000979201984591782
1761431325817751600,6.69475146484375,-0.00025747925974428654,0.001246994361281395,0.0007730688666924834
1761431325837696500,6.714696533203125,-0.002054709941148758,0.0007615941576659679,0.0003870184300467372
1761431325857640400,6.734640380859375,0.00018577594892121851,-0.0008778469637036324,-0.0004218369722366333
1761431325877585700,6.754585693359375,0.0003624391683842987,0.0014984449371695518,0.001239572186022997
1761431325897529600,6.774529541015625,0.0017402489902451634,-0.002479914575815201,-0.002762563992291689
1761431325917474600,6.794474609375,0.0003880010626744479,0.000486807432025671,0.00005569227505475283
1761431325937418500,6.81441845703125,-0.0006657871999777853,0.00016713887453079224,-0.0011722747003659606
1761431325957363700,6.83436376953125,-0.0002513467916287482,-0.0005862950347363949,-0.0010147776920348406
1761431325977307600,6.8543076171875,-0.001207638648338616,-0.00003033643588423729,0.0004110032459720969
1761431325997252400,6.87425244140625,-0.0006922379252500832,-0.00021411478519439697,0.001633219188079238
1761431326017196500,6.894196533203125,0.000048178539145737886,-0.0004082382656633854,0.0009473886457271874
1761431326037141500,6.9141416015625,-0.0014387768460437655,-0.0004192320629954338,0.0024670520797371864
1761431326057086500,6.93408642578125,0.0009403058793395758,0.0008980873972177505,-0.000947210006415844
1761431326077030700,6.95403076171875,-0.0007960734656080604,0.0005965442396700382,0.00017789436969906092
1761431326096975600,6.9739755859375,0.0015186367090791464,-0.0009766686707735062,-0.0002860754611901939
1761431326116919600,6.99391943359375,-0.00025383979664184153,0.0015198295004665852,0.0013731489889323711
1761431326136864800,7.01386474609375,-0.000845462316647172,0.0006492403335869312,-0.004418076016008854
1761431326156808700,7.03380859375,-0.0001492201117798686,0.00027298880741000175,-0.0007633285713382065
1761431326176753400,7.05375341796875,0.0020953884813934565,0.0010060183703899384,-0.0021628765389323235
1761431326196697600,7.073697509765625,0.00033069835626520216,-0.0016920529305934906,-0.00005353876622393727
1761431326216642600,7.093642578125,-0.0002744287485256791,-0.0001881956122815609,-0.0021127706859260798
1761431326236586500,7.11358642578125,-0.00007938302587717772,0.0015517105348408222,0.001365440315566957
1761431326256531500,7.133531494140625,-0.0031493690330535173,0.002247758209705353,-0.0014657231513410807
1761431326276475400,7.153475341796875,-0.0003929652157239616,-0.001268584281206131,-0.000008857110515236855
1761431326296420400,7.17342041015625,-0.0020902459509670734,-0.002352504525333643,-0.00015680596698075533
1761431326316365600,7.193365478515625,0.0003700480447150767,0.0004302673041820526,0.001923059462569654
1761431326336309500,7.2133095703125,-0.0010067278053611517,-0.0000861198641359806,0.0007373554399237037
1761431326356254500,7.23325439453125,0.0008859537774696946,-0.0012779301032423973,-0.0012538270093500614
1761431326376198700,7.25319873046875,0.0010727080516517162,0.0017155753448605537,0.002683233004063368
1761431326396143400,7.273143310546875,-0.0007936083129607141,-0.00011103600263595581,-0.00023647164925932884
1761431326416087300,7.29308740234375,-0.00020101724658161402,0.0009852261282503605,0.00006643426604568958
1761431326436032500,7.313032470703125,-0.00006186339305713773,0.0004012663848698139,-0.0035708118230104446
1761431326455976400,7.3329765625,0.0017581791616976261,-0.0010000313632190228,0.001483670435845852
1761431326475921400,7.35292138671875,-0.00038753770058974624,0.0022593713365495205,-0.002434034598991275
1761431326495865300,7.372865234375,0.0009040116565302014,-0.0016401121392846107,0.002220217138528824
1761431326515810600,7.392810546875,0.0008649112423881888,-0.00039014779031276703,0.00140396598726511
1761431326535754500,7.41275439453125,-0.000552038662135601,0.0023186011239886284,0.0003243098617531359
1761431326555699500,7.432699462890625,0.001256220624782145,-0.0011430028825998306,-0.0010300091234967113
1761431326575644400,7.45264453125,0.0002337370824534446,-0.000346907414495945,-0.000995699199847877
1761431326595588400,7.47258837890625,-0.0005186471389606595,-0.0001422627829015255,0.00043434498365968466
1761431326615533300,7.492533203125,0.0008178781135939062,0.0006213095039129257,0.00020492810290306807
1761431326635477500,7.5124775390625,-0.0019988310523331165,0.0004071439616382122,-0.0013317298144102097
1761431326655422500,7.53242236328125,-0.0011877230135723948,0.000037231482565402985,-0.003064442193135619
1761431326675366400,7.552366455078125,0.0001596082584001124,0.0016738022677600384,0.002752968342974782
1761431326695311600,7.5723115234375,-0.0006482065073214471,-0.0011528236791491508,0.000254680635407567
1761431326715255600,7.592255615234375,0.0008989691268652678,0.000024017412215471268,-0.0008850950398482382
1761431326735200500,7.612200439453125,-0.0015820192638784647,0.0024662953801453114,0.0005426781717687845
1761431326755144400,7.63214453125,0.0009031845256686211,0.0004895837046205997,-0.0012021118309348822
1761431326775089400,7.65208935546875,0.0019583473913371563,0.0004500569775700569,0.0004157856456004083
1761431326795033300,7.672033447265625,-0.0012791103217750788,0.0005969838239252567,-0.0008974222000688314
1761431326814978300,7.691978271484375,0.001146958558820188,-0.0011457898654043674,-0.0009273537434637547
1761431326834922500,7.711922607421875,0.0004450878477655351,-0.0017050784081220627,-0.0014173913514241576
1761431326854867500,7.731867431640625,-0.002323612803593278,-0.0014116168022155762,0.0017204773612320423
1761431326874812400,7.7518125,-0.0009321048273704946,0.0007854332216084003,0.0004984204424545169
1761431326894756400,7.77175634765625,0.000025275861844420433,-0.00003606639802455902,-0.000003131397534161806
1761431326914701600,7.79170166015625,0.0022323615849018097,0.00034433556720614433,-0.002307119080796838
1761431326934645500,7.8116455078125,-0.0005053821369074285,0.0012481100857257843,-0.0012080000014975667
1761431326954590200,7.831590087890625,-0.0012659027706831694,0.0004141293466091156,-0.0010061018401756883
1761431326974534400,7.851534423828125,-0.00017622060840949416,-0.00038461433723568916,-0.0013473896542564034
1761431326994479400,7.871479248046875,-0.0021417494863271713,-0.0002578040584921837,-0.0007709315395914018
1761431327014423300,7.89142333984375,-0.0011236310238018632,-0.0007412075065076351,0.002911226125434041
1761431327034368500,7.911368408203125,-0.00046046299394220114,-0.00128136295825243,-0.000015413446817547083
1761431327054312400,7.9313125,-0.0014434168115258217,0.0005753571167588234,-0.00013108726125210524
1761431327074257400,7.95125732421875,-0.0006721249083057046,0.00011978764086961746,0.0019615492783486843
1761431327094201300,7.971201416015625,-0.0006820730632171035,-0.0007358589209616184,-0.0007569525623694062
1761431327114146600,7.991146484375,-0.0007887507672421634,0.0009830757044255733,-0.0013698824914172292
1761431327134090500,8.011090576171876,0.002004468347877264,-0.00002178829163312912,-0.0010778584983199835
1761431327154035500,8.031035400390625,0.000023461703676730394,-0.0011764834634959698,0.0006712469039484859
1761431327173979600,8.050979736328125,0.00008934224024415016,0.000975137110799551,0.0010394593700766563
1761431327193924400,8.07092431640625,0.0003480409213807434,0.00022799288854002953,-0.001312259933911264
1761431327213869300,8.090869384765625,-0.001051219180226326,-0.00039731385186314583,-0.001996181206777692
1761431327233813500,8.1108134765625,-0.00040603469824418426,-0.0007405360229313374,0.0010469600092619658
1761431327253758500,8.130758544921875,-0.00028431223472580314,0.0007920917123556137,0.001621569273993373
1761431327273703200,8.150703125,0.0005060009425505996,0.00036283722147345543,0.002330387942492962
1761431327293648100,8.170648193359375,-0.00040840235305950046,0.000030168797820806503,-0.0009906977647915483
1761431327313592000,8.190592041015625,-0.0014794892631471157,0.0024765976704657078,0.002533217892050743
1761431327333537000,8.210537109375,0.0007082188385538757,-0.0002803616225719452,-0.0012713787145912647
1761431327353481000,8.23048095703125,0.0006781392148695886,-0.0002982635051012039,0.0006742080440744758
1761431327373426000,8.250426025390626,-0.00002290360862389207,0.0018753726035356522,-0.0018669328419491649
1761431327393370000,8.2703701171875,-0.0019385116174817085,0.00030731363222002983,0.0017511387122794986
1761431327413315000,8.290315185546875,0.00020954009960405529,0.0005597136914730072,0.0012861979193985462
1761431327433259000,8.310259033203126,-0.001927956473082304,-0.00009250640869140625,-0.00036160729359835386
1761431327453204200,8.330204345703125,-0.0006171099375933409,0.0004846579395234585,0.0018556403229013085
1761431327473149200,8.350149169921876,-0.0020496626384556293,-0.0017763394862413406,0.0003852260997518897
1761431327493094000,8.370093994140625,0.00040901178726926446,-0.00020157964900135994,0.0015992430271580815
1761431327513038000,8.3900380859375,-0.00026088982122018933,-0.00009627407416701317,0.0010168878361582756
1761431327532983000,8.409983154296874,-0.0021646081004291773,0.0013987845741212368,0.0024807972367852926
1761431327552927000,8.429927001953125,0.0028503688517957926,0.0006034579128026962,0.0006886232877150178
1761431327572872200,8.4498720703125,0.002320069819688797,0.0020073172636330128,0.0015762059483677149
1761431327592816000,8.469816162109375,-0.001529018860310316,0.0007049385458230972,0.00005522719584405422
1761431327612761000,8.489760986328125,0.0011857564095407724,0.0019039842300117016,-0.0018450662028044462
1761431327632705000,8.509705078125,-0.0005535383243113756,0.001676526851952076,-0.001182783511467278
1761431327652650200,8.529650146484375,-0.0005864327540621161,0.0009235129691660404,-0.0010479463962838054
1761431327672594200,8.54959423828125,-0.0006796927773393691,-0.0011748545803129673,-0.00035781587939709425
1761431327692539000,8.569538818359375,-0.00044349482050165534,-0.001113569363951683,0.002639620564877987
1761431327712483000,8.589483154296875,-0.0019560314249247313,0.0016548866406083107,-0.0009400534327141941
1761431327732428000,8.609427978515624,-0.0010168112348765135,-0.0003946339711546898,0.0036936025135219097
1761431327752372000,8.6293720703125,-0.0008193491958081722,0.000059427693486213684,0.00082635716535151
1761431327772317200,8.649317138671876,-0.0009714976185932755,-0.0008771768771111965,0.00015725987032055855
1761431327792261000,8.66926123046875,-0.0008334069279953837,0.0012379037216305733,0.0011459765955805779
1761431327812206000,8.6892060546875,0.0018472799565643072,0.00036198971793055534,-0.0003987093805335462
1761431327832150000,8.70914990234375,-0.0026497552171349525,-0.0004470548592507839,-0.0023434492759406567
1761431327852095200,8.72909521484375,0.00062417151639238,-0.0003075278364121914,-0.0006380830891430378
1761431327872040000,8.7490400390625,-0.0009150608093477786,0.0005850773304700851,0.00035281467717140913
1761431327891984000,8.76898388671875,0.0005599955911748111,-0.00036853691563010216,0.0027715852484107018
1761431327911929000,8.78892919921875,0.0009398538386449218,-0.0006803744472563267,-0.002300398191437125
1761431327931873000,8.808873046875,-0.0003749097231775522,-0.0003958083689212799,-0.0002024482237175107
1761431327951818000,8.82881787109375,-0.0018576716538518667,0.0011550141498446465,0.0032886886037886143
1761431327971762000,8.848761962890626,-0.001985219307243824,0.00047050416469573975,-0.00006256956839933991
1761431327991707100,8.86870703125,0.0006309180171228945,-0.0014629149809479713,0.0019903036300092936
1761431328011651000,8.888651123046875,-0.00043211557203903794,0.0005000289529561996,-0.0005325901438482106
1761431328031596000,8.908595947265624,0.0010500404750928283,0.001267724670469761,-0.0007451109122484922
1761431328051540200,8.928540283203125,-0.0005924741271883249,0.0009577986784279346,-0.0012381101259961724
1761431328071485000,8.94848486328125,-0.0019385527120903134,-0.0006682830862700939,-0.0016539415810257196
1761431328091429000,8.96842919921875,-0.001083767507225275,-0.00043759215623140335,-0.0009284110274165869
1761431328111374000,8.9883740234375,0.000727308914065361,0.0014654714614152908,0.00019323412561789155
1761431328131318000,9.008318115234376,-0.0005497707752510905,0.00008436525240540504,-0.002187766134738922
1761431328151263000,9.028262939453125,-0.0018803633283823729,-0.00043944595381617546,0.00047447835095226765
1761431328171207000,9.04820703125,0.0015708183636888862,-0.0012224693782627583,0.0006727094878442585
1761431328191152000,9.068152099609375,0.0010222878772765398,-0.00022302940487861633,0.0011577405966818333
1761431328211096000,9.088095947265625,0.0027819685637950897,-0.0016637276858091354,0.0014103115536272526
1761431328231041000,9.108041015625,-0.0005966539611108601,-0.001136725302785635,-0.0020535036455839872
1761431328250985200,9.127985107421875,-0.0011158830020576715,0.002026029396802187,-0.000012397242244333029
1761431328270929200,9.14792919921875,-0.00036541803274303675,0.0006956262513995171,-0.0004936550394631922
1761431328290874400,9.167874267578124,0.0030434741638600826,-0.00015246449038386345,0.002277467167004943
1761431328310818300,9.187818359375,0.00020718591986224055,0.0019135265611112118,-0.0007527429843321443
1761431328330763000,9.207762939453126,0.00005468656308948994,-0.0008947537280619144,0.0016691809287294745
1761431328350707200,9.227707275390625,0.0009024932514876127,-0.001984863542020321,0.0031568226404488087
1761431328370652200,9.247652099609375,-0.0004688736516982317,0.001063923817127943,-0.0035239604767411947
1761431328390596000,9.26759619140625,0.003089148085564375,-0.0003888453356921673,0.00012015405809506774
1761431328410541300,9.287541259765625,-0.0006459405412897468,-0.0027719412464648485,-0.0003636011970229447
1761431328430485200,9.3074853515625,-0.0030275473836809397,-0.0012628384865820408,0.0006755685899406672
1761431328450430200,9.32743017578125,-0.0015701281372457743,-0.0011892118491232395,0.001173652010038495
1761431328470374100,9.3473740234375,0.0009177765459753573,-0.0025186785496771336,-0.0006556118605658412
1761431328490319400,9.3673193359375,0.003017754526808858,-0.00041273050010204315,-0.0007381212199106812
1761431328510263300,9.38726318359375,-0.0004617453087121248,-0.0008426960557699203,-0.00027545366901904345
1761431328530208000,9.4072080078125,-0.0023567748721688986,-0.00010963669046759605,0.003093286184594035
1761431328550152200,9.427152099609375,0.000928308698348701,-0.0010944511741399765,-0.00023625174071639776
1761431328570097200,9.44709716796875,-0.0008238592417910695,-0.0000571724958717823,-0.0015438100090250373
1761431328590041000,9.467041015625,-0.001269846921786666,0.0006947400979697704,-0.002416463801637292
1761431328609986000,9.486986083984375,0.0009669032879173756,0.0004664566367864609,-0.0008179366122931242
1761431328629930200,9.50693017578125,0.00040325691225007176,0.0009078155271708965,0.0005790414870716631
1761431328649875200,9.526875244140625,-0.0006441673031076789,0.00048719532787799835,-0.0001894114539027214
1761431328669819100,9.546819091796875,0.0001687299518380314,-0.001563296653330326,0.0006382890278473496
1761431328689764400,9.566764404296874,0.002821919973939657,-0.003525999840348959,0.0013841649051755667
1761431328709708300,9.586708251953125,0.0017040575621649623,-0.0011989949271082878,-0.0006299087544903159
1761431328729653200,9.6066533203125,-0.0002632590476423502,-0.00018552597612142563,0.0011459123343229294
1761431328749597200,9.62659716796875,0.0005107656470499933,-0.00023940671235322952,-0.0035064509138464928
1761431328769542100,9.646542236328125,0.000706105085555464,0.001112113706767559,0.0010934049496427178
1761431328789486000,9.666486083984376,0.00047283503226935863,0.001563018187880516,0.0006242408417165279
1761431328809431000,9.68643115234375,-0.0003988922690041363,0.0014086682349443436,-0.0007115491898730397
1761431328829375200,9.706375244140625,-0.0008800294599495828,0.0009864741005003452,-0.0011090196203440428
1761431328849320200,9.7263203125,-0.0008030077442526817,0.00019147014245390892,0.001986140152439475
1761431328869265200,9.74626513671875,-0.00008183543104678392,0.001228119246661663,0.000348047586157918
1761431328889209300,9.766209228515624,0.0015399197582155466,-0.0007216776721179485,0.001771520241163671
1761431328909154300,9.786154296875,-0.0017276585567742586,-0.0014455677010118961,-0.00007124705007299781
1761431328929098200,9.80609814453125,0.0012600073823705316,0.0023982631973922253,-0.0012364094145596027
1761431328949043200,9.826043212890625,0.0014799811178818345,-0.0024886876344680786,-0.0017299371538683772
1761431328968987100,9.845987060546875,-0.0007253218209370971,-0.0007259021513164043,-0.0008260537870228291
1761431328988932000,9.86593212890625,0.0012211843859404325,-0.000018293503671884537,0.0009149039979092777
1761431329008876000,9.8858759765625,-0.0007183471461758018,0.0009902101010084152,-0.0012705479748547077
1761431329028821200,9.9058212890625,0.001108736963942647,-0.0003836951218545437,0.001390534802339971
1761431329048765200,9.92576513671875,-0.001067906734533608,0.0026428550481796265,0.0012423116713762283
1761431329068710100,9.945710205078125,-0.0009179763146676123,-0.00038714148104190826,0.0015025166794657707
1761431329088654300,9.965654296875,0.0023617963306605816,-0.002134620677679777,-0.0009704545955173671
1761431329108599300,9.985599365234375,-0.0013382569886744022,0.0010965978726744652,0.001600245712324977
1761431329128543200,10.005543212890625,0.00027021774440072477,-0.0011169514618813992,-0.0014713562559336424
1761431329148488200,10.02548828125,0.0010704926680773497,-0.0003268248401582241,0.0015482933958992362
1761431329168432000,10.04543212890625,0.002857023384422064,-0.0024559057783335447,0.0003538012970238924
1761431329188377000,10.065377197265626,-0.0015714489854872227,-0.0006746575236320496,-0.0008601162699051201
1761431329208321000,10.085321044921875,-0.0014060505200177431,0.0003477567806839943,-0.0014676771825179458
1761431329228266200,10.105266357421876,0.0015646775718778372,0.0010746512562036514,0.002294489648193121
1761431329248210200,10.125210205078124,0.000036213546991348267,-0.00042864587157964706,-0.002142553450539708
1761431329268155100,10.145155029296875,-0.0030235787853598595,0.003301893826574087,-0.0008492966881021857
1761431329288100000,10.16510009765625,-0.0013055636081844568,0.04270949959754944,0.023492835462093353
1761431329308044800,10.185044921875,-0.002604350447654724,0.05320107936859131,0.022713759914040565
1761431329327988700,10.20498876953125,-0.00045442936243489385,-0.00983753427863121,-0.007210611365735531
1761431329347934000,10.224933837890624,0.001142310444265604,-0.03334258869290352,-0.01647844724357128
1761431329367878000,10.2448779296875,-0.0017582871951162815,-0.025284361094236374,-0.009453333914279938
1761431329387822800,10.26482275390625,0.0009317842777818441,-0.009775153361260891,-0.006614990532398224
1761431329407766800,10.284766845703125,-0.000522049143910408,0.0026647495105862617,-0.0014031799510121346
1761431329427712000,10.3047119140625,0.0009575684671290219,0.0037279222160577774,-0.0004871296987403184
1761431329447656000,10.324656005859374,-0.0004013050929643214,-0.0020929197780787945,-0.0005234246491454542
1761431329467601000,10.344600830078125,0.00047590467147529125,-0.0034854074474424124,-0.002736129565164447
1761431329487545000,10.364545166015626,-0.002917672973126173,0.000047626905143260956,-0.0008859446970745921
1761431329507489800,10.38448974609375,0.0010548572754487395,0.0001138090156018734,0.002321313600987196
1761431329527434000,10.40443408203125,0.00014785773237235844,0.001070172991603613,0.0006266946438699961
1761431329547379000,10.42437890625,0.0007881457568146288,-0.0017567891627550125,-0.0018476236145943403
1761431329567323000,10.444322998046875,-0.0012348094023764133,0.0009429194033145905,0.0016575016779825091
1761431329587267800,10.464267822265626,0.0007375153945758939,0.0014132959768176079,-0.00024012813810259104
1761431329607211800,10.484211669921875,-0.00114721548743546,-0.00020199641585350037,-0.0020125487353652716
1761431329627157000,10.504156982421875,-0.000401811208575964,0.0015065232291817665,0.0004786356585100293
1761431329647101000,10.524100830078124,0.00003922643372789025,-0.0009175194427371025,0.0007713611703366041
1761431329667046000,10.5440458984375,-0.0007226953748613596,0.00028599705547094345,0.0027497794944792986
1761431329686990000,10.563989990234376,0.0017313959542661905,-0.0003655371256172657,0.00015957618597894907
1761431329706935000,10.58393505859375,-0.0010008604731410742,-0.00040916725993156433,-0.00226719886995852
1761431329726879000,10.60387890625,0.0007712251390330493,0.00007933564484119415,-0.0013381728203967214
1761431329746824000,10.623823974609374,0.000124555139336735,-0.0010425979271531105,-0.0013012581039220095
1761431329766767900,10.643767822265625,0.002651334274560213,0.0007024528458714485,-0.0015862525906413794
1761431329786712800,10.663712890625,0.0016125086694955826,-0.0009723859839141369,-0.000022761989384889603
1761431329806656800,10.68365673828125,0.0014922600239515305,0.0010397899895906448,0.001599064446054399
1761431329826602000,10.70360205078125,-0.0010978418868035078,0.0007491596043109894,-0.0006527513032779098
1761431329846546000,10.7235458984375,0.00012146023800596595,0.0008170702494680882,0.0008506031008437276
1761431329866491000,10.743490966796875,-0.0008894021157175303,0.0034643318504095078,-0.0006302676629275084
1761431329886436000,10.76343603515625,-0.0006351638585329056,0.002224557101726532,-0.0004367972142063081
1761431329906380000,10.783380126953125,0.00004052231088280678,0.0008788788691163063,-0.002129525179043412
1761431329926324700,10.80332470703125,-0.0017014421755447984,0.000316073652356863,-0.00009711633902043104
1761431329946269000,10.82326904296875,-0.0025640407111495733,-0.0015082540921866894,0.0012116885045543313
1761431329966214000,10.8432138671875,-0.0005775625468231738,0.0022734347730875015,0.0006228635320439935
1761431329986157800,10.86315771484375,-0.0001705255126580596,-0.00025075487792491913,0.0015641676727682352
1761431330006103000,10.88310302734375,0.00028753819060511887,-0.0003607431426644325,0.0025093236472457647
1761431330026047000,10.903046875,-0.0020907472353428602,0.012533155269920826,0.004342237487435341
1761431330045992000,10.922991943359374,0.0005793569143861532,-0.0025897931773215532,0.0034347446635365486
1761431330065936000,10.942935791015625,0.001646742457523942,-0.016765572130680084,-0.011021082289516926
1761431330085881000,10.962881103515626,0.0020621768198907375,-0.035792604088783264,-0.023725006729364395
1761431330105825000,10.982824951171875,0.0009696470224298537,-0.03413785994052887,-0.010775106959044933
1761431330125769700,11.002769775390625,-0.0030763735994696617,-0.006353944074362516,-0.001989238429814577
