time,seconds_elapsed,z,y,x
1761430207559424500,0.082424560546875,-0.20793840155899523,-0.2624578541886061,-0.1091733452938497
1761430207579368700,0.10236865234375,-0.4577484441637993,-0.3001891074940562,0.015132687202095985
1761430207599311600,0.1223115234375,-0.23482582396268845,-0.1530574221406132,0.05294277789741754
1761430207619255600,0.142255615234375,0.3167816381156444,-0.04011157257072627,-0.08850129027366638
1761430207639198500,0.162198486328125,0.449934555542469,-0.08486885205544531,-0.06030497722849249
1761430207659142700,0.182142578125,0.198354580655694,0.1631689932450652,-0.2915465129636228
1761430207679086600,0.202086669921875,-0.09276713102459908,0.026707024335488674,0.059383624599874014
1761430207699029800,0.22202978515625,0.23153555024564265,0.05141381476446986,0.12351005981266498
1761430207718973700,0.2419736328125,0.6772814219266176,0.23071078985929488,-0.14825257914215326
1761430207738916600,0.26191650390625,0.5295715713590383,0.04291362437941134,-0.07598010074421763
1761430207758860500,0.281860595703125,-0.008515899410843849,-0.06357640011459588,0.3326553529433906
1761430207778804500,0.301804443359375,-0.06324117681086062,0.15365706853419542,0.10259411303400992
1761430207798747600,0.32174755859375,0.18521920475065706,0.10664236551150678,0.1152213932864368
1761430207818691800,0.34169189453125,0.4849824880480766,-0.020303733164444563,0.22068981964774428
1761430207838635800,0.3616357421875,0.4633241984695196,-0.12413513290844858,0.12032426938340067
1761430207858578700,0.38157861328125,0.3794681036531925,-0.16573855147212743,0.44103864383809266
1761430207878522600,0.401522705078125,0.0823696556508541,0.08934658199138938,0.3617923078395426
1761430207898465500,0.421465576171875,-0.026381226447224616,0.17543072812072932,0.15686485159955918
1761430207918409500,0.441409423828125,-0.01874269439280033,-0.08890059178955853,0.31601467233113945
1761430207938353700,0.461353759765625,-0.19930618229210376,-0.09988083548732102,0.11260733833052217
1761430207958296600,0.481296630859375,-0.33794425313174725,-0.11360906271897256,-0.009950316128134728
1761430207978240800,0.50124072265625,-0.30407471675574776,0.03967975702472031,-0.23409955551475284
1761430207998184700,0.521184814453125,-0.255718389865756,-0.100033322635293,-0.20238610119409858
1761430208018127600,0.541127685546875,-0.3671300156056881,-0.17449381259679794,-0.2679306595765054
1761430208038071600,0.561071533203125,-0.5542933401614427,-0.23597265591025351,-0.19794263885393737
1761430208058014700,0.5810146484375,-0.5855734445661306,-0.07094934003539383,-0.20778540295436976
1761430208077958700,0.600958740234375,-0.47052959980368614,0.016573752855882046,-0.16574498121291398
1761430208097902600,0.620902587890625,-0.1643693089455366,-0.05301029017567634,-0.12137874687239528
1761430208117845500,0.640845458984375,0.14807693031430244,-0.11709770855233073,-0.19227182667590675
1761430208137789700,0.660789794921875,0.09005787206590175,-0.24573482905514538,-0.10668101702146232
1761430208157733600,0.680733642578125,-0.02258826390504837,-0.10066197592765093,-0.05089424786977469
1761430208177676800,0.7006767578125,0.1362017836034298,-0.07292064010836184,0.03527165825888514
1761430208197620500,0.720620361328125,0.3039028673201799,-0.08466953009106218,0.013733122602477669
1761430208217563400,0.7405634765625,0.34770343060195447,-0.056899625764414666,-0.047692821479961275
1761430208237507600,0.760507568359375,0.29453765760362144,-0.0011762041725218296,-0.022351897865906356
1761430208257451500,0.780451416015625,0.21118892778754234,0.06482442741431295,0.07855645403824746
1761430208277394400,0.80039453125,0.14031155700981615,0.07735343492403626,0.2647556828022003
1761430208297338400,0.82033837890625,-0.1734621314615011,0.20379538347013293,0.33394115497022864
1761430208317281500,0.840281494140625,-0.3875678234785795,0.2570985191125423,0.2861529833570123
1761430208337225500,0.8602255859375,-0.2908464018702507,0.24878208779655395,0.20258060085289178
1761430208357169400,0.88016943359375,0.013199673312902449,0.042532662237808105,0.14508089030347765
1761430208377112300,0.9001123046875,0.14797639254927633,-0.1013369525797665,0.02871120376475155
1761430208397056500,0.920056396484375,0.16693360647559166,-0.14992073155008256,-0.07785495470538735
1761430208417000400,0.94000048828125,0.26931553806364533,-0.10370682351626455,-0.1726134056776762
1761430208436943600,0.959943603515625,0.33452012390196323,-0.06522000260315836,-0.22067615644857286
1761430208456887600,0.979887451171875,0.44716275274157524,-0.1488118935253471,-0.19671726177744567
1761430208476830500,0.99983056640625,0.3610159166395664,-0.22743615210279822,-0.1552826239094138
1761430208496774400,1.0197744140625,0.2736024216026068,-0.2878564993392676,-0.17020846342779694
1761430208516718300,1.03971826171875,0.1967249336272478,-0.4270296269036829,-0.07832681000083684
1761430208536661500,1.05966162109375,0.1628179878503084,-0.2884188093971461,-0.010411065507680176
1761430208556605700,1.079605712890625,0.15525544364154337,-0.20965733430609107,0.035811610354483124
1761430208576548600,1.099548583984375,-0.030047347739338873,-0.013813348231837153,0.06355608797892928
1761430208596492500,1.119492431640625,-0.3039256636738777,0.16845504388920962,0.09726144676916301
1761430208616436500,1.1394365234375,-0.4285936613500118,0.2592629306048155,0.20567739782445132
1761430208636379400,1.15937939453125,-0.4102420121014118,0.27602541096583005,0.2278094423945993
1761430208656323300,1.1793232421875,-0.26579905437529083,0.17320611087381838,0.085297452731058
1761430208676267300,1.199267333984375,-0.1567453899383545,0.13087247833944857,0.02002637752778828
1761430208696210400,1.21921044921875,0.011052139890193938,0.07325505969449878,-0.03527012388892472
1761430208716154600,1.239154541015625,0.14916414102911948,0.001950257284939289,-0.09495032028257847
1761430208736097500,1.25909765625,0.07125088026523589,-0.06363806717395783,-0.11791582000218331
1761430208756041500,1.27904150390625,-0.10627309380769728,-0.0060098348740488285,-0.1331767366938293
1761430208775985400,1.2989853515625,-0.17781272788643837,0.0910222601186484,-0.07618607164509594
1761430208795928600,1.318928466796875,-0.12439151882231235,0.05584858234152198,-0.0036879677977412935
1761430208815872500,1.33887255859375,-0.17031974178254602,-0.048934492104128,-0.04772497018389404
1761430208835816400,1.35881640625,-0.10553425813913345,-0.2050702987767756,-0.20476671272031963
1761430208855759400,1.37875927734375,-0.010236731854081154,-0.11833068441338837,-0.22518377006612716
1761430208875703600,1.39870361328125,-0.10745733515620232,0.021589169865101576,-0.11163359792754053
1761430208895646500,1.418646484375,-0.17407412588000296,0.03966192910708487,-0.07853197718411684
1761430208915590400,1.43859033203125,0.06018763445913791,-0.03786160168685019,-0.12799334270656107
1761430208935534600,1.45853466796875,0.28594109417200086,-0.09731493052206933,-0.13282076286301017
1761430208955477500,1.4784775390625,0.46025487402677534,-0.13593370725177228,-0.04307619452998042
1761430208975421400,1.49842138671875,0.6840911019414663,-0.23286183041334152,0.07637260719314218
1761430208995364400,1.5183642578125,0.7110983513325453,-0.2544736505016684,0.0917898104250431
1761430209015308300,1.538308349609375,0.44531391000449655,-0.18441987106651067,0.10530454103648662
1761430209035252500,1.55825244140625,0.23786592231094836,0.05504084615521133,0.22196429656296968
1761430209055195600,1.578195556640625,0.12756021198630332,0.17102248322442173,0.28790231124237176
1761430209075139600,1.5981396484375,-0.004595511096715927,0.14212678973823786,0.2868685842804611
1761430209095083500,1.61808349609375,-0.09676292266249656,0.05250519019775092,0.2988900075942278
1761430209115026400,1.6380263671875,-0.13867080406546592,-0.002316021857410669,0.21853958281129598
1761430209134970400,1.657970458984375,-0.14353519523143768,-0.0981329689066857,0.08966448883414269
1761430209154913500,1.67791357421875,-0.20095278045535087,-0.11272774983979761,0.009416501512378453
1761430209174857500,1.697857421875,-0.10772972235679626,-0.17652276114113627,0.09761354814246297
1761430209194801200,1.71780126953125,0.05793722518384456,-0.15474362166188657,-0.00016848843470215795
1761430209214744000,1.737744140625,-0.03882511295676231,-0.10567892730683087,0.07268588150441646
1761430209234688000,1.75768798828125,-0.1287070439338684,0.0011800035648047923,0.012863865487277507
1761430209254631200,1.777631103515625,-0.18382161291241644,0.0506762212049216,0.09457315753325819
1761430209274575400,1.797575439453125,-0.12203706465065478,0.027006226477771997,0.060965779224783176
1761430209294519300,1.817519287109375,0.003090367230772972,-0.05153364175185561,-0.0225303962379694
1761430209314462200,1.837462158203125,0.0760784465521574,-0.015587079906091093,-0.12895181247517465
1761430209334406100,1.85740625,0.14476853641867637,0.04265994187928736,-0.0692573683604598
1761430209354349000,1.87734912109375,0.2954606176674366,0.04993519357927143,0.0932514074102044
1761430209374293000,1.89729296875,0.47768122512400146,0.05774250632934272,-0.07259644965529441
1761430209394237000,1.91723681640625,0.4962994163542986,-0.11471132487244903,-0.05511603028327226
1761430209414180000,1.93718017578125,0.3719470604985952,-0.061223407247662544,0.03857625276222825
1761430209434124300,1.957124267578125,0.21311726550161839,-0.011740852806717156,0.013142244037240743
1761430209454067200,1.977067138671875,0.18015899875164032,-0.04430800134725869,0.09895809461921452
1761430209474011100,1.99701123046875,0.1839537148594856,-0.06373378263339399,0.01899286976158619
1761430209493955000,2.016955078125,0.13364099320471287,-0.16739523263797162,0.04423647048100829
1761430209513898200,2.036898193359375,-0.016112345889210702,-0.20263781093284486,-0.023241174855828283
1761430209533842200,2.05684228515625,-0.16482932767271993,-0.2190846494734287,-0.052355187267810105
1761430209553785000,2.07678515625,-0.3226432236254215,-0.12957220939584074,-0.03086377868875861
1761430209573729300,2.096729248046875,-0.21595921092927456,-0.11162249201163649,-0.04754471824616194
1761430209593673200,2.116673095703125,0.008304302486777305,-0.19463921339437365,-0.0008273907348513603
1761430209613616000,2.1366162109375,0.02022445738315582,-0.3447571480169892,0.012429273462295531
1761430209633560000,2.15656005859375,-0.1250812546521425,-0.32814956595674155,-0.08672142111957072
1761430209653503200,2.176503173828125,-0.3124292881250381,-0.2319003649700433,-0.1426578278750181
1761430209673447200,2.196447265625,-0.30946985379755493,-0.10159911064729094,0.0064919923678040505
1761430209693391000,2.21639111328125,-0.12650807258486746,0.019680925090983507,0.12203750304207205
1761430209713334000,2.236333984375,-0.18512568124830722,0.09711283207871019,0.21359175114557147
1761430209733278200,2.2562783203125,-0.1208072305947542,0.12020612289644778,0.1542936128720641
1761430209753221400,2.276221435546875,-0.11536474727988243,0.03427461004555225,0.10375278154984116
1761430209773165300,2.296165283203125,-0.06683364834487437,-0.056311158351972694,0.016332856772094964
1761430209793109200,2.316109130859375,0.06167115101516246,-0.12369403807744384,-0.11514145991802215
1761430209813052200,2.33605224609375,0.19999533360004423,-0.10111366521790623,-0.1434894563935697
1761430209832996000,2.35599609375,0.19712708468735216,0.002355257889255881,-0.053084962847083805
1761430209852940000,2.37593994140625,0.14575813197791576,0.06553045679181814,-0.01739332561045885
1761430209872883200,2.39588330078125,0.3179869222521782,-0.021967355527728796,-0.013341712132096289
1761430209892827400,2.415827392578125,0.3582178103536367,-0.12194186064787209,0.06371580858528614
1761430209912770300,2.435770263671875,0.33324235905110833,-0.09690781102590262,0.046910219734907145
1761430209932714200,2.45571435546875,0.39234161375164983,-0.040314109405502674,0.09424567914456128
1761430209952658200,2.475658203125,0.3138251263976097,-0.03387165526784956,0.05916895893588662
1761430209972601000,2.49560107421875,0.047131169009208676,-0.10392295048497617,-0.05825988126695156
1761430209992545000,2.515544921875,-0.11014788941442966,-0.21928609032966195,-0.032288258533924814
1761430210012488200,2.53548828125,-0.0827355663537979,-0.07822780660577118,-0.12895517347604035
1761430210032432000,2.55543212890625,-0.04505845438838005,-0.0400151995241642,0.0612622779533267
1761430210052376300,2.575376220703125,-0.12902268575429915,-0.02213664768002927,0.027148995949327945
1761430210072319200,2.5953193359375,-0.08442834174633025,-0.12810440186560154,-0.0046780748136341565
1761430210092263200,2.61526318359375,0.06767652890980243,-0.19053462761975823,0.04748787349238991
1761430210112206300,2.635206298828125,0.18816928672790526,-0.21048399438858031,0.027309739468991755
1761430210132150300,2.655150390625,0.005015197813510895,-0.15821480490379033,0.010599281556159258
1761430210152094200,2.67509423828125,-0.2806657841175794,-0.029398455376550555,-0.025394991888850926
1761430210172037000,2.695037109375,-0.2803536494284868,0.014121464332938193,-0.047866935937851664
1761430210191981600,2.714981689453125,-0.002706336349248886,0.0320971198759973,0.023989509005099535
1761430210211924500,2.734924560546875,0.17393910132348536,0.03574577857665717,0.11269202093929051
1761430210231868400,2.754868408203125,0.1488186885923147,0.021113222916424274,0.06264993291944265
1761430210251812600,2.7748125,0.16393150205016135,-0.004128405041620135,-0.05763415058404207
1761430210271755800,2.794755859375,0.25014555816948414,-0.06492423452697695,-0.04669613859280944
1761430210291699700,2.81469970703125,0.311379486811161,-0.05762837843038141,-0.052579789803922174
1761430210311642600,2.834642578125,0.33079262781143187,-0.15654840606153012,-0.0007706921115517615
1761430210331586600,2.854586669921875,0.18661504302322862,-0.1454324071548879,0.0037090836510062218
1761430210351530500,2.874530517578125,0.014444120416045187,-0.09830722949504851,-0.041703591002523896
1761430210371473700,2.8944736328125,-0.07257423782348632,-0.03362447557374835,-0.014426000237464903
1761430210391417600,2.91441748046875,-0.06819383078217506,-0.010143573677912354,0.05563230924233794
1761430210411360500,2.934360595703125,0.11013853706419467,-0.020193623853474854,0.0782718649432063
1761430210431304700,2.9543046875,0.1701730267882347,-0.016757438859716058,0.11125088222026824
1761430210451248600,2.97424853515625,0.04703121576607227,-0.009146452399343252,0.06975406583622097
1761430210471191600,2.994191650390625,-0.06313245573937892,0.021465032028779387,-0.0014693419001996517
1761430210491135500,3.014135498046875,-0.1273959613353014,-0.049880467717349525,-0.00016293547675013542
1761430210511078700,3.03407861328125,0.01621814435124397,-0.042999110705778,0.021998189057409762
1761430210531022600,3.054022705078125,0.19131985971331594,0.008799611723050474,-0.014226970534026622
1761430210550966500,3.073966552734375,0.21010347063839435,0.10037585246264934,-0.043186815297603605
1761430210570909400,3.093909423828125,0.1349988375544548,0.14471307990439236,0.03880538534298539
1761430210590853600,3.113853515625,0.041647769162058826,0.17314700109772382,0.13716405276432633
1761430210610796800,3.133796875,0.013266893330216406,0.17125936072021722,0.09311945159360766
1761430210630740700,3.15374072265625,-0.003326514074206352,0.13507862479239702,0.11216609736904501
1761430210650684700,3.1736845703125,0.0021235680252313614,0.11542210349030792,0.10530220294892788
1761430210670627600,3.193627685546875,-0.06697510264217853,-0.0026195348486304283,0.0687017803043127
1761430210690571500,3.213571533203125,-0.13408172270953655,-0.1190161459269002,0.016342501383274793
1761430210710514400,3.233514404296875,-0.10840075348615645,-0.1799266513004899,0.028695348608493803
1761430210730458600,3.253458740234375,-0.027676526954770086,-0.26513682760689405,-0.031120676059275865
1761430210750402800,3.27340283203125,-0.042480128332972523,-0.30299934260919686,-0.0933418621726334
1761430210770345700,3.293345703125,0.030799627411365507,-0.27859588250834494,-0.14386793431714176
1761430210790289700,3.31328955078125,0.009222586375474929,-0.23568397516198455,-0.1338964292705059
1761430210810232600,3.333232666015625,0.04360767105817794,-0.23444237760305403,-0.12226254396960139
1761430210830176500,3.353176513671875,-0.04965045835375786,-0.11026742414087057,-0.10350830526947974
1761430210850120400,3.373120361328125,-0.05173427889049053,0.03325593452230095,0.035100977867096664
1761430210870063600,3.393063720703125,-0.020521394503116606,0.054517114542052145,0.11395824148282407
1761430210890007800,3.4130078125,0.03667114979326725,0.013699549126438795,0.015064444271475077
1761430210909950700,3.43295068359375,0.18019874624013899,-0.02904244501311332,-0.07224354456439613
1761430210929894700,3.452894775390625,0.23359306729733942,0.0346057416960597,-0.029834581771492955
1761430210949838600,3.472838623046875,0.07418167302012443,0.08204415002353489,-0.009033055152744053
1761430210969781800,3.49278173828125,-0.0009247136294841766,0.03362491396516561,-0.018758038092404603
1761430210989725700,3.5127255859375,-0.025467034211754797,0.05964355417769402,0.017071400179713963
1761430211009668600,3.532668701171875,-0.1473509541273117,0.11302099716532975,-0.007525573199242353
1761430211029612500,3.552612548828125,-0.12820786224007605,0.07992149531375617,-0.016662234856933356
1761430211049556700,3.572556640625,-0.03779693895280361,-0.034925840495899314,0.018732757520675658
1761430211069499600,3.592499755859375,-0.017196633994579314,-0.18722532040867954,-0.14714096463844178
1761430211089443600,3.612443603515625,-0.011456629037857055,-0.2881999790146947,-0.20123685809373854
1761430211109386800,3.63238671875,-0.026182489004731177,-0.2523291858188808,-0.10628756072446703
1761430211129330700,3.65233056640625,0.006666472151875495,-0.1665531192580238,0.006841390327364206
1761430211149273600,3.672273681640625,0.004259995532035828,-0.1278140771495178,0.04265782298743725
1761430211169217500,3.692217529296875,0.04292845662236214,-0.057071146406419575,0.042025954824686046
1761430211189161500,3.712161376953125,-0.01551847164928913,0.02046688783690333,0.06423194141387939
1761430211209104100,3.732104248046875,0.02577449272572994,0.07642225502114743,0.04197144815847277
1761430211229048000,3.752048095703125,0.049933951470255845,-0.06783613991830498,0.10598302481994032
1761430211248991000,3.771990966796875,0.07265840897560119,-0.0776203787645325,0.049454351259768006
1761430211268935200,3.79193505859375,0.1731616872102022,0.11760511008519679,0.15162804692462087
1761430211288879000,3.811879150390625,0.2516425187289715,0.16491590997762978,0.18897329658716916
1761430211308822300,3.831822265625,0.2735445539355278,0.0495454636093229,0.13797609979957343
1761430211328766200,3.85176611328125,0.25767653819620606,-0.07318268857803195,-0.1202380524046719
1761430211348709000,3.871709228515625,0.18967676868140695,-0.05169891531616449,0.014742957232147455
1761430211368653000,3.891653076171875,0.20859481964111326,0.07702906180787832,0.02004398624971509
1761430211388597000,3.911596923828125,0.19353344410955906,0.03564819995369762,-0.06517682104855775
1761430211408540000,3.931539794921875,0.32796178829967976,0.09871697933971882,-0.006951280442625283
1761430211428484000,3.951484130859375,0.40747137834429736,0.12560060235112905,0.02773205653429031
1761430211448427300,3.97142724609375,0.2730950566023588,0.10192447014413773,0.0014905308187007902
1761430211468371200,3.99137109375,0.2832949635773897,0.10049202618822455,0.07572758728787303
1761430211488315100,4.011315185546875,0.3320136940389871,0.06336538771241904,-0.040331718127429486
1761430211508258000,4.031258056640625,0.27464930030703544,0.001490676949173212,-0.012300678646564483
1761430211528202000,4.051201904296875,0.20059856019020078,-0.0764835202217102,-0.06489113597497344
1761430211548145200,4.071145263671875,0.16051087995171545,-0.23240802223123608,-0.14858824083730576
1761430211568089000,4.091089111328125,0.19705401945114134,-0.2985654518149793,-0.11672507584765553
1761430211588033300,4.111033203125,0.22104805850088596,-0.23276962208524346,-0.00786620333045721
1761430211607976200,4.13097607421875,0.1684083552032709,-0.15896913040243088,-0.022737901508808136
1761430211627920100,4.150920166015625,0.13755962795317173,-0.12211374661605805,-0.07645356347486376
1761430211647863000,4.170863037109375,0.18351064726710317,-0.11844546989947556,-0.09640081135183572
1761430211667807000,4.190806884765625,0.04201192629933357,-0.04459576878007501,0.03035422173142433
1761430211687750100,4.210750244140625,-0.30030338152348995,0.137109180771932,0.12196589911058545
1761430211707694000,4.230694091796875,-0.31280688926577566,0.10862612320724874,0.017910481352359054
1761430211727638000,4.250637939453125,-0.16179156741201878,0.09994542515613138,0.05476356358379125
1761430211747581000,4.270580810546875,0.053338791477680204,0.002966192861832678,0.0267848388120532
1761430211767525000,4.290525146484375,0.12051204704046249,-0.05872563561517745,-0.06239113585278391
1761430211787468300,4.31046826171875,0.45826749960184093,-0.1803121069541201,-0.13458923384025692
1761430211807412200,4.330412109375,0.8710346462666988,-0.26398995912671086,-0.2171775006778538
1761430211827356200,4.350356201171875,0.910934110456705,-0.32133740172386166,-0.09778422853425145
1761430211847299000,4.370299072265625,0.31202421445548534,0.10622340944707392,-0.35090354181751604
1761430211867243000,4.390242919921875,-0.11856149749457835,-0.04575027257744223,0.34313320007696746
1761430211887186200,4.410186279296875,-0.09178162711858749,-0.2675106440661475,0.330277664026618
1761430211907130000,4.430130126953125,-0.0015378770917654036,-0.3272919992793351,0.06205825063660741
1761430211927074300,4.45007421875,0.0006336217284202575,-0.22890483641587198,0.09162088359892367
1761430211947017200,4.470017333984375,-0.0047439796566963194,-0.08751304642129688,0.2319287873469293
1761430211966961200,4.489961181640625,-0.08889993420243263,0.15297664852198212,0.24349209162965416
1761430211986904000,4.509904052734375,-0.06657295158207416,0.4081735717969015,0.2604768364392221
1761430212006848000,4.529847900390625,0.06292611951231956,0.5478770799109712,0.2467408642925322
1761430212026792000,4.5497919921875,0.18712533063292502,0.3230300309859216,0.22079539891406894
1761430212046735000,4.569735107421875,0.1634896035015583,0.09285502850376069,0.0683493136048317
1761430212066679000,4.589678955078125,0.1122112516850233,-0.0012095949854701758,-0.08472454821392893
1761430212086622000,4.6096220703125,-0.01517301921248436,0.1858407524487935,-0.002166676514595747
1761430212106566100,4.629566162109375,-0.1331903268277645,0.08644010169385001,0.2423158874571323
1761430212126509300,4.64950927734375,-0.2877881833434105,-0.10826218526568263,0.2694233823522925
1761430212146453200,4.669453369140625,-0.47247605769634243,-0.19077340481169522,0.06988762908801437
1761430212166397200,4.689397216796875,-0.694638214918971,-0.11495549062555656,0.1126959664620459
1761430212186340000,4.709340087890625,-0.7166460485875606,-0.04147316151382401,0.07995192698463797
1761430212206284300,4.7292841796875,-0.5728145007580518,-0.14474961252249777,0.08373027647957205
1761430212226227200,4.749227294921875,-0.6786293294042348,-0.19090258414931593,-0.0413897027477622
1761430212246171400,4.76917138671875,-0.5389402882069348,-0.13715528493598103,-0.045959056489914656
1761430212266115300,4.789115234375,-0.36348902875483036,-0.11041748186973854,0.1419737911336124
1761430212286058500,4.80905859375,-0.37025428510606284,-0.038328506812546397,0.10080299183353782
1761430212306002400,4.82900244140625,-0.35832536238133905,-0.11116225408874451,-0.015224018747359513
1761430212325945300,4.8489453125,-0.2622866623401642,-0.23942283289674668,-0.1407736215636134
1761430212345889300,4.86888916015625,-0.0887660786896944,-0.29434947808776046,-0.21509718727245924
1761430212365833200,4.888833251953125,0.04573065456151962,-0.27962292400114236,-0.2093072056941688
1761430212385776400,4.9087763671875,0.04530979880094528,-0.248311456343811,-0.16585633263289928
1761430212405720600,4.928720458984375,0.1755629031330347,-0.23813991694673894,-0.20662746509090066
1761430212425663500,4.94866357421875,0.3052320700973272,-0.21847950492082163,-0.18567323212847112
1761430212445607400,4.968607421875,0.24905191771388052,-0.14201949343886225,-0.12005290509611367
1761430212465550300,4.98855029296875,-0.01912438718676567,-0.0662110046681948,-0.02295066747665405
1761430212485494300,5.008494384765625,-0.09592764088213443,-0.0035285394523292776,-0.030476094545423982
1761430212505438200,5.028438232421875,0.030840543943643568,-0.07525288244821131,-0.07891966132745146
1761430212525381400,5.04838134765625,0.1992728645443916,-0.1372826011100784,-0.1282560852959752
1761430212545325300,5.0683251953125,0.15098492671549318,-0.06229753928519785,-0.0671064739368856
1761430212565268200,5.088268310546875,0.10311083038449287,0.04307107996344566,0.04533171837180853
1761430212585212400,5.10821240234375,0.1169517242103815,0.0949722398534417,0.09422273666039109
1761430212605156400,5.12815625,0.23569793062210082,0.1794588876582682,0.12052008421644568
1761430212625099500,5.148099609375,0.09467033429741858,0.11605298527237028,0.1314282855913043
1761430212645043500,5.16804345703125,0.045880292165279384,0.08904120583664625,0.1778583205938339
1761430212664986400,5.187986328125,0.15906418827474117,0.14208411964029072,0.19911723559126257
1761430212684930300,5.207930419921875,0.3357710007458925,0.04438179723583162,0.21757132230103016
1761430212704873200,5.227873291015625,0.40846097390353675,-0.13252382574304938,0.1158607141032815
1761430212724817200,5.247817138671875,0.3906692966252565,-0.2233185607161373,0.007086889521032571
1761430212744761300,5.26776123046875,0.20158347957432268,-0.2455788165095262,0.06705912766382098
1761430212764704500,5.28770458984375,0.09146481625437736,-0.26693757515223693,-0.020580577344447373
1761430212784648400,5.3076484375,0.06613865181803703,-0.2739614276407286,-0.07552446593120694
1761430212804591400,5.32759130859375,-0.0018149404674768447,-0.22865791245009748,-0.03138020377829671
1761430212824535300,5.347535400390625,0.017898060262203214,-0.16855638537183404,0.028211364483833313
1761430212844479200,5.367479248046875,0.033280338311195375,-0.1560409497297369,0.06958060896545648
1761430212864422400,5.38742236328125,0.1081681137740612,-0.20777219641292466,-0.11311331509128213
1761430212884366300,5.407366455078125,0.12067863577902316,-0.29274005186343566,-0.03982318408340216
1761430212904309200,5.427309326171875,-0.015450667110085487,0.00421063083182089,-0.06218085410296917
1761430212924253400,5.44725341796875,-0.18889117126166818,-0.12205371439135633,0.1855650955788791
1761430212944196400,5.4671962890625,-0.3161982852697372,-0.1367975849389564,0.0031502807244658468
1761430212964140300,5.487140380859375,-0.20160744497179983,-0.0884146531698294,-0.3291077434644103
1761430212984084500,5.50708447265625,-0.2633271113038063,-0.2493325978187844,-0.004788549450784921
1761430213004027400,5.52702734375,-0.2640758838444948,0.019412839606171472,-0.14358619476631282
1761430213023971300,5.546971435546875,-0.03487959020137787,0.11011337522347457,-0.14935849455744027
1761430213043914200,5.566914306640625,0.32422727794647216,0.13285738681266082,-0.03651332888305187
1761430213063858200,5.586858154296875,0.30086978323459623,0.2094307590086013,0.10636340243965386
1761430213083802400,5.60680224609375,0.0647889907747507,0.19728680529370904,0.14396964112594723
1761430213103745500,5.62674560546875,0.0036491701573133466,0.16709372894074767,0.003549947566539049
1761430213123689500,5.646689453125,0.2107896993368864,0.057896610045665875,0.047084845649451014
1761430213143632400,5.66663232421875,0.27090076142847536,-0.00829047945740167,0.12857216550782322
1761430213163576300,5.686576416015625,0.21201485721766947,-0.0013266089612618088,0.08102467078268527
1761430213183519500,5.70651953125,0.21667349667847155,-0.011470191772328688,0.17449468937963247
1761430213203463400,5.72646337890625,0.21905133172571659,-0.026761352905188687,0.10880421972051262
1761430213223407400,5.746407470703125,-0.020133271968364716,-0.12169616052480414,0.0498249381378293
1761430213243350300,5.766350341796875,-0.21466391042172908,-0.1423657039274927,0.016686200254410505
1761430213263294500,5.78629443359375,-0.20703940689265726,-0.0399304118841188,0.013597586589306591
1761430213283237400,5.8062373046875,0.09315700712502002,0.0628226637044223,0.17367694325596092
1761430213303181300,5.826181396484375,0.3318804230481386,0.060178117712121455,0.18404694610089062
1761430213323125200,5.846125244140625,0.16673896068632602,-0.05315932955781463,-0.030088264271616934
1761430213343068400,5.866068359375,-0.06472527788877487,-0.17696283305883406,-0.14772724009379742
1761430213363012400,5.886012451171875,-0.052614568856358526,-0.30107973619084805,-0.2480965166851878
1761430213382955300,5.905955322265625,0.12163023741543293,-0.2759864671949297,-0.19154490064084528
1761430213402899200,5.925899169921875,0.13755495177805424,-0.11731586308134719,-0.11296280070468782
1761430213422842400,5.94584228515625,0.17513269502222537,0.010196477475506253,-0.051288580949604506
1761430213442786600,5.96578662109375,0.12418167546391487,-0.018145376953622325,-0.05017199800983071
1761430213462730500,5.98573046875,0.017959435060620307,-0.14362665464086458,-0.13504253056570886
1761430213482673400,6.00567333984375,-0.07172726560533046,-0.206227999178227,-0.12415405680462717
1761430213502617300,6.025617431640625,-0.0754594378709793,-0.17308812878364696,-0.005619593447446823
1761430213522560300,6.045560302734375,-0.011128712257742882,-0.09750500973407178,0.035680677451193334
1761430213542504200,6.065504150390625,0.09738076229989528,-0.01555553399035707,0.082263564927876
1761430213562448400,6.085448486328125,0.04552840998768806,0.056623096678243015,0.1672626922994852
1761430213582391300,6.105391357421875,-0.0037111294776201245,0.10894796643960289,0.09053718001544475
1761430213602335500,6.12533544921875,-0.05270984592437744,0.03844554362122435,0.027276567851752042
1761430213622278400,6.1452783203125,-0.06709785223901271,0.01302264081214089,0.003293780848383903
1761430213642222300,6.165222412109375,0.0394137264996767,-0.014551078788703306,-0.009088292471319436
1761430213662165500,6.18516552734375,0.020459435182809828,-0.05218943421288859,-0.027477643381804227
1761430213682109400,6.205109375,-0.03609422668814659,-0.038504854326718484,-0.09272373027428985
1761430213702053400,6.225053466796875,0.05794716205596923,0.01295045692534186,-0.07854863605797291
1761430213721996300,6.244996337890625,0.15644611473083495,-0.03619975115554407,0.042165947817265986
1761430213741940200,6.264940185546875,0.06288754106760025,-0.0008554569187108426,-0.09267477656602859
1761430213761883100,6.284883056640625,-0.017469021195173264,-0.13283223410509526,0.0424178767517209
1761430213781827300,6.304827392578125,0.12829086434841155,-0.07989862589482218,-0.02716170930042863
1761430213801771500,6.324771484375,0.12446867571175098,-0.07784312727027572,0.13208324236869812
1761430213821714400,6.34471435546875,-0.03328676805198193,-0.09240461785513907,-0.03413169444352388
1761430213841658400,6.364658447265625,-0.12641688717007638,-0.1675245215734467,-0.06797258924692869
1761430213861601300,6.384601318359375,-0.02267185053527355,-0.17398571694418788,-0.013656623300164938
1761430213881545200,6.404545166015625,0.025811317604780195,-0.1636907886294648,0.007042173596471548
1761430213901488400,6.42448828125,-0.0953191535949707,-0.15353349695345386,-0.08301745203509926
1761430213921432300,6.444432373046875,-0.19986030904352664,-0.11632289738808758,-0.10457140445634722
1761430213941376500,6.46437646484375,-0.09689444008767605,-0.04122070285640657,-0.024869652840495107
1761430213961319400,6.4843193359375,0.06993862862288952,-0.060337637389078734,-0.044447190622240305
1761430213981263400,6.504263427734375,0.035596798560023304,-0.15341045509567483,-0.09093553168326615
1761430214001206300,6.524206298828125,0.06667699647843837,-0.20871566954180598,-0.14060995543450117
1761430214021150500,6.544150390625,0.09528525132536887,-0.13214152102773077,-0.10220131432414055
1761430214041093400,6.56409326171875,0.12362404158115387,-0.07346341434870846,-0.08376461714059114
1761430214061037300,6.584037353515625,0.21078210055232047,-0.2155501734706573,-0.019345774852484465
1761430214080981200,6.603981201171875,0.2921189060240984,-0.23972019014181567,-0.16715031796619295
1761430214100924200,6.623924072265625,0.22873276778459548,-0.25513724724324416,-0.02194032139033079
1761430214120868400,6.643868408203125,0.02139350116252899,-0.19508465560693292,0.026537293791770934
1761430214140811500,6.6638115234375,-0.13204992462098597,-0.18148896871376782,0.04261369158476591
1761430214160755500,6.68375537109375,-0.08518763568103313,-0.05623066786113195,0.1301524204365909
1761430214180698400,6.703698486328125,0.1792044745057821,0.08727685391209088,0.2200992333434522
1761430214200641800,6.723641845703125,0.32472821320593354,0.3688618808995932,0.4079541934251785
1761430214220585700,6.743585693359375,0.24509879617393016,0.4243224503042176,0.4350404994018376
1761430214240529000,6.76352880859375,-0.03416062827706337,0.30154030290730294,0.15498159513622523
1761430214260472800,6.783472900390625,-0.18849720350801943,0.21425306459851562,0.10322466602250933
1761430214280415700,6.803415771484375,-0.07377835291624069,0.2884559630697593,0.1717474364981055
1761430214300359700,6.823359619140625,0.1775888560026884,0.2273965324784629,0.09117766987606883
1761430214320302800,6.843302734375,0.3643184653162956,-0.053392375695286313,0.06400616983398795
1761430214340246800,6.863246826171875,0.391289474350214,-0.15149877625545485,-0.10717866434529423
1761430214360191000,6.88319091796875,0.16027297954261302,-0.2507880207914859,-0.21425079957619309
1761430214380134000,6.9031337890625,-0.09483049329519272,-0.40139034139756113,-0.09759367439821362
1761430214400077800,6.923077880859375,-0.3146305975615978,-0.36061460582967847,-0.18528408668041227
1761430214420020700,6.943020751953125,-0.3067752078860998,-0.3395490579798817,-0.06154284846037626
1761430214439964700,6.962964599609375,-0.06319266149401664,-0.2316776621300727,-0.070965341322124
1761430214459907800,6.982907958984375,0.0870540140748024,-0.04704728098488412,0.12012713937610386
1761430214479851800,7.002851806640625,-0.06676759737133979,0.14366044731261207,0.36799554639384147
1761430214499795700,7.022795654296875,0.036194764453172684,0.12083451132732442,0.27302432945370675
1761430214519738600,7.042738525390625,0.3514835336625576,-0.09499977631433866,0.13497034211233258
1761430214539682800,7.062682861328125,0.29540917974114417,-0.21974214526778085,-0.04822393268197775
1761430214559626000,7.0826259765625,0.13947569070756435,-0.2277850386057049,0.07133227493837475
1761430214579570000,7.10256982421875,0.008402502164244652,-0.20504003150267525,0.02219955684840679
1761430214599513900,7.122513916015625,0.032090251743793485,-0.1703194129889831,-0.02984115764275193
1761430214619456800,7.142456787109375,0.05318389317691326,-0.042167801847634835,-0.06503989679589867
1761430214639400700,7.162400634765625,-0.15832827521562576,0.06703603904917836,0.1656634404093027
1761430214659343600,7.182343505859375,-0.15442542255818842,0.1365813483723905,0.23615400382652876
1761430214679287600,7.20228759765625,-0.03228957370817661,-0.01290908373533748,0.24292495926618574
1761430214699230700,7.222230712890625,0.015150807380676269,-0.16728766234396025,0.08272986726537346
1761430214719175000,7.2421748046875,-0.06873626709580422,-0.20520753355668855,-0.015957301457971335
1761430214739117800,7.262117919921875,-0.044454643276333805,-0.11422531318748369,-0.097453096883744
1761430214759061800,7.282061767578125,0.0565109917730093,-0.08125610491838306,-0.09884396672025322
1761430214779005700,7.302005615234375,0.0596434445798397,-0.15491970888115464,-0.06342091729193926
1761430214798948900,7.321948974609375,0.04446925632357597,-0.007599774371547391,-0.09152078422531484
1761430214818892800,7.341892822265625,0.18685060534477232,0.07730459081362932,0.053293929422646755
1761430214838835700,7.361835693359375,0.3438572765678167,0.09115730294147506,0.15696473177745937
1761430214858779600,7.381779541015625,0.45127544875741005,0.0018731072453665545,0.1290972122952342
1761430214878722600,7.40172265625,0.3512742748260498,-0.10406655107359401,0.039775399418920276
1761430214898666800,7.421666748046875,0.1540472368955612,-0.15113600735766813,-0.05606997000724077
1761430214918610700,7.441610595703125,0.06781213798820972,-0.16042488216869533,-0.0526157379001379
1761430214938553900,7.461553955078125,0.02855097170174122,-0.14381023104684426,-0.025193624097853896
1761430214958497800,7.481497802734375,-0.015174772778153418,-0.15567328546112402,-0.01541808001473546
1761430214978440700,7.501440673828125,0.013067571365833282,-0.1825075346391648,0.09487798569872975
1761430214998384600,7.521384521484375,0.012950666987895964,-0.121494409141317,0.13122092645093797
1761430215018328600,7.54132861328125,-0.20851298657655715,0.055113144206441936,-0.0048883565634489055
1761430215038271700,7.561271728515625,-0.2271983978241682,0.12040750895375385,-0.014074410320818423
1761430215058216000,7.5812158203125,-0.05507715957760811,0.05463447557771578,-0.040031566137075425
1761430215078158800,7.601158935546875,0.12282207754850387,0.009582267125387442,-0.19300401340797543
1761430215098102800,7.621102783203125,0.006709142249822616,-0.04378626989494078,-0.15688582132235168
1761430215118045700,7.641045654296875,-0.13213351125121117,0.037449972695636095,-0.20648454948887227
1761430215137989600,7.66098974609375,0.031028759992122647,0.049382523565995505,-0.100500501755625
1761430215157932800,7.680932861328125,0.240447755497694,0.010633439554087817,-0.10279957247823476
1761430215177876700,7.700876708984375,0.2396235796332359,-0.06177842904822901,-0.06948518576696515
1761430215197821400,7.720821533203125,0.08816752827465534,0.03239885875195032,-0.05717442411780357
1761430215217764400,7.740764404296875,-0.07653378910422325,0.04816843506849836,0.019689765984565018
1761430215237708500,7.76070849609375,-0.02772738035917282,-0.05499690198220778,0.010576777463406324
1761430215257651500,7.7806513671875,-0.0781043994218111,-0.11376612557736225,-0.0007741992428898811
1761430215277595600,7.800595703125,-0.028833880296349524,-0.03627857941226102,0.011407090807706117
1761430215297538600,7.82053857421875,0.1252998658388853,-0.007164183407789096,0.105552816709131
1761430215317482500,7.840482421875,0.1988864955753088,-0.09785227053547277,0.22533406525701283
1761430215337426400,7.860426513671875,-0.030488661766052243,-0.1429484905178193,0.115054073895514
1761430215357369300,7.880369384765625,-0.15200608645677566,-0.04186551269912161,0.10516907808855175
1761430215377313300,7.900313232421875,-0.002734393399953842,-0.0377177088372875,0.1561426017396152
1761430215397256400,7.92025634765625,0.18629121789634226,-0.050204050815640944,0.17691358708962798
1761430215417200600,7.94020068359375,0.026622633987665175,-0.08197142271404154,0.08403744273260236
1761430215437143600,7.9601435546875,-0.08117898456156253,-0.0649798097722698,0.0616619447953999
1761430215457087500,7.98008740234375,0.04530336906015873,-0.08733440191876142,0.03315671193152666
1761430215477031400,8.000031494140625,0.07997603851258754,-0.0746430160547141,0.009276362389326095
1761430215496974600,8.019974609375,-0.0101040453851223,-0.00048234244013438,0.04569748294427991
1761430215516918500,8.03991845703125,-0.07144786414206028,-0.046117539553833194,-0.06562427255511283
1761430215536861400,8.059861328125,0.16547054818570614,-0.11046396962627768,-0.13785335020273923
1761430215556805600,8.0798056640625,0.24960370637774465,-0.1462019302226603,-0.11654577375799417
1761430215576748500,8.09974853515625,0.16079904924333094,-0.03170496048694476,-0.07579173856526612
1761430215596692500,8.1196923828125,0.02183130805790424,-0.0012736594978952779,-0.06723799136206507
1761430215616636400,8.139636474609375,-0.054040217745304105,-0.015079249114962294,-0.045468350363522765
1761430215636579600,8.15957958984375,-0.03777005094587803,0.026672537543997166,-0.008108926045149564
1761430215656523500,8.1795234375,0.017054595175385476,0.08402327720993198,-0.005118804318457842
1761430215676466400,8.199466552734375,0.06455459749698639,0.12033314680960029,0.09267200008705258
1761430215696410400,8.219410400390625,0.1617033046066761,0.1174510611678008,0.09820157716348767
1761430215716353500,8.239353515625,0.10953589499592781,0.0009275083747692406,0.09808788765594363
1761430215736297700,8.259297607421875,-0.052447395595908164,-0.06141881108875386,0.043983372502773996
1761430215756241700,8.27924169921875,-0.04465338071882725,-0.2560154731161892,-0.09006050241440534
1761430215776184600,8.2991845703125,0.12109423084259033,-0.40428109440300614,-0.13946896870583295
1761430215796128500,8.31912841796875,0.18676701871454715,-0.3360174132550135,-0.1275830083400011
1761430215816071400,8.339071533203125,0.15598901861310005,-0.25161594124929976,-0.027478958556056022
1761430215836015400,8.359015380859375,0.04846855509281158,-0.1728693897327408,0.03738149001970887
1761430215855958500,8.37895849609375,-0.028021394869685173,-0.13181735797412691,0.0858091285802424
1761430215875902500,8.39890234375,-0.0025946926683187484,-0.08277704000850207,0.12112272628471255
1761430215895846700,8.4188466796875,-0.024347090271115302,-0.04517619901653379,0.1621906497322023
1761430215915789600,8.43878955078125,-0.02729483416080475,0.005132220922457054,0.2145217254720628
1761430215935733500,8.4587333984375,-0.03644786243140697,0.04749771903296932,0.2023896813906729
1761430215955676700,8.4786767578125,0.02856558474898338,0.0838923169071786,0.17197130838185548
1761430215975620600,8.49862060546875,-0.08322773378491401,0.04084254915982019,0.16031155798733235
1761430215995563500,8.5185634765625,-0.05100713365972042,0.025679357221606185,0.09089213093295694
1761430216015507500,8.538507568359375,0.1712497161090374,-0.0053221905366051935,-0.015286562589555977
1761430216035450400,8.558450439453125,0.25426585296988485,-0.1005494006649591,-0.0682845778055489
1761430216055394300,8.578394287109376,0.24211013575196264,-0.08808545774808153,-0.19798589347377418
1761430216075338500,8.59833837890625,0.15820844822824,-0.12287840171246789,-0.11739449954181909
1761430216095281700,8.61828173828125,0.06420914506018162,-0.10320974244801327,-0.11539280433058738
1761430216115225600,8.6382255859375,-0.006356675550341606,-0.08556366591919214,-0.16661650335043668
1761430216135168500,8.65816845703125,0.027612229546904562,-0.04972457390273921,-0.08786693789288401
1761430216155112400,8.678112548828125,0.0843307265907526,0.010526887606806121,-0.14925430353060365
1761430216175055600,8.6980556640625,0.22325813576579093,-0.07594906628513708,-0.01920008277148008
1761430216194999000,8.7179990234375,0.25236264969706534,-0.13090286434455775,0.03992386797890067
1761430216214942000,8.73794189453125,0.08933891014158725,-0.10523678216305561,0.003422375664114952
1761430216234886000,8.757885986328125,-0.06827449480295181,-0.1349679218263831,-0.004536182124912739
1761430216254830000,8.777830078125,-0.14245090712606906,-0.15106376410536468,-0.015353490345925092
1761430216274773200,8.797773193359374,-0.17917524841129778,-0.09990870987493544,0.10480229060277342
1761430216294717200,8.81771728515625,-0.1806611030548811,-0.06626816908237523,0.07908464263081551
1761430216314660000,8.83766015625,-0.05594225197434425,0.05397310732584446,0.12282733824551105
1761430216334604000,8.85760400390625,-0.013563830450177191,0.030117618230264633,0.17509864662215113
1761430216354547000,8.877546875,-0.1882254008293152,-0.006093480869778432,0.13251608082801103
1761430216374491000,8.897490966796875,-0.24409400304555892,-0.06018836967807729,0.04587941538244485
1761430216394434800,8.917434814453125,-0.03668517831861973,-0.1282800689597614,0.033804216054826974
1761430216414378000,8.9373779296875,0.2473532971024513,-0.11591967774890362,0.046181320938467975
1761430216434322200,8.957322265625,0.19306290398836135,-0.11441059749335981,-0.022855828800052404
1761430216454265000,8.97726513671875,0.09110007459521294,-0.08414774383981712,-0.07272825934141874
1761430216474209000,8.997208984375,0.09755436530113219,-0.12018186523802578,-0.030843904944509264
1761430216494152200,9.017152099609374,0.2873293336600065,-0.11304914554757997,0.03474047399163246
1761430216514096000,9.03709619140625,0.3449164302319288,-0.17110442588683217,0.0985521441668272
1761430216534040000,9.0570400390625,0.04036415909230709,-0.2586831579554826,0.08087211056947707
1761430216553983000,9.07698291015625,-0.09960662165582179,-0.2831707161432132,0.18280279125869273
1761430216573927000,9.096927001953125,0.08497779232263565,0.043663397000520486,-0.13794190526902675
1761430216593869800,9.116869873046875,0.13494856867194174,-0.03171685642071534,0.06796835146322847
1761430216613814000,9.13681396484375,0.03329787396788597,-0.048388754155137575,0.14874942274838684
1761430216633757200,9.156757080078124,-0.08578910870552063,-0.10265592622384428,0.1446452022999525
1761430216653701000,9.176701171875,-0.07212590953409671,0.08924818138452247,0.048586336253583426
1761430216673644000,9.19664404296875,-0.11941548397541045,0.1914745205520652,-0.018985855498909947
1761430216693588000,9.216587890625,-0.13978022661209105,0.11415223881811834,0.02419263036176562
1761430216713532000,9.236531982421875,-0.005037994167208671,0.008249887152109295,-0.192563722294569
1761430216733475000,9.25647509765625,0.10755670387744903,-0.07619755202033557,-0.16775252164304255
1761430216753419000,9.2764189453125,0.33031039725244044,-0.09860597497960552,-0.18349369613230226
1761430216773362000,9.29636181640625,0.3524035711169243,-0.15630066011184826,-0.04588365316614508
1761430216793306000,9.31630615234375,0.05222060110270977,-0.14602400723933243,-0.06554390079528093
1761430216813249000,9.3362490234375,-0.14681377851068972,-0.0041238407476455905,-0.037683833967149256
1761430216833193000,9.35619287109375,-0.06276420694887638,0.04409177391384728,0.15017244128882884
1761430216853137000,9.376136962890625,0.10046002361476421,0.027222695939778347,0.1517208397746086
1761430216873080000,9.396080078125,0.06681728173196315,0.01088692797467811,0.1544879664003849
1761430216893024000,9.41602392578125,-0.1064776764690876,-0.0104360264190007,0.05418254882544279
1761430216912967000,9.435966796875,-0.0285386967420578,-0.058682600191049275,-0.00910012903958559
1761430216932910800,9.455910888671875,0.28016718694567677,-0.1744011293446645,-0.04783902501761913
1761430216952854000,9.47585400390625,0.39120471867620943,-0.28379670255444944,-0.04572875486537814
1761430216972798200,9.495798095703124,0.21661270640194416,-0.2787410631326958,0.004099690403789282
1761430216992741000,9.5157412109375,-0.08055003900825977,-0.20176875474704428,0.057165802419930696
1761430217012685000,9.53568505859375,-0.21380115611255168,-0.10140891270427964,0.049779053169488906
1761430217032629000,9.55562890625,-0.26796120084524155,-0.08560393399749883,-0.012868103270977736
1761430217052572000,9.575572021484374,-0.19560908133983612,-0.08778252014559693,-0.04556201999634504
1761430217072515800,9.595515869140625,0.1911135234862566,-0.06608845600076019,0.0891577083557844
1761430217092459000,9.615458984375,0.31354689397811886,0.013414367517997744,0.12216668237969279
1761430217112403000,9.63540283203125,0.12156944713890552,0.09002266375520267,0.02190115842372179
1761430217132345900,9.655345947265625,-0.1025426751077175,-0.010194113130128243,-0.04226926206126809
1761430217152290000,9.6752900390625,0.03517594279944897,-0.05306173723512329,-0.13162936112135648
1761430217172233200,9.695233154296876,0.142126497477293,-0.12140890454864128,-0.08754515859261154
1761430217192177200,9.71517724609375,0.175053200045228,-0.07896928175599313,0.013603870199620723
1761430217212121600,9.73512158203125,0.14099194048941135,-0.08046163007244467,-0.02698167655840516
1761430217232064800,9.755064697265626,0.1679594423919916,-0.16930415326552464,-0.037243396723270414
1761430217252008700,9.7750087890625,-0.010436638340353965,-0.17164998573930934,-0.13345920689702034
1761430217271951600,9.79495166015625,-0.2021931359052658,-0.08249256051131523,-0.041865211305022236
1761430217291895600,9.8148955078125,-0.11686989114582538,0.04916400827737525,0.1357204298272729
1761430217311838700,9.834838623046876,0.08039689427316188,-0.026710520050383636,0.07896773825287819
1761430217331782700,9.85478271484375,0.1328156482964754,-0.17616355417361482,0.05542246588394045
1761430217351725600,9.8747255859375,0.15670271984040737,-0.11725320964129642,-0.07651771475225687
1761430217371669500,9.89466943359375,0.23376433221101758,-0.0765432556188898,0.04812792496159672
1761430217391613700,9.91461376953125,0.2371457913428545,-0.056687563049467274,0.07557736516222358
1761430217411556600,9.934556640625,0.08080605959594249,-0.15376767103550953,0.036231735462695355
1761430217431500800,9.954500732421875,-0.060283496049046516,-0.1167181711828336,-0.06564911473542452
1761430217451443700,9.974443603515626,-0.06833820768892765,-0.06219338479097932,-0.04317775520831346
1761430217471387600,9.9943876953125,-0.009082301121950149,-0.013541389147861627,0.06820508282855153
1761430217491330600,10.01433056640625,0.08892916029691696,-0.046987413156963885,0.07872589232102035
1761430217511274500,10.0342744140625,0.05370411765873432,-0.07210934199178591,0.0962818611472845
1761430217531217700,10.0542177734375,-0.10643500637114048,-0.012957251992309465,0.06614815029874443
1761430217551161600,10.07416162109375,-0.1555593950241804,0.10266308661699294,0.0810438138745725
1761430217571105800,10.094105712890626,0.08773556659817695,0.10097984623778611,0.004963467626273632
1761430217591048700,10.114048583984374,0.11864917577803134,0.008453213433930068,-0.12639657503440976
1761430217610992600,10.13399267578125,-0.14936112490594386,-0.03972269198414869,-0.07328136317953467
1761430217630935600,10.153935546875,-0.011309914043545722,-0.07665198125694878,-0.12523688360527158
1761430217650879700,10.173879638671876,0.2852653868675232,-0.03857508371844887,0.008918634992837906
1761430217670822700,10.19382275390625,0.2233510747462511,-0.1123093691640999,-0.02943900658264756
