time,seconds_elapsed,z,y,x
1761430207559424500,0.082424560546875,0.05690459907054901,-0.1266673505306244,0.06081799417734146
1761430207579368700,0.10236865234375,0.011546950787305832,-0.07611320167779922,0.12952838838100433
1761430207599311600,0.1223115234375,-0.004402582533657551,-0.04873095080256462,0.18651582300662994
1761430207619255600,0.142255615234375,-0.028516342863440514,-0.0259347315877676,0.11006425321102142
1761430207639198500,0.162198486328125,-0.05907569080591202,-0.02055635303258896,0.00989567581564188
1761430207659142700,0.182142578125,-0.11331894248723984,-0.019683055579662323,0.014697468839585781
1761430207679086600,0.202086669921875,-0.06307747215032578,0.05117689445614815,0.12206126749515533
1761430207699029800,0.22202978515625,-0.011472396552562714,0.06607778370380402,0.1263454407453537
1761430207718973700,0.2419736328125,-0.055907368659973145,0.13254831731319427,-0.002649236237630248
1761430207738916600,0.26191650390625,-0.058632638305425644,0.16757723689079285,-0.10903022438287735
1761430207758860500,0.281860595703125,0.043076291680336,0.23593945801258087,-0.056901879608631134
1761430207778804500,0.301804443359375,0.06525025516748428,0.26914045214653015,0.05571030080318451
1761430207798747600,0.32174755859375,0.07906258851289749,0.2788374423980713,0.0801440179347992
1761430207818691800,0.34169189453125,0.08022206276655197,0.22415310144424438,0.011016717180609703
1761430207838635800,0.3616357421875,0.06200086325407028,0.1585017293691635,-0.08303575217723846
1761430207858578700,0.38157861328125,0.12533681094646454,0.10119517892599106,-0.1687408983707428
1761430207878522600,0.401522705078125,0.2092733532190323,0.14723259210586548,-0.20223772525787354
1761430207898465500,0.421465576171875,0.24664682149887085,0.18395811319351196,-0.192194402217865
1761430207918409500,0.441409423828125,0.2697931230068207,-0.0006777970120310783,-0.15713511407375336
1761430207938353700,0.461353759765625,0.2674250304698944,-0.19195647537708282,-0.07768529653549194
1761430207958296600,0.481296630859375,0.2689194679260254,-0.19399623572826385,-0.015340105630457401
1761430207978240800,0.50124072265625,0.24378405511379242,-0.11792387068271637,-0.008769241161644459
1761430207998184700,0.521184814453125,0.22144769132137299,-0.07672494649887085,-0.030415361747145653
1761430208018127600,0.541127685546875,0.1482967734336853,-0.12793011963367462,-0.04412170127034187
1761430208038071600,0.561071533203125,0.08495446294546127,-0.06063847616314888,-0.04404333978891373
1761430208058014700,0.5810146484375,0.06684678047895432,0.07713857293128967,-0.0596747025847435
1761430208077958700,0.600958740234375,0.07253777980804443,0.2223309725522995,-0.06133737415075302
1761430208097902600,0.620902587890625,0.07899065315723419,0.24754151701927185,-0.038874249905347824
1761430208117845500,0.640845458984375,0.05477868393063545,0.14489255845546722,-0.029311425983905792
1761430208137789700,0.660789794921875,0.03852546215057373,0.14115332067012787,0.021743614226579666
1761430208157733600,0.680733642578125,0.029701493680477142,0.10478633642196655,0.08581073582172394
1761430208177676800,0.7006767578125,0.031003808602690697,0.05747423321008682,0.12791360914707184
1761430208197620500,0.720620361328125,0.011763731949031353,-0.028139013797044754,0.0985473096370697
1761430208217563400,0.7405634765625,-0.036177054047584534,-0.05106709152460098,0.012251464650034904
1761430208237507600,0.760507568359375,-0.07326336950063705,0.07225172966718674,-0.10134231299161911
1761430208257451500,0.780451416015625,-0.0803963840007782,0.16409344971179962,-0.181016743183136
1761430208277394400,0.80039453125,-0.0661199539899826,0.10239703208208084,-0.19758769869804382
1761430208297338400,0.82033837890625,-0.012137582525610924,0.015557300299406052,-0.1354006975889206
1761430208317281500,0.840281494140625,0.029871204867959023,0.02338477224111557,-0.006815438158810139
1761430208337225500,0.8602255859375,0.08523495495319366,0.06375806778669357,0.06672690063714981
1761430208357169400,0.88016943359375,0.12298556417226791,0.06570491194725037,0.09606720507144928
1761430208377112300,0.9001123046875,0.12017367035150528,-0.008357977494597435,0.11131519824266434
1761430208397056500,0.920056396484375,0.08753377199172974,-0.023407157510519028,0.1211346983909607
1761430208417000400,0.94000048828125,0.06106894463300705,0.06781923770904541,0.05448738858103752
1761430208436943600,0.959943603515625,0.05519779771566391,0.20057518780231476,-0.031225334852933884
1761430208456887600,0.979887451171875,0.04219544678926468,0.20729967951774597,-0.08799221366643906
1761430208476830500,0.99983056640625,0.02749253809452057,0.17429739236831665,-0.07557010650634766
1761430208496774400,1.0197744140625,0.01128481887280941,0.10727301239967346,-0.02931373007595539
1761430208516718300,1.03971826171875,-0.013175271451473236,0.022750169038772583,0.01698474958539009
1761430208536661500,1.05966162109375,-0.029979581013321877,-0.04458653926849365,0.0025689005851745605
1761430208556605700,1.079605712890625,-0.0342673696577549,-0.054417695850133896,-0.07901070266962051
1761430208576548600,1.099548583984375,-0.012887224555015564,-0.0574318952858448,-0.14297206699848175
1761430208596492500,1.119492431640625,0.026855668053030968,-0.03500083461403847,-0.10843394696712494
1761430208616436500,1.1394365234375,0.07635468244552612,-0.08757145702838898,-0.008509264327585697
1761430208636379400,1.15937939453125,0.13380075991153717,-0.15069201588630676,0.0892018973827362
1761430208656323300,1.1793232421875,0.14300541579723358,-0.1447952538728714,0.09863013029098511
1761430208676267300,1.199267333984375,0.15128692984580994,-0.0760992094874382,0.05734366551041603
1761430208696210400,1.21921044921875,0.14920035004615784,-0.025506559759378433,0.004116245545446873
1761430208716154600,1.239154541015625,0.13551869988441467,-0.05598689243197441,-0.060433559119701385
1761430208736097500,1.25909765625,0.12537893652915955,-0.08306757360696793,-0.10831985622644424
1761430208756041500,1.27904150390625,0.12805356085300446,-0.10699443519115448,-0.08274780958890915
1761430208775985400,1.2989853515625,0.15209133923053741,-0.15276214480400085,0.015879904851317406
1761430208795928600,1.318928466796875,0.17220404744148254,-0.25417715311050415,0.10336656123399734
1761430208815872500,1.33887255859375,0.1759410947561264,-0.2773668169975281,0.11726432293653488
1761430208835816400,1.35881640625,0.14909222722053528,-0.23510825634002686,0.06822679191827774
1761430208855759400,1.37875927734375,0.11811993271112442,-0.24248173832893372,0.019204916432499886
1761430208875703600,1.39870361328125,0.10035235434770584,-0.2264343500137329,0.047762367874383926
1761430208895646500,1.418646484375,0.09938269853591919,-0.14573843777179718,0.10879616439342499
1761430208915590400,1.43859033203125,0.07004687935113907,-0.0895756334066391,0.12642733752727509
1761430208935534600,1.45853466796875,0.026847481727600098,-0.025545738637447357,0.0959094986319542
1761430208955477500,1.4784775390625,-0.014901296235620975,0.01631702296435833,0.05319026857614517
1761430208975421400,1.49842138671875,-0.038595717400312424,0.004139937460422516,-0.011104414239525795
1761430208995364400,1.5183642578125,-0.07183779776096344,-0.039041873067617416,-0.08310148119926453
1761430209015308300,1.538308349609375,-0.09394326061010361,-0.034823331981897354,-0.11765701323747635
1761430209035252500,1.55825244140625,-0.06807529181241989,-0.03559619188308716,-0.10889812558889389
1761430209055195600,1.578195556640625,-0.020329656079411507,-0.05296144634485245,-0.09199116379022598
1761430209075139600,1.5981396484375,0.023100702092051506,-0.05922596901655197,-0.08343544602394104
1761430209095083500,1.61808349609375,0.06982044130563736,-0.050813138484954834,-0.06795959919691086
1761430209115026400,1.6380263671875,0.09542427957057953,-0.06973998993635178,-0.03242828696966171
1761430209134970400,1.657970458984375,0.08751741796731949,-0.09482715278863907,-0.012441635131835938
1761430209154913500,1.67791357421875,0.06513044238090515,-0.06919658184051514,-0.00012697384227067232
1761430209174857500,1.697857421875,0.07025429606437683,-0.03731781989336014,-0.0009407316101714969
1761430209194801200,1.71780126953125,0.04518081992864609,-0.09493717551231384,-0.03038047067821026
1761430209214744000,1.737744140625,0.04105797037482262,-0.12838731706142426,-0.031168080866336823
1761430209234688000,1.75768798828125,0.028488071635365486,-0.10827284306287766,-0.023833055049180984
1761430209254631200,1.777631103515625,0.03822825476527214,-0.08827120810747147,0.0020352466963231564
1761430209274575400,1.797575439453125,0.027724985033273697,-0.07731124758720398,0.03653261065483093
1761430209294519300,1.817519287109375,-0.0019532591104507446,-0.091255322098732,0.050071898847818375
1761430209314462200,1.837462158203125,-0.05443621799349785,-0.10368343442678452,0.04429834336042404
1761430209334406100,1.85740625,-0.08108283579349518,-0.09706850349903107,0.039498742669820786
1761430209354349000,1.87734912109375,-0.058129627257585526,-0.06723663210868835,0.027828237041831017
1761430209374293000,1.89729296875,-0.056197069585323334,0.03365952894091606,-0.039276547729969025
1761430209394237000,1.91723681640625,-0.0874856561422348,0.036672722548246384,-0.09827616810798645
1761430209414180000,1.93718017578125,-0.0843517854809761,0.01862006075680256,-0.1058366671204567
1761430209434124300,1.957124267578125,-0.0788346379995346,0.027970045804977417,-0.05495426058769226
1761430209454067200,1.977067138671875,-0.05516321212053299,-0.008178764954209328,-0.011313049122691154
1761430209474011100,1.99701123046875,-0.043212275952100754,-0.032119251787662506,-0.010781481862068176
1761430209493955000,2.016955078125,-0.04076933488249779,-0.03125482425093651,-0.05233261361718178
1761430209513898200,2.036898193359375,-0.041269633919000626,0.020861783996224403,-0.06441546976566315
1761430209533842200,2.05684228515625,-0.05631409212946892,0.020337987691164017,-0.035739507526159286
1761430209553785000,2.07678515625,-0.048652976751327515,0.013719767332077026,0.035879820585250854
1761430209573729300,2.096729248046875,-0.037041302770376205,0.019640740007162094,0.0736757144331932
1761430209593673200,2.116673095703125,-0.02626824751496315,-0.010636675171554089,0.06273145973682404
1761430209613616000,2.1366162109375,-0.03949000686407089,-0.10584782063961029,0.03470328822731972
1761430209633560000,2.15656005859375,-0.06692050397396088,-0.06392750144004822,-0.000030144641641527414
1761430209653503200,2.176503173828125,-0.10161086171865463,0.08360553532838821,-0.017367100343108177
1761430209673447200,2.196447265625,-0.09699609130620956,0.13331416249275208,-0.005535392090678215
1761430209693391000,2.21639111328125,-0.07518971711397171,0.06081540510058403,0.012880542315542698
1761430209713334000,2.236333984375,-0.022773677483201027,0.013338949531316757,0.058410316705703735
1761430209733278200,2.2562783203125,0.018505001440644264,-0.016108404844999313,0.10542689263820648
1761430209753221400,2.276221435546875,0.03766755387187004,-0.028360608965158463,0.1330234557390213
1761430209773165300,2.296165283203125,0.036884989589452744,-0.0035368602257221937,0.15022140741348267
1761430209793109200,2.316109130859375,0.006795605644583702,0.015949083492159843,0.12736456096172333
1761430209813052200,2.33605224609375,-0.02455323189496994,0.03562160208821297,0.09403233975172043
1761430209832996000,2.35599609375,-0.03829185664653778,0.058533355593681335,0.055155184119939804
1761430209852940000,2.37593994140625,-0.02740074321627617,0.16138269007205963,0.04211955890059471
1761430209872883200,2.39588330078125,-0.027898170053958893,0.1788833737373352,0.026220686733722687
1761430209892827400,2.415827392578125,-0.029701661318540573,0.0846005529165268,0.032157137989997864
1761430209912770300,2.435770263671875,-0.031275052577257156,-0.023785529658198357,0.05589533969759941
1761430209932714200,2.45571435546875,-0.013005567714571953,-0.09509813785552979,0.03429321199655533
1761430209952658200,2.475658203125,-0.0004416927695274353,-0.10591036826372147,-0.026024285703897476
1761430209972601000,2.49560107421875,-0.02624727040529251,-0.0481816828250885,-0.036761362105607986
1761430209992545000,2.515544921875,-0.023651614785194397,-0.007975251413881779,-0.023017527535557747
1761430210012488200,2.53548828125,-0.04542842507362366,0.005447407718747854,-0.012410861440002918
1761430210032432000,2.55543212890625,-0.029821565374732018,0.02605704590678215,-0.029623450711369514
1761430210052376300,2.575376220703125,-0.012796973809599876,0.08322960138320923,-0.03052477166056633
1761430210072319200,2.5953193359375,-0.007721461355686188,0.08741745352745056,0.005310506094247103
1761430210092263200,2.61526318359375,-0.005526643246412277,0.017570603638887405,0.03867102414369583
1761430210112206300,2.635206298828125,-0.022719020023941994,-0.09477949887514114,0.029884982854127884
1761430210132150300,2.655150390625,-0.03205922245979309,-0.11125987768173218,-0.002777351764962077
1761430210152094200,2.67509423828125,-0.03485482558608055,0.040226854383945465,-0.01567966118454933
1761430210172037000,2.695037109375,-0.028359992429614067,0.17105978727340698,-0.014623305760324001
1761430210191981600,2.714981689453125,-0.012392409145832062,0.1534249484539032,-0.0005669802194461226
1761430210211924500,2.734924560546875,0.017220839858055115,0.013363653793931007,0.033482857048511505
1761430210231868400,2.754868408203125,0.031875286251306534,-0.06162387877702713,0.04914390295743942
1761430210251812600,2.7748125,0.03253515064716339,-0.007849411107599735,0.02285408042371273
1761430210271755800,2.794755859375,0.03417636454105377,0.04595092311501503,-0.012361636385321617
1761430210291699700,2.81469970703125,0.029719388112425804,0.03566956892609596,-0.029462387785315514
1761430210311642600,2.834642578125,0.01706094853579998,-0.06640157848596573,-0.028325431048870087
1761430210331586600,2.854586669921875,0.0014251740649342537,-0.10811205208301544,-0.045863084495067596
1761430210351530500,2.874530517578125,-0.007733080070465803,-0.033830851316452026,-0.06191455200314522
1761430210371473700,2.8944736328125,-0.003158628474920988,0.038493648171424866,-0.05302629992365837
1761430210391417600,2.91441748046875,0.010706914588809013,0.07000766694545746,-0.024964256212115288
1761430210411360500,2.934360595703125,0.020501375198364258,0.035742439329624176,-0.0324765183031559
1761430210431304700,2.9543046875,0.03581433743238449,-0.01881837472319603,-0.05538506060838699
1761430210451248600,2.97424853515625,0.04325327277183533,-0.02021661400794983,-0.07145339995622635
1761430210471191600,2.994191650390625,0.04108146205544472,0.01482574362307787,-0.04932984337210655
1761430210491135500,3.014135498046875,0.02378709800541401,0.044242724776268005,-0.004538980312645435
1761430210511078700,3.03407861328125,0.004571485798805952,0.0697932168841362,0.003563252277672291
1761430210531022600,3.054022705078125,-0.0123130539432168,0.08739341795444489,-0.056204527616500854
1761430210550966500,3.073966552734375,-0.020947251468896866,0.141459658741951,-0.13401488959789276
1761430210570909400,3.093909423828125,-0.019378717988729477,0.12843270599842072,-0.13932299613952637
1761430210590853600,3.113853515625,-0.0013257871614769101,0.052228882908821106,-0.08388760685920715
1761430210610796800,3.133796875,0.005308153573423624,-0.021377108991146088,-0.0426122285425663
1761430210630740700,3.15374072265625,0.016897257417440414,-0.01196305826306343,-0.07013498991727829
1761430210650684700,3.1736845703125,0.04845739156007767,0.042371682822704315,-0.1181429848074913
1761430210670627600,3.193627685546875,0.05821394547820091,0.0491577610373497,-0.10723185539245605
1761430210690571500,3.213571533203125,0.05314388498663902,0.023854564875364304,-0.06379884481430054
1761430210710514400,3.233514404296875,0.05335041508078575,0.04186461493372917,-0.04167085140943527
1761430210730458600,3.253458740234375,0.04757314175367355,0.03917762264609337,-0.05047207698225975
1761430210750402800,3.27340283203125,0.026140954345464706,-0.006754605565220118,-0.04561746120452881
1761430210770345700,3.293345703125,0.009211047552525997,-0.017895279452204704,-0.02657371386885643
1761430210790289700,3.31328955078125,-0.0063324617221951485,-0.018263578414916992,-0.02551255375146866
1761430210810232600,3.333232666015625,-0.02753751538693905,-0.00292367790825665,-0.059479258954524994
1761430210830176500,3.353176513671875,-0.03680531680583954,0.013763422146439552,-0.06735635548830032
1761430210850120400,3.373120361328125,-0.02022949792444706,0.03423973172903061,-0.026241136714816093
1761430210870063600,3.393063720703125,0.0031078499741852283,-0.0009213695302605629,0.0362306572496891
1761430210890007800,3.4130078125,0.001416339771822095,0.009433108381927013,0.0442456491291523
1761430210909950700,3.43295068359375,-0.011875992640852928,0.05359503999352455,-0.012384334579110146
1761430210929894700,3.452894775390625,-0.01005872618407011,0.0270309466868639,-0.06362995505332947
1761430210949838600,3.472838623046875,-0.0009334661299362779,-0.006692158989608288,-0.0550980344414711
1761430210969781800,3.49278173828125,-0.005043020937591791,-0.04305284470319748,-0.042336322367191315
1761430210989725700,3.5127255859375,0.0004811618709936738,-0.08438999950885773,-0.03796471282839775
1761430211009668600,3.532668701171875,0.0185123048722744,-0.07254637032747269,-0.009329266846179962
1761430211029612500,3.552612548828125,0.03317773714661598,-0.06674204021692276,0.02944711223244667
1761430211049556700,3.572556640625,0.03498318791389465,-0.08340033143758774,0.0519275888800621
1761430211069499600,3.592499755859375,0.017280295491218567,-0.044527795165777206,0.03735365718603134
1761430211089443600,3.612443603515625,-0.026812177151441574,-0.0027235515881329775,-0.005828450433909893
1761430211109386800,3.63238671875,-0.04599987342953682,0.027012966573238373,-0.016552181914448738
1761430211129330700,3.65233056640625,-0.04855692386627197,0.00869468692690134,0.009959026239812374
1761430211149273600,3.672273681640625,-0.04924734681844711,-0.024070024490356445,0.04662575572729111
1761430211169217500,3.692217529296875,-0.04920287802815437,-0.04293511062860489,0.05031277984380722
1761430211189161500,3.712161376953125,-0.028462141752243042,-0.018729308620095253,0.04684135690331459
1761430211209104100,3.732104248046875,-0.007218952756375074,0.029985303059220314,0.04446973651647568
1761430211229048000,3.752048095703125,0.006802248768508434,0.011247174814343452,0.0521598681807518
1761430211248991000,3.771990966796875,0.0073721278458833694,0.013312658295035362,0.07974568009376526
1761430211268935200,3.79193505859375,0.04216080158948898,0.041740383952856064,0.07792264968156815
1761430211288879000,3.811879150390625,0.09172848612070084,0.06533317267894745,0.04515931382775307
1761430211308822300,3.831822265625,0.11588648706674576,0.06550566852092743,-0.005030249711126089
1761430211328766200,3.85176611328125,0.0754387378692627,0.05318867415189743,-0.030573677271604538
1761430211348709000,3.871709228515625,0.08276369422674179,0.031350139528512955,-0.01740078255534172
1761430211368653000,3.891653076171875,0.07659407705068588,-0.010370783507823944,0.0353330597281456
1761430211388597000,3.911596923828125,0.05930924043059349,-0.018527355045080185,0.07187808305025101
1761430211408540000,3.931539794921875,0.063174769282341,-0.023251917213201523,0.0590769425034523
1761430211428484000,3.951484130859375,0.08076437562704086,-0.08624804019927979,0.05512228608131409
1761430211448427300,3.97142724609375,0.07967792451381683,-0.11434388160705566,0.05790223181247711
1761430211468371200,3.99137109375,0.1051623746752739,-0.05386503413319588,0.028438707813620567
1761430211488315100,4.011315185546875,0.10625059902667999,-0.010928405448794365,-0.020371543243527412
1761430211508258000,4.031258056640625,0.1091335117816925,-0.002530595287680626,-0.025081871077418327
1761430211528202000,4.051201904296875,0.09818455576896667,-0.015038037672638893,0.015685318037867546
1761430211548145200,4.071145263671875,0.0530984029173851,0.017181728035211563,0.03125995025038719
1761430211568089000,4.091089111328125,0.00996444933116436,0.06780333071947098,-0.01614569127559662
1761430211588033300,4.111033203125,0.00009534379933029413,0.09769311547279358,-0.06331745535135269
1761430211607976200,4.13097607421875,-0.000704508856870234,0.11390151083469391,-0.09833180904388428
1761430211627920100,4.150920166015625,0.004387455061078072,0.10610750317573547,-0.13864220678806305
1761430211647863000,4.170863037109375,0.0010584357660263777,0.026094608008861542,-0.1848282366991043
1761430211667807000,4.190806884765625,0.021996047347784042,-0.08695270121097565,-0.19482451677322388
1761430211687750100,4.210750244140625,0.08179546147584915,-0.05834929272532463,-0.1364498883485794
1761430211707694000,4.230694091796875,0.11363931745290756,0.000025506597012281418,-0.07770273089408875
1761430211727638000,4.250637939453125,0.15233451128005981,0.06741520017385483,-0.04337405785918236
1761430211747581000,4.270580810546875,0.17607027292251587,0.105148546397686,-0.016652269288897514
1761430211767525000,4.290525146484375,0.18351376056671143,0.16130122542381287,0.0101308673620224
1761430211787468300,4.31046826171875,0.17796103656291962,0.16656063497066498,0.01285447459667921
1761430211807412200,4.330412109375,0.14598314464092255,0.04781118780374527,-0.02974814362823963
1761430211827356200,4.350356201171875,0.0779055804014206,-0.19745133817195892,-0.10391980409622192
1761430211847299000,4.370299072265625,-0.03896943852305412,-0.2701842188835144,-0.1137148067355156
1761430211867243000,4.390242919921875,0.036433909088373184,-0.11709295213222504,-0.04460741952061653
1761430211887186200,4.410186279296875,0.0674377903342247,-0.051136985421180725,-0.0337621308863163
1761430211907130000,4.430130126953125,-0.0036731588188558817,0.04928659647703171,-0.11966961622238159
1761430211927074300,4.45007421875,-0.03776855394244194,0.14524418115615845,-0.21739615499973297
1761430211947017200,4.470017333984375,-0.02974301017820835,0.16775314509868622,-0.24644401669502258
1761430211966961200,4.489961181640625,-0.004059992264956236,0.11505527794361115,-0.16546258330345154
1761430211986904000,4.509904052734375,0.06877842545509338,0.0806359127163887,-0.008881935849785805
1761430212006848000,4.529847900390625,0.14648094773292542,0.050323642790317535,0.10534154623746872
1761430212026792000,4.5497919921875,0.1927410215139389,-0.00044066132977604866,0.14500291645526886
1761430212046735000,4.569735107421875,0.1715746372938156,-0.08688909560441971,0.11277089267969131
1761430212066679000,4.589678955078125,0.10704490542411804,-0.10468877851963043,0.013388458639383316
1761430212086622000,4.6096220703125,0.09685304015874863,-0.03854706138372421,-0.05930791795253754
1761430212106566100,4.629566162109375,0.13208898901939392,-0.05582652986049652,-0.05457937717437744
1761430212126509300,4.64950927734375,0.11621605604887009,-0.229954332113266,-0.043199680745601654
1761430212146453200,4.669453369140625,0.05235012248158455,-0.26437097787857056,-0.07067065685987473
1761430212166397200,4.689397216796875,0.04880289360880852,-0.1331646889448166,-0.09511656314134598
1761430212186340000,4.709340087890625,0.05363769084215164,-0.022091642022132874,-0.0618569441139698
1761430212206284300,4.7292841796875,0.0459127239882946,-0.04634630307555199,-0.010062292218208313
1761430212226227200,4.749227294921875,0.022076332941651344,0.00862660352140665,0.05324902758002281
1761430212246171400,4.76917138671875,0.004316720180213451,0.0784725546836853,0.04053250700235367
1761430212266115300,4.789115234375,0.050093889236450195,0.09040781855583191,-0.0073338840156793594
1761430212286058500,4.80905859375,0.10004872828722,0.09408646821975708,-0.014956073835492134
1761430212306002400,4.82900244140625,0.12832200527191162,0.1004430502653122,0.02778436988592148
1761430212325945300,4.8489453125,0.12739197909832,0.06549488753080368,0.06472690403461456
1761430212345889300,4.86888916015625,0.11556807160377502,0.004099171608686447,0.10125987976789474
1761430212365833200,4.888833251953125,0.09527411311864853,-0.06249289587140083,0.11305657774209976
1761430212385776400,4.9087763671875,0.08509544283151627,-0.07659170031547546,0.10955900698900223
1761430212405720600,4.928720458984375,0.06686081737279892,-0.06052185595035553,0.06635721772909164
1761430212425663500,4.94866357421875,0.04762372374534607,-0.07226231694221497,0.012051980942487717
1761430212445607400,4.968607421875,0.04396954923868179,-0.1228092759847641,0.0002861593384295702
1761430212465550300,4.98855029296875,0.05714237317442894,-0.17587994039058685,0.05542227253317833
1761430212485494300,5.008494384765625,0.07908286154270172,-0.21083278954029083,0.1289798617362976
1761430212505438200,5.028438232421875,0.08261321485042572,-0.24031582474708557,0.1535334438085556
1761430212525381400,5.04838134765625,0.05661140754818916,-0.2647674083709717,0.12539538741111755
1761430212545325300,5.0683251953125,0.026581570506095886,-0.2673349380493164,0.10608997941017151
1761430212565268200,5.088268310546875,0.014269479550421238,-0.23448887467384338,0.09830141067504883
1761430212585212400,5.10821240234375,-0.0005997838452458382,-0.1652400940656662,0.04631703346967697
1761430212605156400,5.12815625,-0.005664380267262459,-0.046321988105773926,-0.04928410053253174
1761430212625099500,5.148099609375,-0.008332000114023685,0.04923870041966438,-0.11119285225868225
1761430212645043500,5.16804345703125,0.008462958037853241,0.11112683266401291,-0.09620591253042221
1761430212664986400,5.187986328125,0.014568119309842587,0.07350553572177887,-0.0596383661031723
1761430212684930300,5.207930419921875,0.04110891371965408,0.053006913512945175,-0.07984856516122818
1761430212704873200,5.227873291015625,0.05610736832022667,0.03608761727809906,-0.1177426353096962
1761430212724817200,5.247817138671875,0.03601471707224846,-0.01477467268705368,-0.1454775482416153
1761430212744761300,5.26776123046875,0.03576301783323288,-0.03447515517473221,-0.1152777224779129
1761430212764704500,5.28770458984375,0.010757842101156712,-0.0697893500328064,-0.06943047791719437
1761430212784648400,5.3076484375,-0.04166756197810173,-0.07627904415130615,-0.0418960265815258
1761430212804591400,5.32759130859375,-0.08146630227565765,-0.0311838760972023,-0.06235681101679802
1761430212824535300,5.347535400390625,-0.06926556676626205,0.03181794285774231,-0.08192690461874008
1761430212844479200,5.367479248046875,-0.030453912913799286,0.0551028847694397,-0.06757804751396179
1761430212864422400,5.38742236328125,-0.07896266877651215,-0.012156706303358078,-0.05722182244062424
1761430212884366300,5.407366455078125,-0.12007944285869598,-0.14048931002616882,-0.0964328721165657
1761430212904309200,5.427309326171875,-0.11562879383563995,-0.1684359610080719,-0.1268315613269806
1761430212924253400,5.44725341796875,-0.033209629356861115,-0.09214243292808533,-0.12793104350566864
1761430212944196400,5.4671962890625,-0.009738786146044731,-0.04626266658306122,-0.10571303218603134
1761430212964140300,5.487140380859375,-0.06912501156330109,0.0803321823477745,-0.06979252398014069
1761430212984084500,5.50708447265625,-0.05461971461772919,0.0871504694223404,-0.03752610459923744
1761430213004027400,5.52702734375,-0.08043310046195984,0.11891061812639236,0.034603267908096313
1761430213023971300,5.546971435546875,-0.12485805153846741,0.15028692781925201,0.0590222105383873
1761430213043914200,5.566914306640625,-0.1270418018102646,0.13040043413639069,-0.039119407534599304
1761430213063858200,5.586858154296875,-0.08089429140090942,0.16071300208568573,-0.11576823145151138
1761430213083802400,5.60680224609375,-0.04017099365592003,0.14734114706516266,-0.11058102548122406
1761430213103745500,5.62674560546875,-0.032017432153224945,0.1445181667804718,-0.03212319687008858
1761430213123689500,5.646689453125,-0.02457149140536785,0.07876509428024292,0.03266429528594017
1761430213143632400,5.66663232421875,-0.017923185601830482,-0.042834412306547165,0.07145939022302628
1761430213163576300,5.686576416015625,-0.038638047873973846,-0.0663633942604065,0.05174626037478447
1761430213183519500,5.70651953125,-0.014802755787968636,0.01573866978287697,-0.05681643635034561
1761430213203463400,5.72646337890625,-0.020729251205921173,0.0609544962644577,-0.1327453851699829
1761430213223407400,5.746407470703125,-0.03548785671591759,0.07025781273841858,-0.09473510086536407
1761430213243350300,5.766350341796875,-0.04439622908830643,0.05252452194690704,0.007369109895080328
1761430213263294500,5.78629443359375,-0.061652980744838715,0.02578851580619812,0.09071885794401169
1761430213283237400,5.8062373046875,-0.027449173852801323,0.0437435619533062,0.056011900305747986
1761430213303181300,5.826181396484375,0.01456615049391985,0.044294774532318115,-0.05389516428112984
1761430213323125200,5.846125244140625,0.0313289538025856,0.06786862015724182,-0.10235654562711716
1761430213343068400,5.866068359375,0.020398510619997978,0.08438953012228012,-0.044836148619651794
1761430213363012400,5.886012451171875,-0.014216331765055656,0.04160057753324509,0.039317164570093155
1761430213382955300,5.905955322265625,-0.0338052473962307,-0.023750001564621925,0.07708690315485
1761430213402899200,5.925899169921875,-0.029294410720467567,-0.032011836767196655,0.052677787840366364
1761430213422842400,5.94584228515625,-0.010621922090649605,-0.033949289470911026,-0.02653367817401886
1761430213442786600,5.96578662109375,0.008138206787407398,-0.030726417899131775,-0.08464207500219345
1761430213462730500,5.98573046875,0.003347982419654727,-0.04069351404905319,-0.05755707249045372
1761430213482673400,6.00567333984375,-0.01605110988020897,-0.04878770187497139,-0.0000012991949915885925
1761430213502617300,6.025617431640625,-0.03638444468379021,-0.08795783668756485,0.05518466979265213
1761430213522560300,6.045560302734375,-0.0515662245452404,-0.07470665127038956,0.05114364251494408
1761430213542504200,6.065504150390625,-0.05898112431168556,-0.05374603345990181,-0.0067011029459536076
1761430213562448400,6.085448486328125,-0.03421773388981819,-0.02764134481549263,-0.033789269626140594
1761430213582391300,6.105391357421875,-0.016958389431238174,-0.0387721061706543,-0.012133141048252583
1761430213602335500,6.12533544921875,-0.02044759690761566,-0.0682431012392044,0.010121195577085018
1761430213622278400,6.1452783203125,-0.02320835553109646,-0.056406740099191666,0.02517196536064148
1761430213642222300,6.165222412109375,-0.024568729102611542,-0.05490632727742195,0.023084156215190887
1761430213662165500,6.18516552734375,-0.03175254911184311,-0.04801062494516373,0.0030001176055520773
1761430213682109400,6.205109375,-0.03086707554757595,0.026947272941470146,-0.012627611868083477
1761430213702053400,6.225053466796875,-0.037451211363077164,0.04715874791145325,-0.024239113554358482
1761430213721996300,6.244996337890625,-0.021847406402230263,-0.004697343334555626,-0.04134606197476387
1761430213741940200,6.264940185546875,-0.04072793573141098,0.03192069008946419,-0.06622210144996643
1761430213761883100,6.284883056640625,-0.024844471365213394,0.07679563015699387,-0.07395094633102417
1761430213781827300,6.304827392578125,-0.03133954480290413,0.03941010311245918,-0.07831931114196777
1761430213801771500,6.324771484375,0.010737658478319645,-0.02389219030737877,-0.06188768148422241
1761430213821714400,6.34471435546875,0.0021870157215744257,-0.03957502916455269,-0.0313299261033535
1761430213841658400,6.364658447265625,-0.006043154280632734,-0.004805834498256445,-0.0046348897740244865
1761430213861601300,6.384601318359375,-0.010500983335077763,-0.018606802448630333,-0.008898602798581123
1761430213881545200,6.404545166015625,-0.013806033879518509,-0.03028484433889389,-0.024244165048003197
1761430213901488400,6.42448828125,-0.029312988743185997,-0.009338987991213799,-0.02402680180966854
1761430213921432300,6.444432373046875,-0.041564226150512695,0.03558095917105675,-0.013572124764323235
1761430213941376500,6.46437646484375,-0.03731832653284073,0.06281062960624695,0.006100293714553118
1761430213961319400,6.4843193359375,-0.045861177146434784,0.013430895283818245,0.00192553224042058
1761430213981263400,6.504263427734375,-0.06948544830083847,0.052597831934690475,-0.0003165318048559129
1761430214001206300,6.524206298828125,-0.09978615492582321,0.04727409407496452,-0.007827076129615307
1761430214021150500,6.544150390625,-0.1277979165315628,0.04755394905805588,-0.018393363803625107
1761430214041093400,6.56409326171875,-0.16407181322574615,0.042857080698013306,-0.016486670821905136
1761430214061037300,6.584037353515625,-0.20237600803375244,0.0467989444732666,-0.06694119423627853
1761430214080981200,6.603981201171875,-0.26964735984802246,0.0707264170050621,-0.160518616437912
1761430214100924200,6.623924072265625,-0.32334664463996887,0.00028620054945349693,-0.21113748848438263
1761430214120868400,6.643868408203125,-0.34057149291038513,-0.06975117325782776,-0.1807471364736557
1761430214140811500,6.6638115234375,-0.339760959148407,-0.009483741596341133,-0.09754966199398041
1761430214160755500,6.68375537109375,-0.3121495842933655,0.03742171823978424,-0.0379989817738533
1761430214180698400,6.703698486328125,-0.25605663657188416,0.03953379765152931,-0.043488793075084686
1761430214200641800,6.723641845703125,-0.15481004118919373,-0.03562479838728905,-0.0600169338285923
1761430214220585700,6.743585693359375,-0.0574515201151371,-0.10685689747333527,-0.01316393818706274
1761430214240529000,6.76352880859375,-0.035999592393636703,-0.14419476687908173,0.04546923190355301
1761430214260472800,6.783472900390625,-0.026503421366214752,-0.11417733132839203,0.08026615530252457
1761430214280415700,6.803415771484375,0.021077310666441917,0.06572624295949936,0.10049987584352493
1761430214300359700,6.823359619140625,0.05951075628399849,0.12581653892993927,0.07638256996870041
1761430214320302800,6.843302734375,0.07037685811519623,0.056736432015895844,0.03369535133242607
1761430214340246800,6.863246826171875,0.0349205881357193,0.0125236501917243,-0.03959283232688904
1761430214360191000,6.88319091796875,-0.006036801729351282,0.09012242406606674,-0.09708718955516815
1761430214380134000,6.9031337890625,-0.03638930991292,0.1006857231259346,-0.11484033614397049
1761430214400077800,6.923077880859375,-0.08482460677623749,0.11083842813968658,-0.07276434451341629
1761430214420020700,6.943020751953125,-0.11335336416959763,0.13620956242084503,-0.01229852344840765
1761430214439964700,6.962964599609375,-0.1299935281276703,0.19310839474201202,-0.017908187583088875
1761430214459907800,6.982907958984375,-0.10731970518827438,0.1796756386756897,-0.021992454305291176
1761430214479851800,7.002851806640625,-0.03284190967679024,0.09043236076831818,0.022139517590403557
1761430214499795700,7.022795654296875,0.01690693385899067,0.05308837443590164,0.06527616828680038
1761430214519738600,7.042738525390625,-0.00268714502453804,-0.06946571916341782,0.006953027099370956
1761430214539682800,7.062682861328125,-0.013119268231093884,0.019867777824401855,-0.0791812315583229
1761430214559626000,7.0826259765625,0.007148711010813713,0.11753378063440323,-0.0823274627327919
1761430214579570000,7.10256982421875,-0.03502696752548218,-0.007364959456026554,-0.0007901355857029557
1761430214599513900,7.122513916015625,-0.05621408298611641,-0.030539650470018387,0.027782900258898735
1761430214619456800,7.142456787109375,-0.06107621267437935,0.058592941612005234,-0.023547809571027756
1761430214639400700,7.162400634765625,-0.002818702021613717,0.13984814286231995,-0.027213608846068382
1761430214659343600,7.182343505859375,0.051627568900585175,0.07725252956151962,0.04151966795325279
1761430214679287600,7.20228759765625,0.08937454223632812,-0.01954793557524681,0.0865858867764473
1761430214699230700,7.222230712890625,0.08365746587514877,-0.04951395466923714,0.07601844519376755
1761430214719175000,7.2421748046875,0.06571595370769501,-0.026636097580194473,0.04745546355843544
1761430214739117800,7.262117919921875,0.059383783489465714,0.025336038321256638,0.047281716018915176
1761430214759061800,7.282061767578125,0.03585199639201164,-0.01425828505307436,0.078604556620121
1761430214779005700,7.302005615234375,0.00828674715012312,-0.06932869553565979,0.09773541241884232
1761430214798948900,7.321948974609375,0.008073491975665092,0.016681576147675514,0.07183408737182617
1761430214818892800,7.341892822265625,0.043673206120729446,0.06029989942908287,0.023471802473068237
1761430214838835700,7.361835693359375,0.09462303668260574,0.002084360457956791,0.009225806221365929
1761430214858779600,7.381779541015625,0.11752858757972717,-0.13913919031620026,0.04006321728229523
1761430214878722600,7.40172265625,0.10480496287345886,-0.26830002665519714,0.0749972015619278
1761430214898666800,7.421666748046875,0.07013337314128876,-0.2541525959968567,0.07103711366653442
1761430214918610700,7.441610595703125,0.05043962597846985,-0.0988665297627449,0.006948838010430336
1761430214938553900,7.461553955078125,0.03564459830522537,0.024738626554608345,-0.0498240701854229
1761430214958497800,7.481497802734375,0.01371952798217535,0.08173104375600815,-0.0488472655415535
1761430214978440700,7.501440673828125,0.012589648365974426,0.021517599001526833,-0.015288987196981907
1761430214998384600,7.521384521484375,0.024899279698729515,-0.08296088874340057,0.004341285675764084
1761430215018328600,7.54132861328125,0.03287341818213463,-0.09718921780586243,0.04217778891324997
1761430215038271700,7.561271728515625,0.04038972035050392,-0.06132897362112999,0.06729903817176819
1761430215058216000,7.5812158203125,0.049369968473911285,-0.0183480866253376,0.04599856212735176
1761430215078158800,7.601158935546875,0.027234340086579323,0.0070760599337518215,-0.01637757569551468
1761430215098102800,7.621102783203125,0.017756415531039238,0.028113966807723045,-0.04141848161816597
1761430215118045700,7.641045654296875,0.0064904773607850075,0.051605723798274994,0.00912208016961813
1761430215137989600,7.66098974609375,-0.002727256156504154,0.002066135872155428,0.04528088495135307
1761430215157932800,7.680932861328125,-0.0037992459256201982,-0.03015233390033245,0.01771247573196888
1761430215177876700,7.700876708984375,-0.011375803500413895,-0.03829851746559143,-0.042639486491680145
1761430215197821400,7.720821533203125,-0.009984572418034077,-0.026883728802204132,-0.04723702743649483
1761430215217764400,7.740764404296875,-0.008513972163200378,-0.03004751354455948,-0.001917357905767858
1761430215237708500,7.76070849609375,-0.01667892187833786,-0.056580521166324615,0.02522399090230465
1761430215257651500,7.7806513671875,-0.03199239820241928,-0.04041093587875366,0.015727149322628975
1761430215277595600,7.800595703125,-0.030505258589982986,0.04116835817694664,-0.002976343035697937
1761430215297538600,7.82053857421875,-0.020320028066635132,0.06622714549303055,-0.01830633170902729
1761430215317482500,7.840482421875,-0.006060631945729256,-0.030149977654218674,-0.037138186395168304
1761430215337426400,7.860426513671875,-0.011891153641045094,-0.05759228765964508,-0.012374293059110641
1761430215357369300,7.880369384765625,-0.007890461012721062,-0.017902938649058342,0.029313839972019196
1761430215377313300,7.900313232421875,0.010445133782923222,0.00003286777064204216,0.04347480833530426
1761430215397256400,7.92025634765625,0.01827000267803669,-0.042253829538822174,0.0326508954167366
1761430215417200600,7.94020068359375,0.013387499377131462,-0.05374467745423317,0.031108716502785683
1761430215437143600,7.9601435546875,0.01565677858889103,0.00973016582429409,0.0250119436532259
1761430215457087500,7.98008740234375,0.012547269463539124,0.06320532411336899,-0.015222950838506222
1761430215477031400,8.000031494140625,0.017467325553297997,0.05195522680878639,-0.030177604407072067
1761430215496974600,8.019974609375,0.03904082998633385,-0.010664200410246849,0.0332593135535717
1761430215516918500,8.03991845703125,0.03496522456407547,-0.02952519617974758,0.10974149405956268
1761430215536861400,8.059861328125,0.01678549312055111,-0.024389375001192093,0.08633511513471603
1761430215556805600,8.0798056640625,0.0023506605066359043,-0.05201379582285881,0.010777131654322147
1761430215576748500,8.09974853515625,0.006231781095266342,-0.033102117478847504,-0.02425655722618103
1761430215596692500,8.1196923828125,-0.0029855528846383095,-0.026147164404392242,0.0030447763856500387
1761430215616636400,8.139636474609375,-0.013750249519944191,-0.020619694143533707,0.02974020130932331
1761430215636579600,8.15957958984375,-0.017531702294945717,-0.01248183473944664,0.03729822114109993
1761430215656523500,8.1795234375,-0.014853831380605698,0.018108006566762924,0.011732857674360275
1761430215676466400,8.199466552734375,0.012659789063036442,0.024894312024116516,0.018636273220181465
1761430215696410400,8.219410400390625,0.03916892781853676,-0.026505962014198303,0.03837616741657257
1761430215716353500,8.239353515625,0.04780978336930275,-0.10748721659183502,0.023492159321904182
1761430215736297700,8.259297607421875,0.06799151748418808,-0.041646987199783325,0.02673778124153614
1761430215756241700,8.27924169921875,0.048346348106861115,0.0330730676651001,0.029321778565645218
1761430215776184600,8.2991845703125,0.002896170364692807,0.027298856526613235,0.04511387273669243
1761430215796128500,8.31912841796875,-0.04500480741262436,-0.04162243381142616,0.03938046470284462
1761430215816071400,8.339071533203125,-0.05931909382343292,-0.03593948855996132,-0.012201952748000622
1761430215836015400,8.359015380859375,-0.05636058747768402,0.044055476784706116,-0.07297289371490479
1761430215855958500,8.37895849609375,-0.04433009400963783,0.09230916202068329,-0.07835675776004791
1761430215875902500,8.39890234375,-0.03565351292490959,0.04556301236152649,-0.034142833203077316
1761430215895846700,8.4188466796875,-0.026359252631664276,-0.008565161377191544,0.0060503180138766766
1761430215915789600,8.43878955078125,0.0003279543307144195,-0.004587225615978241,-0.0007346579222939909
1761430215935733500,8.4587333984375,0.034389086067676544,0.036237526684999466,-0.029959868639707565
1761430215955676700,8.4786767578125,0.05696949362754822,0.010000064969062805,-0.04195341467857361
1761430215975620600,8.49862060546875,0.07612135261297226,-0.033678170293569565,-0.010386168956756592
1761430215995563500,8.5185634765625,0.08946868777275085,0.01730707474052906,0.002267626114189625
1761430216015507500,8.538507568359375,0.0896248072385788,0.017321482300758362,-0.001526805805042386
1761430216035450400,8.558450439453125,0.08160237222909927,-0.04121439903974533,-0.02141606993973255
1761430216055394300,8.578394287109376,0.04854737967252731,-0.05637938529253006,-0.022035963833332062
1761430216075338500,8.59833837890625,0.02037017233669758,-0.06463690102100372,-0.041537847369909286
1761430216095281700,8.61828173828125,0.004777897614985704,-0.0380694717168808,-0.0791960135102272
1761430216115225600,8.6382255859375,-0.008529854007065296,-0.0052475822158157825,-0.08510978519916534
1761430216135168500,8.65816845703125,0.00038524248520843685,0.003959086257964373,-0.06349708139896393
1761430216155112400,8.678112548828125,-0.023281436413526535,0.007769870106130838,-0.030237115919589996
1761430216175055600,8.6980556640625,-0.030721377581357956,-0.03347940742969513,-0.018924212083220482
1761430216194999000,8.7179990234375,-0.03207666426897049,-0.09692346304655075,-0.05111941695213318
1761430216214942000,8.73794189453125,-0.03737947717308998,-0.09335416555404663,-0.06799638271331787
1761430216234886000,8.757885986328125,-0.03834221139550209,-0.03659607470035553,-0.06312599033117294
1761430216254830000,8.777830078125,-0.04211730882525444,-0.012620249763131142,-0.02915992960333824
1761430216274773200,8.797773193359374,-0.04215432330965996,-0.02083759568631649,0.03132496401667595
1761430216294717200,8.81771728515625,-0.04936230555176735,-0.010926320217549801,0.04758391156792641
1761430216314660000,8.83766015625,-0.03474311903119087,0.025195691734552383,-0.009260433726012707
1761430216334604000,8.85760400390625,-0.00539504736661911,0.04839114844799042,-0.06216585636138916
1761430216354547000,8.877546875,0.016864189878106117,0.0359443798661232,-0.04331960901618004
1761430216374491000,8.897490966796875,0.015018881298601627,0.03542714565992355,0.05413332208991051
1761430216394434800,8.917434814453125,0.004169694148004055,0.00020598666742444038,0.1170453205704689
1761430216414378000,8.9373779296875,-0.0012234734604135156,-0.04110283777117729,0.08891221880912781
1761430216434322200,8.957322265625,0.003986037336289883,-0.006322873290628195,0.03206082805991173
1761430216454265000,8.97726513671875,0.0034796688705682755,0.05845225229859352,0.006275394465774298
1761430216474209000,8.997208984375,-0.0025045485235750675,0.08013491332530975,0.024397069588303566
1761430216494152200,9.017152099609374,-0.003160590771585703,0.04814206063747406,0.015493572689592838
1761430216514096000,9.03709619140625,0.0050945100374519825,0.007053679320961237,-0.01488107442855835
1761430216534040000,9.0570400390625,0.010445334948599339,0.019633173942565918,-0.018742531538009644
1761430216553983000,9.07698291015625,0.04074545577168465,0.10511163622140884,0.011796856299042702
1761430216573927000,9.096927001953125,-0.011825119145214558,0.08675882965326309,0.016041142866015434
1761430216593869800,9.116869873046875,-0.0164096150547266,0.06927751749753952,0.006717337761074305
1761430216613814000,9.13681396484375,0.0010887845419347286,0.0015694042667746544,-0.0031528188847005367
1761430216633757200,9.156757080078124,0.010134542360901833,-0.03971276059746742,0.006025272887200117
1761430216653701000,9.176701171875,0.006889214273542166,-0.04386302828788757,-0.0021490335930138826
1761430216673644000,9.19664404296875,0.0005298195173963904,0.024441976100206375,-0.0001901652431115508
1761430216693588000,9.216587890625,0.027455944567918777,0.05260409414768219,0.03555170074105263
1761430216713532000,9.236531982421875,0.006158908829092979,0.01359805278480053,0.07694216072559357
1761430216733475000,9.25647509765625,-0.005229600705206394,0.004546168260276318,0.09407186508178711
1761430216753419000,9.2764189453125,-0.01327164750546217,0.009009052067995071,0.04421596974134445
1761430216773362000,9.29636181640625,-0.00957238208502531,-0.047260187566280365,-0.04641081020236015
1761430216793306000,9.31630615234375,-0.017790663987398148,-0.04900750145316124,-0.08653920888900757
1761430216813249000,9.3362490234375,-0.02699541673064232,-0.010940940119326115,-0.05469847470521927
1761430216833193000,9.35619287109375,0.002763977972790599,-0.008572418242692947,0.0038761021569371223
1761430216853137000,9.376136962890625,0.017733074724674225,-0.0418827049434185,0.0010462270583957434
1761430216873080000,9.396080078125,0.015326973050832748,-0.0726236030459404,-0.016018865630030632
1761430216893024000,9.41602392578125,0.019823089241981506,-0.030304625630378723,-0.011035623028874397
1761430216912967000,9.435966796875,0.029193688184022903,0.057732027024030685,0.005131096579134464
1761430216932910800,9.455910888671875,0.027561005204916,0.05155757814645767,-0.012720286846160889
1761430216952854000,9.47585400390625,0.013781840912997723,-0.029353290796279907,-0.03835931047797203
1761430216972798200,9.495798095703124,-0.00023001281078904867,-0.05523475259542465,-0.07045862078666687
1761430216992741000,9.5157412109375,-0.0007776602869853377,-0.03885433077812195,-0.08088720589876175
1761430217012685000,9.53568505859375,-0.004575460217893124,-0.011534933000802994,-0.05044907331466675
1761430217032629000,9.55562890625,-0.016338273882865906,0.0224764421582222,0.019275853410363197
1761430217052572000,9.575572021484374,-0.030057519674301147,0.06615544110536575,0.09866444766521454
1761430217072515800,9.595515869140625,-0.028489582240581512,0.03970775008201599,0.07756508141756058
1761430217092459000,9.615458984375,-0.005324708763509989,-0.02618778869509697,-0.018253497779369354
1761430217112403000,9.63540283203125,0.018488045781850815,-0.022729847580194473,-0.04878552258014679
1761430217132345900,9.655345947265625,0.0229840986430645,0.016088850796222687,0.01676502451300621
1761430217152290000,9.6752900390625,0.0016346309566870332,0.055520907044410706,0.06993000954389572
1761430217172233200,9.695233154296876,-0.010697435587644577,0.042369138449430466,0.04667646065354347
1761430217192177200,9.71517724609375,-0.004981360398232937,0.006323626730591059,0.012759444303810596
1761430217212121600,9.73512158203125,-0.004160972777754068,-0.007551282644271851,-0.012943459674715996
1761430217232064800,9.755064697265626,-0.009979313239455223,-0.017666608095169067,-0.05198507010936737
1761430217252008700,9.7750087890625,-0.04092913866043091,-0.039916690438985825,-0.06734506785869598
1761430217271951600,9.79495166015625,-0.039538100361824036,-0.04060796648263931,-0.018265509977936745
1761430217291895600,9.8148955078125,-0.02480899542570114,-0.017840776592493057,0.050521016120910645
1761430217311838700,9.834838623046876,-0.028519608080387115,-0.01227494515478611,0.039335835725069046
1761430217331782700,9.85478271484375,-0.02720780111849308,-0.018510764464735985,-0.0011256099678575993
1761430217351725600,9.8747255859375,-0.027576783671975136,0.018237929791212082,-0.007536683697253466
1761430217371669500,9.89466943359375,-0.02823035791516304,-0.018063949421048164,0.005242481827735901
1761430217391613700,9.91461376953125,-0.013265888206660748,-0.01452566310763359,-0.04454591125249863
1761430217411556600,9.934556640625,-0.011899321340024471,-0.01609528809785843,-0.05751185119152069
1761430217431500800,9.954500732421875,-0.016673337668180466,-0.00007532211020588875,-0.022697297856211662
1761430217451443700,9.974443603515626,-0.025745661929249763,0.023479219526052475,0.008848515339195728
1761430217471387600,9.9943876953125,-0.01070332806557417,0.03184692561626434,0.006870447192341089
1761430217491330600,10.01433056640625,-0.0017683561891317368,0.03532455861568451,-0.029343320056796074
1761430217511274500,10.0342744140625,0.0008275925065390766,0.0006362078711390495,-0.053792379796504974
1761430217531217700,10.0542177734375,0.00446140905842185,0.0073025524616241455,-0.03355864807963371
1761430217551161600,10.07416162109375,0.022647371515631676,0.024607092142105103,0.011525345966219902
1761430217571105800,10.094105712890626,0.03475739806890488,0.04143117368221283,0.00920898001641035
1761430217591048700,10.114048583984374,-0.012828664854168892,0.051854558289051056,0.07645238935947418
1761430217610992600,10.13399267578125,0.012543071061372757,0.0089388657361269,0.07000317424535751
1761430217630935600,10.153935546875,0.013504473492503166,0.014399461448192596,0.023577483370900154
1761430217650879700,10.173879638671876,0.013667091727256775,-0.022619687020778656,0.015143074095249176
1761430217670822700,10.19382275390625,0.004743871279060841,0.03964340686798096,0.03316480293869972
