time,seconds_elapsed,z,y,x
1761509275509927200,0.08192724609375,-0.1367196699976921,-0.014607941808784379,0.013062812992325052
1761509275530085400,0.10208544921875,-0.12324702496230601,0.014175824868679045,0.011870726264081895
1761509275550244400,0.122244384765625,-0.08807809642553328,0.00013138956101611257,-0.00322246917784214
1761509275570402300,0.14240234375,-0.05380991612076759,0.0007813870355021208,0.008749306307919322
1761509275590561300,0.162561279296875,-0.05306231262385845,0.0060412437924649565,0.004959659100836142
1761509275610719200,0.18271923828125,-0.06353402227759361,0.006242237124126404,-0.0013005703377071767
1761509275630878200,0.202878173828125,-0.05395487754940986,-0.0030757359172217547,0.0018320468659047036
1761509275651036200,0.2230361328125,-0.05499941816627979,-0.002808180155372247,-0.00008852766682393849
1761509275671195400,0.2431953125,-0.062329322662949556,0.00638935854381416,-0.0014999836336355655
1761509275691353300,0.263353271484375,-0.07055763730406761,0.0095911548263859,0.0064484180875588205
1761509275711511300,0.28351123046875,-0.07219955929219722,-0.0016231533555779605,0.002375652223313227
1761509275731670300,0.303670166015625,-0.05289338579773903,-0.006100988322799094,-0.007524340223381295
1761509275751828200,0.323828125,-0.07414017196595668,-0.0014047430982347577,-0.00007571385102346539
1761509275771987200,0.3439873046875,-0.051392333585023875,0.0022672142796218396,0.006268869402725249
1761509275792145200,0.364145263671875,-0.05422726475000381,0.012334932542615569,0.0011609883370809256
1761509275812304400,0.384304443359375,-0.07277239074409007,0.008374166552326642,0.0039018936762120573
1761509275832462300,0.40446240234375,-0.09745967275500297,0.012077528282022102,0.0012718648330308495
1761509275852621300,0.424621337890625,-0.1050830072402954,0.010480157821672036,0.010355380664533004
1761509275872779300,0.444779296875,-0.047315877926349635,0.0047553276011953124,-0.0019438184109982102
1761509275892938500,0.4649384765625,-0.09429974741935729,-0.001098467327770777,-0.010191276144003496
1761509275913095400,0.485095458984375,-0.06601473317742347,0.0040610023612156505,0.006702776441117748
1761509275933253600,0.505253662109375,-0.0540448939204216,-0.00006140219788067042,-0.01885057521406561
1761509275953412600,0.52541259765625,-0.07319675363600253,0.004122363459900953,-0.008297744881827383
1761509275973570600,0.545570556640625,-0.04730477201044559,0.002113576354179531,-0.0037032566984184084
1761509275993729500,0.5657294921875,-0.05658464153110981,0.006369439133792184,-0.007581020580371842
1761509276013887700,0.5858876953125,-0.07289572486281394,0.013848332780250347,-0.0021205540842376648
1761509276034046700,0.606046630859375,-0.06137421389520168,0.0015392379317898301,-0.003593330050539225
1761509276054204700,0.62620458984375,-0.06422025097608566,-0.0019502618515165522,0.002604108950635418
1761509276074363400,0.64636328125,-0.058087447309494014,0.009408761163917369,-0.008503523986460641
1761509276094521600,0.666521484375,-0.06736614778637885,-0.00030543552024755625,-0.0053563485345337536
1761509276114680600,0.6866806640625,-0.07649696422517299,-0.0073608613239368416,0.0014479155196808278
1761509276134838500,0.706838623046875,-0.0705149672061205,0.01037317204955034,-0.0024110249307937918
1761509276154997500,0.72699755859375,-0.060192310634255404,0.00551965847061947,-0.0031708029226865616
1761509276175155700,0.74715576171875,-0.07994272076487541,0.00898018788776826,0.0050021008699201045
1761509276195313700,0.767313720703125,-0.07305763742625714,-0.0012784863700624554,-0.0027905531671363858
1761509276215472600,0.78747265625,-0.05405541531443596,0.011979387970059178,-0.0014808588080573826
1761509276235630600,0.807630615234375,-0.07320844407379627,0.0029754447473678736,-0.0001276815002784133
1761509276255789600,0.82778955078125,-0.06573124006092548,0.009109070397866889,-0.004466706218430773
1761509276275947500,0.847947509765625,-0.06274024155139923,-0.0014163330713286995,-0.011927835879335179
1761509276296106500,0.8681064453125,-0.0664794280797243,-0.00012264456555712968,-0.0031927955587860196
1761509276316264700,0.8882646484375,-0.06752572226226329,0.009540712413936853,0.000756416991027072
1761509276336423700,0.908423583984375,-0.0670762249290943,0.003005684622004628,-0.006457889168802649
1761509276356581600,0.92858154296875,-0.051211716321110726,-0.00034065753067843616,-0.006568400338571518
1761509276376739600,0.948739501953125,-0.0607850158303976,0.008694817908015101,-0.0026963081455789505
1761509276396898600,0.968898681640625,-0.06737140848338603,0.011475890860753133,0.005163017919519916
1761509276417056500,0.989056396484375,-0.06707447136342524,0.0014679856267524882,0.0033401407407596707
1761509276437215500,1.009215576171875,-0.05884264959096908,0.006155262093571946,-0.012879300518427044
1761509276457373700,1.029373779296875,-0.06288461845815181,0.00108237014291808,0.01089164296570234
1761509276477532700,1.04953271484375,-0.06468377683460712,-0.0014421661989064887,-0.0032019287133123724
1761509276497690600,1.069690673828125,-0.05720189664661884,0.00784383166844491,-0.0060165751420892775
1761509276517849600,1.089849609375,-0.08204466148018837,0.004979057921050116,0.0037447760188952088
1761509276538007600,1.110007568359375,-0.07755728693306446,0.006533013931359164,0.005266204299358651
1761509276558165500,1.13016552734375,-0.0651379503428936,0.0044878220716957,-0.0030166261411271986
1761509276578324500,1.150324462890625,-0.06409048711657524,0.005159551887377165,-0.004134926113951951
1761509276598482700,1.170482666015625,-0.06573416267037391,-0.003399940070020966,0.0003490417665336281
1761509276618641700,1.1906416015625,-0.06707973206043243,-0.0007758843098999932,0.0027983346147928386
1761509276638799600,1.210799560546875,-0.06677753424346447,0.0038719551956746725,-0.00022274850574322043
1761509276658958600,1.23095849609375,-0.06139291859567165,0.0039288273489102715,-0.0028384291631635278
1761509276679116500,1.251116455078125,-0.0658826312303543,-0.0011090846199076623,-0.0026871567247435447
1761509276699275500,1.271275634765625,-0.06423544854521751,0.006834102070052177,0.004520144305564463
1761509276719433500,1.29143359375,-0.07650456300973892,0.0001637117948848754,-0.0062200983575545245
1761509276739591700,1.311591796875,-0.06617781478464603,0.006447806166205555,-0.0017804171433672307
1761509276759750700,1.331750732421875,-0.05705167452096939,0.004634815627220086,-0.012691239733574911
1761509276779908600,1.35190869140625,-0.07904898679554462,0.005314610018348321,-0.003973999931197614
1761509276800067600,1.372067626953125,-0.06169277832508087,-0.0012844959857407957,0.007896361006703228
1761509276820225500,1.3922255859375,-0.05959609830677509,-0.0015254240355687214,-0.003784697037329897
1761509276840384500,1.412384521484375,-0.06603343787789344,0.00864373617474921,-0.0032808483015745876
1761509276860542500,1.43254248046875,-0.0654343029409647,-0.0004673937494633719,-0.009905134412692859
1761509276880700700,1.45270068359375,-0.07231880175769329,-0.003119415228744037,-0.006003551263734698
1761509276900859600,1.472859619140625,-0.08219722169339656,0.006014058958017267,-0.003329254020564258
1761509276921019000,1.493018798828125,-0.05676175166368484,-0.0002449512043967843,-0.01369205080657266
1761509276941177900,1.513177734375,-0.07561901234686375,-0.00020728150855284184,-0.007484474003873765
1761509276961335800,1.533335693359375,-0.07397475227117538,-0.0009751880079740657,-0.0056003316245507445
1761509276981494800,1.553494873046875,-0.0627542700767517,0.0014402391033014282,-0.008927795546827837
1761509277001652700,1.57365283203125,-0.058714054775238035,-0.004780407243524677,0.006285829670680686
1761509277021811700,1.593811767578125,-0.0708323625922203,0.004290020777541212,-0.0010928458711598067
1761509277041969700,1.6139697265625,-0.06320084480047225,0.0015034040000056848,-0.010353097375901415
1761509277062127900,1.6341279296875,-0.05601999338567257,0.0018357092608697711,-0.0026613646963611244
1761509277082286800,1.654286865234375,-0.06634323447942733,0.001958385792467743,-0.004505458193086087
1761509277102444800,1.67444482421875,-0.05796469771265983,0.014359383008349685,-0.00006226984756067394
1761509277122603800,1.694603759765625,-0.054072950971126556,0.005515868211491033,-0.005357691108249128
1761509277142761700,1.71476171875,-0.07876374011337757,0.0014908550456864758,0.0019189670975320041
1761509277162920700,1.734920654296875,-0.06335048240423202,-0.0035176846981747074,-0.008972593669779599
1761509277183078700,1.75507861328125,-0.06843991449773311,0.008645179213164374,-0.007691349087050184
1761509277203238000,1.77523779296875,-0.051829555958509445,-0.005837738843308762,0.0014115381652023643
1761509277223395800,1.795395751953125,-0.0642488925486803,0.001730107161658816,-0.003329911607690155
1761509277243553800,1.8155537109375,-0.05467559303939342,-0.003169565380248241,0.0012887703020591289
1761509277263712800,1.835712646484375,-0.07128653610050678,0.005310381367802619,0.00048579248925670977
1761509277283870700,1.85587060546875,-0.04824292964339256,0.005257052878523245,-0.006082662648241967
1761509277304029700,1.87602978515625,-0.06095978787541389,0.0021973867466906086,-0.00029934827275574205
1761509277324187600,1.896187744140625,-0.04749240353703499,0.008716372152697294,-0.011274532202910631
1761509277344347000,1.916346923828125,-0.07352408589422703,-0.004551900283852592,-0.006047399538615718
1761509277364504800,1.9365048828125,-0.0759212101638317,-0.0046761066188337275,-0.005332620599074289
1761509277384662800,1.956662841796875,-0.07352642398178577,-0.0010165657645557075,0.00030207908595912157
1761509277404821800,1.97682177734375,-0.057063364958763116,0.002290211562719196,-0.005053228268958628
1761509277424979700,1.996979736328125,-0.07157996608912945,0.0003548778522759676,-0.004898101639328524
1761509277445138700,2.017138671875,-0.05646598358750343,-0.0017944593684514982,-0.005148295274423435
1761509277465296600,2.037296630859375,-0.06229600491523742,0.005968598681362345,-0.01192102254605852
1761509277485456000,2.057455810546875,-0.07232464697659015,0.0097376506249886,-0.009273028787923977
1761509277505613800,2.07761376953125,-0.06454582966864109,-0.007141464685904793,0.0038964411829598244
1761509277525771800,2.097771728515625,-0.06558920124173163,0.0003943422129843384,0.00003720847154036164
1761509277545930800,2.1179306640625,-0.06439385397732257,0.009932839836948551,-0.0014239318558946252
1761509277566088700,2.138088623046875,-0.055118076109886165,0.004089013746147975,0.00148840279369615
1761509277586247700,2.15824755859375,-0.06873977422714234,-0.0069611259832046924,-0.0028598464105278254
1761509277606405600,2.178405517578125,-0.07502572262883186,0.00224546367211733,-0.008043925384385512
1761509277626564900,2.19856494140625,-0.06215513513982296,0.0035230732593452556,-0.0012636632602661846
1761509277646722800,2.218722900390625,-0.0633516514480114,0.0068246492551174015,-0.002232362161949277
1761509277666881800,2.2388818359375,-0.06634615708887577,-0.00242679332208354,-0.00200106502356939
1761509277687039700,2.259039794921875,-0.06544774694442748,0.009503586140787229,-0.005702111498592421
1761509277707198000,2.279197998046875,-0.05691840353012085,0.005050314792664721,0.003163660795846954
1761509277727357000,2.29935693359375,-0.06470072796940803,0.008699293153733014,-0.000929590734001249
1761509277747514600,2.3195146484375,-0.0608113193154335,0.009747345468518324,0.0039939467406831675
1761509277767673900,2.339673828125,-0.05467793112695217,0.002814545964077115,-0.0057360503008123485
1761509277787831800,2.359831787109375,-0.0714385117918253,0.0028651025409577413,0.004480469882301986
1761509277807990800,2.37999072265625,-0.07278583474755286,0.0022410751913674175,0.011408816973911598
1761509277828148700,2.400148681640625,-0.062162149402499194,0.004052138634747826,0.0028164091276004907
1761509277848307000,2.420306884765625,-0.060817164534330365,-0.0012808335907757281,0.0004837740621063858
1761509277868466000,2.4404658203125,-0.06740180362164974,0.0021250658625736833,0.009693510089162737
1761509277888623600,2.46062353515625,-0.062763037905097,0.007594729445315897,-0.003742474463954568
1761509277908782800,2.480782958984375,-0.07413432674705982,-0.003703535259631462,-0.003913711978169158
1761509277928939500,2.500939453125,-0.06755027218163014,0.005154099394124932,-0.004083725649677216
1761509277949098500,2.521098388671875,-0.0551297665476799,-0.0003436075395904481,0.000251983733382076
1761509277969256700,2.541256591796875,-0.057825581502914426,0.017333005691389552,-0.0068006929907947775
1761509277989415700,2.561415771484375,-0.05378478167951107,0.0023048748423112556,0.006220308420108631
1761509278009573400,2.581573486328125,-0.06785130095481873,0.002818486920255236,-0.003768905813153833
1761509278029731600,2.601731689453125,-0.060519642892479894,0.010281150951120071,0.0014872611493803559
1761509278049890600,2.621890625,-0.05543137984275818,-0.0004796869754558429,0.00009656484280712902
1761509278070048500,2.642048583984375,-0.06769932526350021,0.005796607681899331,0.0015897077437024563
1761509278090207500,2.66220751953125,-0.06336334188580513,-0.00246502014035359,0.004857961425185203
1761509278110365700,2.68236572265625,-0.054831075862050056,0.007242509341007098,-0.012899073797976597
1761509278130523400,2.7025234375,-0.05109364289939403,-0.007521449579973705,0.000468768289219588
1761509278150682400,2.722682373046875,-0.06082125618755817,0.008027892131614499,-0.0038900205753277985
1761509278170840600,2.742840576171875,-0.07967559426128863,0.00041707920117769386,0.00616764665110968
1761509278190999600,2.76299951171875,-0.06396598395407199,0.0023573904808377845,-0.00862851120615378
1761509278211157500,2.783157470703125,-0.061271922564506524,0.0009250150235835462,-0.004600607396941632
1761509278231316500,2.80331640625,-0.051693362358212466,0.0019348450866760686,-0.004828534401301294
1761509278251474700,2.823474609375,-0.07652794388532638,0.006701246637734584,0.0010943071758840231
1761509278271633700,2.843633544921875,-0.06874620396792888,-0.0010091724759666249,0.00008391542378813028
1761509278291791400,2.863791259765625,-0.0641004239886999,0.0018451849086908623,-0.0021121515820734203
1761509278311949600,2.883949462890625,-0.06050561436712742,0.00010878957014065235,-0.0044309316521510475
1761509278332108500,2.904108642578125,-0.05167115052640438,0.007938008191343396,-0.0009177906983532011
1761509278352266500,2.9242666015625,-0.06184475401639938,0.0031853520378470417,0.004564595368644222
1761509278372425500,2.944425537109375,-0.06663549542427062,-0.00483097295355983,0.00030343992598354816
1761509278392583700,2.964583740234375,-0.06079962887763977,0.010537153272493742,-0.0006783102535177022
1761509278412742700,2.98474267578125,-0.07067629524767398,0.007738202169770374,-0.002691321443207562
1761509278432900400,3.004900390625,-0.07486848624050617,0.012318095572246238,0.006359936086507514
1761509278453058600,3.02505859375,-0.05915829141139984,0.003072301851119846,-0.009976409550616516
1761509278473217500,3.045217529296875,-0.07427110486924648,0.002500292383134365,0.004059550189645961
1761509278493375500,3.06537548828125,-0.04763853400945663,-0.0034565519283525645,0.003682159111462533
1761509278513534500,3.085534423828125,-0.06050561436712742,0.003921813086234033,0.001745428028376773
1761509278533692700,3.105692626953125,-0.08340309035181999,0.0058329393706051625,0.006291802753740921
1761509278553851600,3.1258515625,-0.05661912832260132,-0.0013066393188899382,0.000005342895397916436
1761509278574009600,3.146009521484375,-0.08339899869859219,-0.001183437630906701,0.00188454423812218
1761509278594167600,3.16616748046875,-0.05586743317246437,0.0035931062882533296,0.005240430537285283
1761509278614326500,3.186326416015625,-0.05257540588974952,0.0025749924540054052,-0.00848171401345171
1761509278634484500,3.206484375,-0.07143091300725936,0.00020508955146651713,-0.003980548402993008
1761509278654643500,3.2266435546875,-0.06948503963649273,0.007682567558973096,-0.0028505853918381033
1761509278674801700,3.2468017578125,-0.08938742545843124,-0.0013323217494180426,-0.006917588235577568
1761509278694960600,3.266960693359375,-0.055875031957030294,0.003978913568332791,0.0025176271104253825
1761509278715118600,3.28711865234375,-0.06664718586206436,-0.003580411203461699,0.006851564661506563
1761509278735277600,3.307277587890625,-0.0660480509251356,-0.0032600384089862926,0.003216048570210114
1761509278755435500,3.327435546875,-0.0635036271393299,0.005534892572369426,0.0016163674217648802
1761509278775593500,3.347593505859375,-0.04495031783878803,0.008135398493544199,0.001422662347415462
1761509278795752400,3.36775244140625,-0.06095978787541389,0.011028375422116368,-0.0013088997746352107
1761509278815910700,3.38791064453125,-0.06275602364242076,-0.0015236065378179773,0.0038345001289620995
1761509278836069600,3.408069580078125,-0.05586860221624374,0.004750487029296346,-0.0030792704480234532
1761509278856227600,3.4282275390625,-0.06365092665553093,-0.00719114447995089,-0.0019981698135845363
1761509278876386600,3.448386474609375,-0.07532324427068234,0.008021649620495737,0.003197590464912355
1761509278896544500,3.46854443359375,-0.05392623597681522,0.00028487222283147276,0.00606695362245664
1761509278916703000,3.488702880859375,-0.066196519485116,0.009815857827197759,-0.0078894198092632
1761509278936862000,3.508862060546875,-0.060358899372816084,0.002711409816588275,-0.005788054482685402
1761509278957020200,3.529020263671875,-0.08070669087469577,0.0024192721693310887,0.0036035135178361087
1761509278977179100,3.54917919921875,-0.06888415113389491,0.00988986834490206,-0.003120415309164673
1761509278997337000,3.569337158203125,-0.05361994650661945,0.0033838109191274266,-0.005585590713145211
1761509279017496000,3.58949609375,-0.07471592602729797,0.0013360983088146895,-0.005631009890604764
1761509279037654000,3.609654052734375,-0.06079787531197071,0.00045763040727470067,0.0012236235108226538
1761509279057812000,3.62981201171875,-0.06094517482817172,0.0061373748104320835,-0.01086612493195571
1761509279077971000,3.649970947265625,-0.05705342808663845,0.004785909969126805,0.0005321523816324771
1761509279098129200,3.670129150390625,-0.07291384504139423,-0.001604010263690725,0.006552764378022402
1761509279118288100,3.6902880859375,-0.05750175637602806,0.009642611018987371,0.007388027892075479
1761509279138446000,3.710446044921875,-0.0595955137848854,0.02149873336898163,-0.003650585796264931
1761509279158605000,3.73060498046875,-0.06258592777252196,0.006477877077483572,0.004824689343245699
1761509279178763300,3.75076318359375,-0.06542787320017815,-0.0021313540394650773,-0.011382805749820545
1761509279198921000,3.7709208984375,-0.05899111815094948,-0.004258278498984873,-0.00734500160110183
1761509279219080000,3.791079833984375,-0.06662146689891815,0.0013287187199573962,0.0012523198823444544
1761509279239238100,3.811238037109375,-0.07200491350293159,0.0011606412772089242,-0.005169328929297626
1761509279259397000,3.831397216796875,-0.06482347756624221,0.002101123297982849,-0.006555138998199254
1761509279279555000,3.85155517578125,-0.05614274298250675,0.012890863092057406,-0.007032839512545615
1761509279299714000,3.871714111328125,-0.07230301966667174,0.0058262584680691355,-0.004251492565171793
1761509279319872300,3.891872314453125,-0.05464578242301941,0.003435755735496059,-0.006328444969700649
1761509279340030000,3.912030029296875,-0.06811667389273643,0.008661819820711389,0.015030879928590729
1761509279360189000,3.93218896484375,-0.05884089602530002,0.008575337980501353,0.0037725225423462685
1761509279380347100,3.95234716796875,-0.06093874508738517,-0.00036096966634504494,0.011497472504898906
1761509279400506000,3.972506103515625,-0.067673606300354,0.012120349077018908,0.004378516478324309
1761509279420664000,3.9926640625,-0.0697691172748804,0.001216330686933361,-0.01723285608543083
1761509279440821000,4.012821044921875,-0.07276186935007571,-0.003759594562114216,-0.014877214603684841
1761509279460979000,4.03297900390625,-0.064680269703269,0.007037967778812162,-0.008980722177308052
1761509279481138000,4.053137939453125,-0.07440788299143314,-0.004642300247354432,0.0026956048926804212
1761509279501296000,4.073296142578125,-0.06288344941437245,0.008277743273414672,0.0007591112716123461
1761509279521454000,4.0934541015625,-0.06872165404856205,0.0032207110455958173,0.003320970249408856
1761509279541613000,4.113613037109375,-0.0518137738674879,0.009490174103365279,-0.0011945983457379043
1761509279561771300,4.133771240234375,-0.07261340079009533,0.00533763926748652,0.0011411876580677926
1761509279581930200,4.15393017578125,-0.060787938439846034,0.006223326927679591,-0.004771991041628644
1761509279602088000,4.174087890625,-0.067673606300354,0.0033305600616615263,-0.0052904345583170646
1761509279622247000,4.194246826171875,-0.054506666213274,-0.0000813124747481197,-0.00823797751860693
1761509279642405000,4.214405029296875,-0.05839782843291759,0.002856138349790126,-0.006586757979169487
1761509279662563000,4.23456298828125,-0.07037175934314728,-0.005050807983009145,-0.0020972828065045175
1761509279682722000,4.25472216796875,-0.054959086155891415,-0.0020403147551463917,-0.0021434052368625995
1761509279702880300,4.27488037109375,-0.06528408081531524,0.011418594015832059,0.009959166154870762
1761509279723039200,4.295039306640625,-0.06094283674061298,0.002290850883536041,0.0008085764365270734
1761509279743197000,4.315197021484375,-0.08278992688953876,-0.001616385688073933,0.01244127442734316
1761509279763355100,4.335355224609375,-0.07231178749501704,0.0016409036413999273,-0.006967162998346612
1761509279783514000,4.35551416015625,-0.0625847587287426,-0.0012028410176979378,-0.007386895380914211
1761509279803672000,4.375672119140625,-0.0678220748603344,0.003080498857307248,-0.004589501481037587
1761509279823831000,4.3958310546875,-0.06064356153309345,0.0012437073176261037,0.0007961918789893388
1761509279843989200,4.4159892578125,-0.04897358200550079,0.01263207972513046,0.0013693977902177721
1761509279864148200,4.436148193359375,-0.05062076469063759,0.006925913105928339,-0.014087187604000791
1761509279884306000,4.456305908203125,-0.06438625519275665,0.009742906755418517,-0.004416008077654987
1761509279904464100,4.476464111328125,-0.06932371159493923,-0.0008520045862998813,-0.002246308488911018
1761509279924623600,4.49662353515625,-0.0690244363874197,0.007164863827801309,-0.00931173509680666
1761509279944781600,4.516781494140625,-0.06632920595407485,-0.0020122394381323827,-0.002539318352425471
1761509279964940500,4.5369404296875,-0.05989537351429462,0.006262622325029224,-0.0009069405107758939
1761509279985098500,4.557098388671875,-0.04747779048979282,0.009879447415587491,-0.009008834026940166
1761509280005257700,4.5772578125,-0.05241466237008571,0.008941869737952947,-0.012462892604107037
1761509280025415700,4.597415771484375,-0.06513502773344516,0.00041729839688632635,-0.008724180999817326
1761509280045573400,4.617573486328125,-0.05705284356474876,0.008076211085636168,-0.0049205509331543
1761509280065732400,4.637732421875,-0.0693248806387186,0.0061655916913412505,0.008220779788633809
1761509280085890600,4.657890625,-0.07276596100330353,0.004694843285344541,-0.0054456068537198
1761509280106049500,4.678049560546875,-0.0751595781415701,0.004892758743930608,0.0057717700681649145
1761509280126207500,4.69820751953125,-0.0589987169355154,0.007038835428492166,-0.007242600672552362
1761509280146365700,4.71836572265625,-0.06468669944405556,-0.0019559746396727857,0.0019150124416220933
1761509280166524700,4.738524658203125,-0.06962415584623813,-0.0016774499592371284,-0.007139688287349418
1761509280186682400,4.758682373046875,-0.07575812855660916,0.0031735931013943627,-0.0031350557558704165
1761509280206841300,4.77884130859375,-0.06288871011137961,0.00020784319755621253,-0.006628980552544817
1761509280226999600,4.79899951171875,-0.07291793669462203,0.006762420506752096,0.00949481831244193
1761509280247158500,4.819158447265625,-0.06259528012275696,0.0009525514844805001,-0.0059345594144426285
1761509280267316500,4.83931640625,-0.06708382371366024,0.0036097286294912915,0.001469999487325549
1761509280287474700,4.859474609375,-0.0681312869399786,-0.0036568602734245357,-0.0053422286776360125
1761509280307633700,4.879633544921875,-0.06603694500923156,-0.0017179144003661348,0.0013264171650167553
1761509280327791400,4.899791259765625,-0.06648527329862117,0.0018848319324897601,0.0015845201119314878
1761509280347950300,4.919950439453125,-0.06873392900824546,0.003367060713726096,-0.004722872936585918
1761509280368108500,4.940108642578125,-0.059008069285750385,0.007831068084994331,0.004616179425409064
1761509280388266500,4.9602666015625,-0.06454641419053077,0.008073758833645842,-0.002279142179433256
1761509280408425500,4.980425537109375,-0.054368719047307966,0.0022145114114275203,-0.00016870763041079045
1761509280428583700,5.000583740234375,-0.09417407521307468,-0.005344717462244443,0.0009726078918203711
1761509280448742700,5.02074267578125,-0.10270108053982258,0.002776967599778436,0.0004688687539193779
1761509280468900400,5.040900390625,-0.07322013451159,0.001979656909359619,-0.0034500582554843275
1761509280489058600,5.06105859375,-0.06947802537381649,0.00392528825153131,-0.013387935027154161
1761509280509217500,5.081217529296875,-0.06872633022367954,0.0019263375532347707,-0.010849822251126169
1761509280529375500,5.10137548828125,-0.0640875645071268,0.001860834568971768,-0.005993669190537184
1761509280549534500,5.121534423828125,-0.06543547198474407,0.0051437286971602585,-0.006290624576807022
1761509280569692700,5.141692626953125,-0.04957388598620891,0.006398875290830619,-0.002648587413178757
1761509280589851600,5.1618515625,-0.05975041208565235,0.005533910758257843,-0.004895151630416512
1761509280610009300,5.18200927734375,-0.05990238777697086,-0.002723497546603903,-0.006834138602670282
1761509280630167600,5.20216748046875,-0.05212064785957336,-0.0005983586187940091,0.00024527086480520663
1761509280650326500,5.222326416015625,-0.05855564934313297,0.010103570461086928,-0.006741208755364641
1761509280670484500,5.242484375,-0.07262275314033032,0.009666188257397151,-0.001503874357463792
1761509280690643500,5.2626435546875,-0.06768646578192711,0.004917235598061233,-0.0038765765718650072
1761509280710801700,5.2828017578125,-0.07067921785712242,0.013516548109194263,-0.002747225482063368
1761509280730959600,5.302959716796875,-0.07068330951035022,0.0035772830980364233,-0.010083386189583689
1761509280751118600,5.32311865234375,-0.05796762032210827,0.003694438637723215,-0.002463960694428533
1761509280771276500,5.343276611328125,-0.05662555806338787,0.0018408375271363182,0.004022405650187283
1761509280791435500,5.363435546875,-0.06321136619448661,-0.005493021625443361,-0.0027881602806504816
1761509280811593500,5.383593505859375,-0.06336217284202575,-0.000008142207260243594,-0.0009566979366354643
1761509280831751700,5.403751708984375,-0.06560673689842224,0.006011487975018099,-0.009206977814389393
1761509280851910700,5.42391064453125,-0.062464347219467156,0.0035891972981160506,0.0037846513715572654
1761509280872068600,5.444068603515625,-0.07847849343121051,0.005631000757450238,-0.002545127038704231
1761509280892227600,5.4642275390625,-0.06949731459617614,0.013950372949196025,-0.01101674891640432
1761509280912385500,5.484385498046875,-0.06800093855857849,0.014266667790175415,0.0041132440051063895
1761509280932543700,5.504543701171875,-0.07398761175274848,-0.0007455028713680803,-0.006898947467189282
1761509280952701700,5.52470166015625,-0.057227615609765047,0.014406770380609668,-0.002986167070781812
1761509280972860000,5.54485986328125,-0.056927171358466144,0.002821404963126406,-0.008778450204012914
1761509280993019000,5.565018798828125,-0.060816580012440676,0.003618971381871961,-0.010035519326711073
1761509281013176600,5.585176513671875,-0.07578267847597599,0.010980595324211754,-0.001969646971998736
1761509281033335800,5.605335693359375,-0.06320961262881755,0.010837154565798118,-0.008353274461347608
1761509281053493800,5.62549365234375,-0.06724573627710342,0.012877706782962194,0.0023227529922965912
1761509281073651700,5.645651611328125,-0.06380173330307007,0.004767433597519993,0.0012626860127318649
1761509281093810700,5.665810791015625,-0.06350538070499896,0.001962605309858918,-0.002098817176464945
1761509281113969000,5.685968994140625,-0.059765025132894514,0.002444730837573297,-0.004313406219705939
1761509281134127900,5.7061279296875,-0.07682312743961811,0.005938920495728962,-0.0009411898402497172
1761509281154285800,5.726285888671875,-0.0645493367999792,-0.00262996034452226,-0.004341645933501422
1761509281174443800,5.74644384765625,-0.057363809210062025,0.006712279488402418,-0.009910769569035619
1761509281194602800,5.766602783203125,-0.06843640736639499,0.00753418119738344,-0.0023880824466235933
1761509281214760700,5.7867607421875,-0.06469488275051116,0.004360492197866551,-0.0028423107538372277
1761509281234919700,5.806919677734375,-0.060952189090847965,0.0016856560985790564,-0.004388727345084771
1761509281255078000,5.827077880859375,-0.0628986469835043,0.0016897020860342307,-0.0018782423614989966
1761509281275235800,5.84723583984375,-0.07127601470649242,0.005637220435682684,-0.0038332123541738837
1761509281295394800,5.867394775390625,-0.06529109507799148,0.004195784889138303,-0.009439316132385283
1761509281315552800,5.887552734375,-0.06603811405301094,0.014511847323435358,0.0017754304409958422
1761509281335711700,5.907711669921875,-0.061546063330769535,-0.0018478517898125573,0.005724067602073773
1761509281355869700,5.92786962890625,-0.059148354539275166,-0.0006173966794041916,-0.006444618695275858
1761509281376028000,5.94802783203125,-0.07471066533029079,0.006782134420797228,-0.0004160882539115846
1761509281396187000,5.968186767578125,-0.057203065690398215,0.006066099672508426,-0.007284503585519269
1761509281416344800,5.9883447265625,-0.0706716190725565,0.008003502042451873,-0.006864716404024511
1761509281436503800,6.00850390625,-0.05974865851998329,0.005601637665648013,-0.0006439421930350363
1761509281456661800,6.028661865234375,-0.060499184626340866,0.008020567341684364,-0.002632732256921008
1761509281476819700,6.04881982421875,-0.04673135603666305,0.012246103481692262,-0.0074887300538830455
1761509281496978700,6.068978759765625,-0.06469254466295242,-0.0044039203476393595,0.005426061903033405
1761509281517137000,6.089136962890625,-0.05391688362658024,0.005816559057962149,-0.018183316077524794
1761509281537296000,6.1092958984375,-0.08234861286282538,0.0010910968720680102,0.004787097279215231
1761509281557453800,6.129453857421875,-0.06319383053779602,0.005863617636659183,-0.00882381458254531
1761509281577611800,6.14961181640625,-0.06903028160631657,0.0050994328977074475,0.0009541223870590329
1761509281597770800,6.169770751953125,-0.07097732402086257,-0.00034558030096814034,-0.002902233380684629
1761509281617928700,6.1899287109375,-0.06768529673814773,0.010738799624703824,-0.0030600542909000068
1761509281638087700,6.210087646484375,-0.05720891090929508,0.0055430347796296695,-0.004885278690373525
1761509281658246000,6.230245849609375,-0.06963000106513499,0.0068972213009838015,-0.010874728363519534
1761509281678403800,6.25040380859375,-0.06379179643094539,0.0017430260087363421,-0.010736388471908867
1761509281698562800,6.270562744140625,-0.06798632551133632,-0.00027362017645500596,-0.0008107501273043453
1761509281718720800,6.290720703125,-0.05407645810246467,0.00540390030357521,-0.009799427282204851
1761509281738878700,6.310878662109375,-0.05826864909529686,0.0002227165397023782,-0.0031299868551082906
1761509281759037700,6.33103759765625,-0.0801174928098917,-0.002142377756978385,0.001112701349100098
1761509281779196000,6.35119580078125,-0.058117842447757716,0.011076196619216352,-0.0012997300874907523
1761509281799355000,6.37135498046875,-0.07547580448389053,0.006060149422334507,-0.0073769311093259595
1761509281819512800,6.391512939453125,-0.05527472797632217,0.010509128187829628,0.0022906408209819344
1761509281839670800,6.4116708984375,-0.0660480509251356,0.007901872865459882,-0.003798232372337952
1761509281859830000,6.431830078125,-0.06873918970525264,0.0009637304656207561,-0.008490911100059747
1761509281879987700,6.45198779296875,-0.06469429822862148,0.00921771383753512,-0.0010919325557071716
1761509281900146700,6.472146728515625,-0.06334463718533516,0.009636889097676613,-0.005341315362183377
1761509281920305000,6.492304931640625,-0.06304536197781563,0.0032989410806912927,-0.018551236074464395
1761509281940463400,6.51246337890625,-0.06139993285834789,0.008437025488354266,0.004138862503552809
1761509281960622300,6.532622314453125,-0.06948153250515461,-0.0008280620217090472,0.00009438201887533068
1761509281980780300,6.5527802734375,-0.06813771668076515,0.004547890829015523,-0.0040925574101042
1761509282000939300,6.572939208984375,-0.05990706395208835,0.0008299662844277918,-0.007077966429060324
1761509282021097500,6.593097412109375,-0.058707040512561794,0.005532225691247731,0.006975145375402644
1761509282041255200,6.613255126953125,-0.06050035367012024,0.0030060134155675765,0.0013025978980120271
1761509282061414100,6.6334140625,-0.06079787531197071,-0.005507602706644684,0.0046098592824768275
1761509282081572400,6.653572265625,-0.06543605650663376,0.0012872907310258596,-0.009496581011265515
1761509282101730300,6.673730224609375,-0.05600654938220977,0.006868885689065791,-0.0026861064119730145
1761509282121889300,6.69388916015625,-0.06528349629342556,0.0066606041000923134,-0.005814705027593299
1761509282142047500,6.714047607421875,-0.06408522641956806,0.003610687610716559,0.00016882636141963303
1761509282162206500,6.73420654296875,-0.06513152060210704,0.0037374009966151785,0.003420430302200839
1761509282182364200,6.7543642578125,-0.06019289515614509,0.007061083792918361,-0.01685288945767097
1761509282202522400,6.7745224609375,-0.06333528483510018,0.01058115681100171,0.0010452986686956137
1761509282222681300,6.794681396484375,-0.05630465554594993,0.0025027674680110066,-0.00419820974166505
1761509282242839300,6.81483935546875,-0.07216857963204383,0.0005596340436022729,-0.0026888280920218674
1761509282262998300,6.834998291015625,-0.0646890375316143,0.0033882770316908135,-0.007344681940693408
1761509282283156500,6.855156494140625,-0.07546411404609679,0.006103504506871104,-0.0018104286891408264
1761509282303314400,6.875314453125,-0.06080021339952946,0.005937559655704535,-0.0072898647472262375
1761509282323473200,6.89547314453125,-0.05675999809801578,0.005842561148898676,0.005498633948899805
1761509282343631400,6.91563134765625,-0.06618950522243976,-0.00003671528119593859,-0.0026715664299670604
1761509282363790300,6.935790283203125,-0.059902972298860546,-0.00040407815570943053,-0.006413173244241625
1761509282383948300,6.9559482421875,-0.06424363185167312,0.006866145742707885,-0.0010508424934931098
1761509282404106500,6.9761064453125,-0.06439502302110195,0.007519673181418329,-0.002601743463613093
1761509282424265500,6.996265380859375,-0.057064534002542494,0.006189721485599875,-0.00795898704729043
1761509282444423400,7.01642333984375,-0.06828852332830429,0.008494030072330497,-0.004859303998900577
1761509282464581400,7.036581298828125,-0.06469838988184928,0.0020106000368949025,0.0021042514034081247
1761509282484740400,7.056740234375,-0.06155716924667358,0.009653283110051415,0.003790953248180449
1761509282504898300,7.076898193359375,-0.05526946727931499,0.0024616865389514714,0.0016236282796133308
1761509282525057300,7.097057373046875,-0.062004328492283815,0.009751743082422763,-0.00199164874125272
1761509282545215500,7.117215576171875,-0.07053542547225952,0.007906211113859899,0.00005286269839853048
1761509282565373400,7.13737353515625,-0.06814239285588264,0.00032253735209815203,0.008076046688854694
1761509282585532400,7.157532470703125,-0.05452361734807491,0.002234028962650336,0.004539451794233173
1761509282605690400,7.1776904296875,-0.07382453014552592,0.0015400690488517282,0.003409041258506477
1761509282625849300,7.197849365234375,-0.06843757641017437,0.007545067917578853,-0.0033126956114079803
1761509282646007300,7.21800732421875,-0.055716042003035544,0.00690706684156321,0.010251883757440372
1761509282666165200,7.238165283203125,-0.06738485248684883,0.0040461244524922215,-0.005195394952315837
1761509282686324500,7.258324462890625,-0.07037994264960289,0.01006406500118319,-0.0062307019499596205
1761509282706482400,7.278482421875,-0.059902972298860546,0.005901191434380598,-0.010810768882371485
1761509282726640000,7.29864013671875,-0.06648936495184898,0.0050511230768403035,0.0005998929887544364
1761509282746799000,7.318799072265625,-0.06245324130356311,0.011200960076623596,-0.01086930326973088
1761509282766957300,7.338957275390625,-0.056767596882581706,0.00459301317895297,0.0008578406720422208
1761509282787116300,7.3591162109375,-0.06619535044133663,0.005541176182683557,0.0020936660773120818
1761509282807274200,7.379274169921875,-0.05601940886378288,0.001123706800304353,-0.0017471724608913062
1761509282827432400,7.399432373046875,-0.06439969919621943,0.006984817386046052,-0.008262974962545558
1761509282847591400,7.41959130859375,-0.05601999338567257,0.009755775370146148,0.0024508911503013223
1761509282867749400,7.439749267578125,-0.05766600702702999,-0.0008751297335606068,0.0003256608909461647
1761509282887907300,7.4599072265625,-0.08056289848983288,-0.004310296380589716,0.00041247152471914886
1761509282908066300,7.48006640625,-0.0679956778615713,0.004158215657994151,0.00244726528795436
1761509282928227300,7.500227294921875,-0.07039221760928631,0.016562838736223055,-0.00011305018672719597
1761509282948386300,7.52038623046875,-0.06276186886131763,0.0012749564058380201,-0.0013880659580696373
1761509282968544500,7.54054443359375,-0.05542962627708912,0.006579967478779144,-0.00328525048205629
1761509282988702500,7.560702392578125,-0.07099193706810474,-0.0008004387958440929,0.0017832484212704002
1761509283008861200,7.580861083984375,-0.06096680213809013,0.0076727448512800035,-0.004669389183679595
1761509283029019400,7.601019287109375,-0.07668167314231396,0.009227212318242526,-0.003053825479513034
1761509283049177300,7.62117724609375,-0.06500994004905224,0.0063197456400142975,0.0038793530508410183
1761509283069336300,7.64133642578125,-0.06591010375916957,0.007868902177619748,0.0016455843830946832
1761509283089494500,7.66149462890625,-0.06366378613710404,0.00640720016118139,0.0016761256518308073
1761509283109653500,7.681653564453125,-0.06665770725607871,0.008776408943976275,-0.001855838733445853
1761509283129811500,7.7018115234375,-0.06890344035625458,0.00701714875306934,0.005112876901170239
1761509283149969400,7.721969482421875,-0.06591068828105927,0.004709451766009442,0.007444900045311078
1761509283170128400,7.74212841796875,-0.05977087035179138,-0.003542627343186177,0.00594256919096224
1761509283190286300,7.762286376953125,-0.048996962881088256,0.004012660574307665,-0.001020931412419304
1761509283210444500,7.782444580078125,-0.06800210760235786,-0.0006796802266966552,-0.0017106398427858948
1761509283230603500,7.802603515625,-0.06261632291078567,-0.0025614114532247186,0.004790805339952931
1761509283250761500,7.822761474609375,-0.07189502338767051,0.009608293190854602,-0.005975512479338795
1761509283270920400,7.84292041015625,-0.06276888312399387,0.0028178019336657597,-0.0018762969995848834
1761509283291078400,7.863078369140625,-0.05887713638246059,0.0081541488597868,0.0031856534319464115
1761509283311236400,7.883236328125,-0.057228200131654736,0.013576826929068192,-0.005191750823659822
1761509283331395300,7.903395263671875,-0.062465516263246534,0.014581766187911852,0.005714724384993314
1761509283351553500,7.923553466796875,-0.06770166335105895,0.004779895786871202,-0.0005241700045764446
1761509283371711500,7.94371142578125,-0.06381167017519473,0.002971622522198595,-0.0075205590974073856
1761509283391870500,7.963870361328125,-0.0662052873134613,-0.0019857030576560645,0.0010473901610821485
1761509283412028400,7.9840283203125,-0.05722586204409599,0.005847949710069224,0.0013066438854672014
1761509283432187400,8.0041875,-0.06874678848981856,0.009285477277543395,-0.008902642839262261
1761509283452345300,8.024345458984374,-0.05632569833397865,0.001787203077180311,-0.0019910642193630337
1761509283472503300,8.04450341796875,-0.0557265633970499,-0.0018054967856965959,0.0024388353863265366
1761509283492662500,8.06466259765625,-0.06724982793033123,0.008779285887652076,0.001156832751771435
1761509283512820500,8.084820556640626,-0.0557265633970499,0.004448558640386909,-0.009574285889975727
1761509283532978400,8.104978515625,-0.07053834808170795,0.001553134026401676,-0.00028862594934180377
1761509283553137400,8.125137451171875,-0.05751812298893928,0.010528326078644021,-0.0036701855458784846
1761509283573295400,8.14529541015625,-0.07038403430283069,0.002309263323061168,-0.007129203425953164
1761509283593453300,8.165453369140625,-0.05811141270697116,0.00885989967607893,0.0019160810207016765
1761509283613612300,8.1856123046875,-0.055716042003035544,-0.0015786200941074638,0.0014029529999475925
1761509283633770500,8.2057705078125,-0.06708674632310867,0.013307882927730679,0.0036402561984956263
1761509283653929500,8.225929443359375,-0.07352174780666827,0.0013861890948144717,-0.0059863535337615756
1761509283674087400,8.24608740234375,-0.06259937177598476,0.010316404927591793,0.003214852126967162
1761509283694245400,8.266245361328124,-0.05122516032457351,0.01147594565968029,-0.0024302958868443964
1761509283714404400,8.286404296875,-0.06648585782051086,0.007374483423912897,-0.006932292614364996
1761509283734562300,8.306562255859374,-0.07082476380765437,0.0015886985301272942,-0.004881424499163404
1761509283754720500,8.326720458984376,-0.06394260307848453,0.00129087092760019,-0.0057592119806911795
1761509283774879500,8.34687939453125,-0.057955345362424845,0.007535194977535866,-0.00915669979872182
1761509283795037400,8.367037353515625,-0.05840659626126289,0.002168704074900597,0.005696987798903137
1761509283815195400,8.3871953125,-0.0705272421658039,0.015468558959802611,-0.0026390615330077706
1761509283835354400,8.407354248046875,-0.07426876678168773,-0.0009969705815194175,-0.004423405932821333
1761509283855512300,8.42751220703125,-0.06499123534858227,0.005804754455736838,0.001997640090622008
1761509283875671300,8.44767138671875,-0.0691810882538557,0.0023832464413018895,0.0048255478597711765
1761509283895829500,8.46782958984375,-0.06319558410346508,0.010786415325826965,0.001293565208185464
1761509283915987500,8.487987548828125,-0.06423720211088657,0.005468677202053368,0.008268719716742635
1761509283936143000,8.50814306640625,-0.0633341157913208,0.008912433580914512,0.003283469516923651
1761509283956301000,8.528301025390626,-0.071860536596179,-0.0016761850173352285,-0.0038920207361690697
1761509283976459000,8.548458984375,-0.06213701496124267,0.010524741315492428,0.011488458081381395
1761509283996618000,8.568617919921875,-0.05929214692413807,0.000016019553039222955,0.000708303532982245
1761509284016776200,8.588776123046875,-0.06527355942130088,-0.002116572028864175,-0.016266394806606695
1761509284036934100,8.60893408203125,-0.0607850158303976,0.003067849438288249,0.010356613640394061
1761509284057093000,8.629093017578125,-0.07320669050812721,0.0024731806139228862,0.0025425788885913786
1761509284077251000,8.6492509765625,-0.06273439633250236,0.007319976757699623,-0.0048989418895449485
1761509284097410000,8.66941015625,-0.06153904906809329,0.0054567401690874245,0.007958155930228531
1761509284117568000,8.689568115234374,-0.0693248806387186,0.001821004882082343,0.0029827512709889557
1761509284137726000,8.709725830078124,-0.06229132874011993,0.010033368468820117,-0.0024733678435906767
1761509284157885200,8.72988525390625,-0.06259001942574978,0.0013597394793061538,0.001001486926432699
1761509284178043100,8.750043212890626,-0.06393208168447018,-0.0005466786639066412,-0.004791618190705776
1761509284198200800,8.770200927734376,-0.0715600923448801,-0.0016672527922084554,-0.009623394861863926
1761509284218360000,8.790360107421876,-0.07545183908641338,-0.0008238333711633459,0.005303339705662801
1761509284238518000,8.81051806640625,-0.06363222195506095,0.0124061985473847,0.002360171526391059
1761509284258676000,8.830676025390625,-0.05046411282420158,0.010414545239554717,0.00035370880849659443
1761509284278835000,8.8508349609375,-0.06991583226919174,0.0038397608259692784,0.00000830203746445477
1761509284298993200,8.8709931640625,-0.1010398693293333,0.0023285616785753516,0.00576732222191058
1761509284319150800,8.89115087890625,-0.06273498085439205,0.0039817539793904864,-0.0060855395919177675
1761509284339309800,8.911309814453125,-0.007815057665109634,0.0028724638635059816,-0.012349075232399627
1761509284359468000,8.931468017578124,-0.08712415670156479,0.004118532101577148,-0.0002077335997018963
1761509284379627000,8.951626953125,-0.07486088745594024,0.002908169931126758,-0.0004566759926266968
1761509284399785000,8.971784912109374,-0.0440408017784357,0.005883523346949368,-0.0010286854606121778
1761509284419943200,8.991943115234376,-0.06664192516505718,0.0022732695610728115,0.008983023732248694
1761509284440102100,9.01210205078125,-0.05796645127832889,-0.0008242854623124003,0.004772529897745698
1761509284460260000,9.032260009765626,-0.06515373243391513,-0.0008003794303396716,0.0032527638514060525
1761509284480418000,9.05241796875,-0.06455518201887607,0.005492414270667359,0.005223022744758055
1761509284500577000,9.072576904296875,-0.06620411826968192,0.00031355946119874715,-0.003356096361717209
1761509284520735000,9.09273486328125,-0.055881461697816846,0.004256867426610552,0.0005200052861124277
1761509284540893200,9.11289306640625,-0.0650111090928316,-0.00190695699932985,0.0002558470577467233
1761509284561052200,9.13305224609375,-0.05812953288555145,0.0007520148105453699,0.009107581693679093
1761509284581210000,9.153210205078125,-0.0648632250547409,0.010520375667628831,-0.0034853852971922605
1761509284601368000,9.1733681640625,-0.07563888609111309,0.006009697876730933,0.0013839651716873048
1761509284621527000,9.193527099609375,-0.05842997713685035,0.005116370332776569,-0.00047512496476992964
1761509284641685000,9.21368505859375,-0.06007423721253872,0.008364471708796917,-0.003546824027691036
1761509284661844000,9.233843994140624,-0.048852585974335665,0.010126768673583865,0.008919730971381068
1761509284682002200,9.254002197265624,-0.0648632250547409,-0.0021534654065733776,0.00003047733665443957
1761509284702160100,9.27416015625,-0.062169163665175435,0.004564024546486326,0.005773980291560292
1761509284722319000,9.294319091796876,-0.06815408329367638,-0.0018269688319880514,0.002921550002507865
1761509284742477000,9.31447705078125,-0.06546235999166965,-0.0026034513635095208,0.010019189246417953
1761509284762635000,9.334635009765625,-0.05184650709331035,0.006015561361936852,-0.002363514260947704
1761509284782794000,9.3547939453125,-0.0605237345457077,0.012957873046817257,-0.008673893850995228
1761509284802952000,9.374951904296875,-0.07488952902853488,0.004530003545875661,0.004348833726113662
1761509284823110100,9.395110107421875,-0.06830488994121552,0.010215465303766541,0.0014218312303535638
1761509284843269000,9.41526904296875,-0.05648118115663528,0.008647485334682278,0.0016480686011258513
1761509284863426800,9.4354267578125,-0.06725508862733841,0.0019829311452573164,0.00249607286574319
1761509284883585000,9.4555849609375,-0.0600748217344284,0.009000358459539712,-0.001201375146396458
1761509284903744000,9.475743896484374,-0.047805707269906995,0.012453777715889736,-0.0019509148720651863
1761509284923902500,9.49590234375,-0.056932432055473325,0.0045690660477848725,-0.0009608443887904285
1761509284944060700,9.516060791015626,-0.07354337511658668,0.004751866135629825,-0.002017349438089877
1761509284964219600,9.5362197265625,-0.06456804150044917,0.0049091162236873055,0.0029680194927379487
1761509284984377600,9.556377685546876,-0.05229834251403808,0.008355347687425092,0.007708218023460358
1761509285004535600,9.57653564453125,-0.06531681404113769,0.0052178670790279285,0.0014430749477818607
1761509285024694500,9.596694580078125,-0.060979661619663235,0.007559758596634492,0.005416015433054417
1761509285044852500,9.6168525390625,-0.0689110391408205,0.008452455952926539,0.0034878147162962702
1761509285065010400,9.637010498046875,-0.05813888523578643,-0.0007514850875828415,0.0033458489623386413
1761509285085169700,9.657169677734375,-0.06098258422911167,0.016103925120737404,0.0012434424561448395
1761509285105327600,9.67732763671875,-0.06562076542377472,0.0025674439017893745,-0.007621014664042741
1761509285125485600,9.697485595703125,-0.06801672064960003,-0.0009093333972617983,0.007637874467298388
1761509285145644500,9.71764453125,-0.049909986072778696,0.002744257206842303,-0.0007510466961655766
1761509285165802500,9.737802490234374,-0.07564999200701714,0.01244902390895877,0.010708441019058226
1761509285185960400,9.75796044921875,-0.06383271296322346,-0.0002960101047763601,0.0019580935315228996
1761509285206119400,9.778119384765626,-0.059490299844741815,0.0015623265464324502,-0.004056444917107001
1761509285226277600,9.798277587890626,-0.06577566372454166,0.0017567714062985032,0.00024453107928857205
1761509285246435600,9.818435546875,-0.057846039769053455,-0.004882283015688881,0.0047973081459756935
1761509285266594600,9.838594482421875,-0.08777414504289627,0.0116569282497745,0.0012251396144740282
1761509285286752500,9.85875244140625,-0.0741565385788679,0.009047225241991691,0.003163953056791797
1761509285306910500,9.878910400390625,-0.08014613438248634,0.005869599852873943,0.009866336772264912
1761509285327069400,9.8990693359375,-0.06653028148412704,0.006015689226100221,0.010013618022156879
1761509285347227600,9.9192275390625,-0.06682897216975689,0.003505140310432762,0.003827969923475757
1761509285367385600,9.939385498046875,-0.05740297217667102,0.013449355491343885,0.00024147147252224385
1761509285387544600,9.959544677734375,-0.06039513972997665,0.00514378806266468,0.007506466639973223
1761509285407702500,9.97970263671875,-0.06308686303198337,0.007712391875078902,0.010321076536132023
1761509285427860500,9.999860595703124,-0.06592997750341892,0.0032312004735693335,-0.00394508436396718
1761509285448019500,10.02001953125,-0.0717652595281601,0.005906200969638302,0.00434878806034103
1761509285468177700,10.040177734375,-0.05500818599462509,0.002422263277438469,-0.00429427226097323
1761509285488335600,10.060335693359375,-0.050068391504883764,0.0008547490992350503,0.003540713947312906
1761509285508494600,10.08049462890625,-0.06248831261694431,0.005085016213287599,0.005218008642923087
1761509285528652500,10.100652587890625,-0.055605567365884775,0.006761379327136091,-0.00696263295370154
1761509285548810500,10.120810546875,-0.07371464003026484,0.010575932646612636,-0.002395188040845096
1761509285568969500,10.140969482421875,-0.06982640042006968,0.010767696925625205,-0.005072800619108602
1761509285589127400,10.16112744140625,-0.06398585769832134,0.006739665252249688,0.005628671803046018
1761509285609286700,10.18128662109375,-0.05650397751033306,0.010500616087811067,0.01173959243139252
1761509285629444600,10.201444580078125,-0.06997077732682228,0.003979393058945424,-0.00483197760055773
1761509285649602600,10.2216025390625,-0.05560498284399509,0.004175253557763063,0.005478915468277409
1761509285669760500,10.241760498046874,-0.06263795022070408,0.006558130106306634,-0.0005072736687026918
1761509285689919500,10.26191943359375,-0.044379824474453926,-0.0007282183764269575,0.00015646920334547756
1761509285710077400,10.282077392578126,-0.08014379629492759,0.008447158723301254,0.0019108111905399708
1761509285730235600,10.302235595703126,-0.06233750596940517,0.010363020548294298,-0.0007262319153174757
1761509285750394600,10.32239453125,-0.06503215188086033,0.0070933329615509135,0.0038657720500603317
1761509285770552600,10.342552490234375,-0.058009121376276014,0.014897047248738818,0.00248966139126569
1761509285790710500,10.36271044921875,-0.05262684381604194,0.005381336845317855,-0.002340946236113086
1761509285810869500,10.382869384765625,-0.05666881268322468,0.003658029317203909,0.0017953681173268705
1761509285831027500,10.40302734375,-0.0744751030087471,0.0037562655272893606,-0.002372757013328373
1761509285851185700,10.423185546875,-0.07283084293305873,0.009407391190738417,-0.009521870716148987
1761509285871344600,10.4433447265625,-0.06505027205944061,0.003796026715519838,-0.00007006956152617931
1761509285891502600,10.463502685546874,-0.06355681863129138,0.011387052666675298,0.0026251700049731877
1761509285911660500,10.48366064453125,-0.07477905439138412,0.008965976699325256,0.007929094232525675
1761509285931819500,10.503819580078124,-0.058765492701530454,0.006284226802061312,0.006769110542442649
1761509285951977500,10.5239775390625,-0.05816694228649139,0.011666440430213696,0.0120027368796058
1761509285972135400,10.544135498046876,-0.05397884294688701,0.00800148361530155,0.002577421873109415
1761509285992294700,10.564294677734376,-0.07133855854868888,0.01116908080074936,0.0009186126822605729
1761509286012452400,10.584452392578125,-0.053228316840529435,0.008781582876015454,-0.0020162443263921884
1761509286032610300,10.6046103515625,-0.0686368983745575,0.016920547866402194,0.003065707713551819
1761509286052769500,10.62476953125,-0.06952829425632953,0.014822328911558724,0.006243552298378199
1761509286072927500,10.644927490234375,-0.05950082123875618,0.004411994056240655,-0.003492363027250394
1761509286093085400,10.66508544921875,-0.05319266100525856,0.005167424666578881,0.012929998659202828
1761509286113244400,10.685244384765625,-0.09327332698106765,0.012288910576957277,-0.001739317947998643
1761509286133402400,10.70540234375,0.058796472361683845,0.021482220625597983,-0.022375534469820556
1761509286153560300,10.725560302734374,-0.07406243055462837,0.016919159626914187,0.007546871715597808
1761509286173719300,10.74571923828125,-0.10024550408124923,0.008766179810906759,0.006529894959088414
1761509286193877500,10.76587744140625,-0.07600947296917437,0.010118964393041096,0.004902330289874225
1761509286214035500,10.786035400390626,-0.04863280574381351,0.00815997124579735,-0.011028338889498264
1761509286234194400,10.8061943359375,-0.037274376383423805,0.030719205419183708,-0.002221648971689865
1761509286254352600,10.8263525390625,-0.04298632428944111,0.014987049920018761,0.004790577011089771
1761509286274510300,10.84651025390625,-0.05483809012472629,0.020611260177078657,0.002212415352463722
1761509286294669300,10.86666943359375,-0.06309212372899055,0.0013776998276822268,-0.00004242350277490914
1761509286314827500,10.88682763671875,-0.009224924463033676,0.0023493670045863836,-0.010167383811762555
