time,seconds_elapsed,z,y,x
1761509275509927200,0.08192724609375,-0.0010219558607786894,0.0012190788984298706,0.00021286937408149242
1761509275530085400,0.10208544921875,-0.00009859586134552956,0.0015398869290947914,-0.000940259313210845
1761509275550244400,0.122244384765625,0.00270823878236115,0.0005836579948663712,-0.0005542344879359007
1761509275570402300,0.14240234375,0.0005429943557828665,-0.00029863789677619934,0.0008193100802600384
1761509275590561300,0.162561279296875,0.0002472114283591509,0.002422432415187359,0.0009197730105370283
1761509275610719200,0.18271923828125,0.00030413269996643066,0.0011541163548827171,-0.0015253366436809301
1761509275630878200,0.202878173828125,-0.001031179097481072,0.0008175289258360863,-0.001058144960552454
1761509275651036200,0.2230361328125,0.000678609823808074,0.00019718613475561142,-0.0011890451423823833
1761509275671195400,0.2431953125,0.0014942637644708157,-0.00040944572538137436,0.001519191893748939
1761509275691353300,0.263353271484375,0.0013020590413361788,0.0013486286625266075,0.0013117536436766386
1761509275711511300,0.28351123046875,-0.000781387323513627,-0.0006420761346817017,-0.00014404486864805222
1761509275731670300,0.303670166015625,-0.000082819489762187,0.0017271721735596657,0.00039313873276114464
1761509275751828200,0.323828125,-0.00034527271054685116,0.0005742162466049194,0.0016465849475935102
1761509275771987200,0.3439873046875,0.0014771558344364166,0.0018113115802407265,0.0004993625916540623
1761509275792145200,0.364145263671875,-0.0005730090197175741,0.005848662927746773,0.0026354840956628323
1761509275812304400,0.384304443359375,-0.0000041762832552194595,0.0035270294174551964,0.0038135757204145193
1761509275832462300,0.40446240234375,0.002246521646156907,0.003097311593592167,0.0022610104642808437
1761509275852621300,0.424621337890625,-0.001756297773681581,-0.0033912137150764465,-0.001086583361029625
1761509275872779300,0.444779296875,0.002375301206484437,0.008143086917698383,0.003740871325135231
1761509275892938500,0.4649384765625,0.0006537861190736294,0.0017316173762083054,0.0004653222858905792
1761509275913095400,0.485095458984375,-0.0007683943258598447,-0.00004207063466310501,-0.0001405547372996807
1761509275933253600,0.505253662109375,0.0023078869562596083,0.000561470165848732,0.0004894710145890713
1761509275953412600,0.52541259765625,-0.0008012694306671619,-0.0011134827509522438,0.00027255015447735786
1761509275973570600,0.545570556640625,0.0013701114803552628,0.00040795188397169113,0.0023515350185334682
1761509275993729500,0.5657294921875,-0.000027046306058764458,0.00016469601541757584,-0.0010987641289830208
1761509276013887700,0.5858876953125,-0.001903270254842937,-0.0020839767530560493,0.0002858368679881096
1761509276034046700,0.606046630859375,-0.00014594406820833683,0.001592167653143406,-0.00033173849806189537
1761509276054204700,0.62620458984375,0.0002426248975098133,-0.00017676129937171936,-0.0031654145568609238
1761509276074363400,0.64636328125,0.0023580058477818966,-0.0009539630264043808,-0.000020626001060009003
1761509276094521600,0.666521484375,-0.0015377512900158763,-0.00033048633486032486,-0.0002612241078168154
1761509276114680600,0.6866806640625,0.002621373161673546,-0.0013374006375670433,-0.001429898664355278
1761509276134838500,0.706838623046875,-0.00016507715918123722,-0.003139892593026161,-0.000608842121437192
1761509276154997500,0.72699755859375,0.0006470559164881706,0.001437172293663025,0.0035191925708204508
1761509276175155700,0.74715576171875,-0.000677024363540113,0.00037334859371185303,-0.0003201146610081196
1761509276195313700,0.767313720703125,0.001276882365345955,-0.0014774827286601067,0.0006431059446185827
1761509276215472600,0.78747265625,0.000517028383910656,-0.0016235988587141037,0.0001593485940247774
1761509276235630600,0.807630615234375,-0.00021759711671620607,0.0008609071373939514,0.0010815495625138283
1761509276255789600,0.82778955078125,-0.0003030323423445225,-0.0020998818799853325,0.0003069797530770302
1761509276275947500,0.847947509765625,-0.0005387288983911276,0.00015995465219020844,0.00008537853136658669
1761509276296106500,0.8681064453125,-0.0010167720029130578,-0.0009300373494625092,-0.0024477820843458176
1761509276316264700,0.8882646484375,-0.0001613241620361805,-0.0018254900351166725,-0.0005818202625960112
1761509276336423700,0.908423583984375,-0.00046546454541385174,0.0019072545692324638,-0.00022168387658894062
1761509276356581600,0.92858154296875,0.0009407219476997852,0.0013957181945443153,-0.0006280096713453531
1761509276376739600,0.948739501953125,0.0013023351784795523,0.0015192152932286263,0.00045925378799438477
1761509276396898600,0.968898681640625,-0.000012475764378905296,-0.0028382986783981323,-0.0007984836120158434
1761509276417056500,0.989056396484375,0.00020247767679393291,-0.0015557343140244484,0.001046490389853716
1761509276437215500,1.009215576171875,0.0004391055554151535,0.00018181651830673218,-0.0009022443555295467
1761509276457373700,1.029373779296875,-0.00083040667232126,-0.0003910297527909279,-0.001093630911782384
1761509276477532700,1.04953271484375,0.0009520202875137329,-0.0013958830386400223,-0.0035194812808185816
1761509276497690600,1.069690673828125,-0.0005242004990577698,0.0019378969445824623,0.0006592415738850832
1761509276517849600,1.089849609375,-0.0011136708781123161,-0.000030440278351306915,-0.0004317392595112324
1761509276538007600,1.110007568359375,-0.0008787941187620163,-0.000246955081820488,-0.00011617457494139671
1761509276558165500,1.13016552734375,0.001483469270169735,-0.00013548973947763443,-0.0009402909781783819
1761509276578324500,1.150324462890625,-0.001090735662728548,0.0001301625743508339,0.001417361432686448
1761509276598482700,1.170482666015625,0.0017304914072155952,0.001659449189901352,-0.0013611786998808384
1761509276618641700,1.1906416015625,0.0015081316232681274,0.002177789807319641,-0.0010013154242187738
1761509276638799600,1.210799560546875,0.0008852016180753708,0.000296812504529953,-0.0006737981457263231
1761509276658958600,1.23095849609375,-0.0009666084079071879,-0.0003799470141530037,-0.0026916421484202147
1761509276679116500,1.251116455078125,-0.0014175442047417164,0.0015653148293495178,-0.0015446224715560675
1761509276699275500,1.271275634765625,-0.002050854032859206,0.0020321831107139587,0.00022913888096809387
1761509276719433500,1.29143359375,0.0024080374278128147,-0.0005454346537590027,0.00345114734955132
1761509276739591700,1.311591796875,-0.00011150934733450413,-0.0008331891149282455,-0.003511697519570589
1761509276759750700,1.331750732421875,0.0014367792755365372,0.0013321023434400558,0.000553871039301157
1761509276779908600,1.35190869140625,-0.0011632333043962717,-0.0008808905258774757,-0.0027998527511954308
1761509276800067600,1.372067626953125,-0.0023701160680502653,0.00065666064620018,-0.0035433911252766848
1761509276820225500,1.3922255859375,-0.0005712953861802816,0.0010370118543505669,0.0004267862532287836
1761509276840384500,1.412384521484375,0.00008362624794244766,-0.0029211360961198807,0.00022102869115769863
1761509276860542500,1.43254248046875,0.002435235306620598,0.00026437360793352127,-0.0011569119524210691
1761509276880700700,1.45270068359375,0.0004911515861749649,-0.000058346427977085114,0.001088242046535015
1761509276900859600,1.472859619140625,0.001208828529343009,-0.0010933037847280502,0.002634800970554352
1761509276921019000,1.493018798828125,0.0008020589593797922,0.0005699507892131805,-0.0006119876634329557
1761509276941177900,1.513177734375,0.0001872482243925333,-0.0007030097767710686,0.0016466856468468904
1761509276961335800,1.533335693359375,0.00037713651545345783,-0.001559884287416935,0.0016170365270227194
1761509276981494800,1.553494873046875,0.0012721915263682604,0.0021382560953497887,-0.0028323535807430744
1761509277001652700,1.57365283203125,-0.000247886055149138,0.0015331078320741653,-0.0004136422649025917
1761509277021811700,1.593811767578125,0.0024004741571843624,0.001064070500433445,0.0011051201727241278
1761509277041969700,1.6139697265625,-0.0017707226797938347,-0.002099870704114437,-0.00042128004133701324
1761509277062127900,1.6341279296875,-0.0003159455955028534,-0.00013532117009162903,0.0003801877610385418
1761509277082286800,1.654286865234375,0.0021540108136832714,-0.0006459988653659821,0.00027375994250178337
1761509277102444800,1.67444482421875,-0.0014225346967577934,-0.0008809063583612442,0.0005624948535114527
1761509277122603800,1.694603759765625,0.000560409389436245,0.00263168103992939,0.0028371878433972597
1761509277142761700,1.71476171875,-0.0002230487298220396,-0.0026062484830617905,-0.000850731274113059
1761509277162920700,1.734920654296875,0.0012141382321715355,-0.00029637012630701065,-0.0000374277587980032
1761509277183078700,1.75507861328125,-0.000534038757905364,-0.0011024009436368942,-0.0018806499429047108
1761509277203238000,1.77523779296875,0.00032625976018607616,0.00014567840844392776,-0.0007658000104129314
1761509277223395800,1.795395751953125,0.0010038376785814762,0.0003363322466611862,-0.0023482467513531446
1761509277243553800,1.8155537109375,0.0013121706433594227,-0.0007680077105760574,-0.0006743066478520632
1761509277263712800,1.835712646484375,0.0007573985494673252,-0.0026953844353556633,-0.0003276027273386717
1761509277283870700,1.85587060546875,-0.0028415394481271505,0.000787106342613697,-0.0009047964122146368
1761509277304029700,1.87602978515625,-0.0027328890282660723,0.0013059144839644432,0.00021914811804890633
1761509277324187600,1.896187744140625,-0.0003236796474084258,0.00001057703047990799,0.004399300552904606
1761509277344347000,1.916346923828125,-0.0009674481116235256,0.0005239536985754967,0.0007166990544646978
1761509277364504800,1.9365048828125,0.0007025462109595537,0.000014744699001312256,0.00008119456470012665
1761509277384662800,1.956662841796875,0.0007165370043367147,-0.00029932521283626556,0.0015997777227312326
1761509277404821800,1.97682177734375,0.0010144433472305536,0.0025652125477790833,0.0012064166367053986
1761509277424979700,1.996979736328125,-0.0015232731821015477,0.0007117502391338348,0.0028394521214067936
1761509277445138700,2.017138671875,-0.0007992142345756292,-0.0007171453908085823,0.0005571874789893627
1761509277465296600,2.037296630859375,-0.000027236295863986015,0.0027563106268644333,-0.0010793644469231367
1761509277485456000,2.057455810546875,-0.00034605711698532104,-0.0016015367582440376,-0.0006253314204514027
1761509277505613800,2.07761376953125,-0.0008351556025445461,0.00007819104939699173,0.001012283843010664
1761509277525771800,2.097771728515625,-0.00025848299264907837,0.0016798395663499832,0.0005501378327608109
1761509277545930800,2.1179306640625,0.00031158910132944584,-0.0002688085660338402,-0.0019850642420351505
1761509277566088700,2.138088623046875,0.0011946829035878181,0.00023679062724113464,-0.0016408686060458422
1761509277586247700,2.15824755859375,-0.0008267078083008528,-0.0020629344508051872,0.00023390445858240128
1761509277606405600,2.178405517578125,-0.0010047119576483965,-0.000043198466300964355,0.0014599666465073824
1761509277626564900,2.19856494140625,-0.00006023026071488857,0.0009277649223804474,-0.001081664813682437
1761509277646722800,2.218722900390625,0.001772052375599742,0.00025499705225229263,0.0010885512456297874
1761509277666881800,2.2388818359375,0.002256848616525531,-0.0003639357164502144,-0.0007126566488295794
1761509277687039700,2.259039794921875,0.0002690416295081377,-0.0011043166741728783,-0.0000362906139343977
1761509277707198000,2.279197998046875,-0.003479852806776762,-0.0017154151573777199,0.0006744596175849438
1761509277727357000,2.29935693359375,0.00017272913828492165,-0.0006484128534793854,0.001588489394634962
1761509277747514600,2.3195146484375,0.0025289813056588173,-0.0005146395415067673,-0.00008001760579645634
1761509277767673900,2.339673828125,0.0013494000304490328,0.0014679422602057457,-0.000057860976085066795
1761509277787831800,2.359831787109375,0.0016718599945306778,0.001193242147564888,0.001160199986770749
1761509277807990800,2.37999072265625,0.0005913581699132919,0.0009769117459654808,-0.0003922486212104559
1761509277828148700,2.400148681640625,0.000018157530575990677,-0.000829765573143959,-0.0001506407279521227
1761509277848307000,2.420306884765625,-0.00009139906615018845,-0.001063445582985878,-0.000630025751888752
1761509277868466000,2.4404658203125,-0.0005994644016027451,-0.002554972656071186,-0.0000983159989118576
1761509277888623600,2.46062353515625,-0.0004163976991549134,0.003085237927734852,0.00039395573548972607
1761509277908782800,2.480782958984375,-0.0008786310208961368,0.0007788250222802162,-0.00006142817437648773
1761509277928939500,2.500939453125,0.0013924327213317156,-0.0005990173667669296,-0.00009877188131213188
1761509277949098500,2.521098388671875,-0.0010249996557831764,0.0014757998287677765,-0.0010445029474794865
1761509277969256700,2.541256591796875,-0.00008815317414700985,-0.0034958310425281525,-0.0009166866075247526
1761509277989415700,2.561415771484375,0.0013339861761778593,-0.00005853269249200821,0.000986764905974269
1761509278009573400,2.581573486328125,0.0002153764944523573,0.00003578793257474899,0.00019255210645496845
1761509278029731600,2.601731689453125,-0.0015992764383554459,0.0005837557837367058,-0.0005207185167819262
1761509278049890600,2.621890625,-0.00013572932220995426,0.0005390485748648643,-0.0003207549452781677
1761509278070048500,2.642048583984375,0.0009835248347371817,0.0006369641050696373,-0.0011803978122770786
1761509278090207500,2.66220751953125,-0.0020689405500888824,-0.00039824843406677246,0.0002719603944569826
1761509278110365700,2.68236572265625,0.0002506012097001076,-0.000049563124775886536,0.002381560392677784
1761509278130523400,2.7025234375,0.0011223473120480776,-0.0015349285677075386,-0.002004242967814207
1761509278150682400,2.722682373046875,0.00005605490878224373,0.0019455784931778908,-0.00015728292055428028
1761509278170840600,2.742840576171875,-0.0005158964777365327,-0.003185192123055458,0.0007781761232763529
1761509278190999600,2.76299951171875,0.0024440938141196966,-0.0021805549040436745,0.0017509801546111703
1761509278211157500,2.783157470703125,0.00018431618809700012,-0.00042878463864326477,0.0017805388197302818
1761509278231316500,2.80331640625,0.0003379711415618658,0.0034651029855012894,0.0018858134280890226
1761509278251474700,2.823474609375,0.0024658346083015203,0.0009070513769984245,-0.0001537255011498928
1761509278271633700,2.843633544921875,0.00015901215374469757,0.004025077447295189,0.0012595111038535833
1761509278291791400,2.863791259765625,0.0006073161493986845,0.0007260730490088463,0.0008438918739557266
1761509278311949600,2.883949462890625,-0.001457983860746026,0.0013774167746305466,-0.0010813619010150433
1761509278332108500,2.904108642578125,-0.004212831147015095,0.00016370601952075958,0.0017889265436679125
1761509278352266500,2.9242666015625,0.0004006314557045698,0.0008422490209341049,0.000821573892608285
1761509278372425500,2.944425537109375,-0.0010236437665298581,0.001026214100420475,-0.00031678611412644386
1761509278392583700,2.964583740234375,0.0005205955822020769,-0.0008047400042414665,-0.0007257666438817978
1761509278412742700,2.98474267578125,0.0012273786123842,-0.0015638722106814384,0.001212164293974638
1761509278432900400,3.004900390625,0.0007962288800626993,-0.001946479082107544,-0.0015596954617649317
1761509278453058600,3.02505859375,0.00025947275571525097,0.001493486575782299,-0.0006031841039657593
1761509278473217500,3.045217529296875,-0.0015892861410975456,-0.0010295100510120392,-0.0022690219338983297
1761509278493375500,3.06537548828125,0.0003975694999098778,-0.001256559044122696,-0.0023058117367327213
1761509278513534500,3.085534423828125,-0.000051936134696006775,-0.0014779623597860336,-0.0024261209182441235
1761509278533692700,3.105692626953125,0.0008733111899346113,-0.0011049984022974968,-0.0005693559069186449
1761509278553851600,3.1258515625,-0.001651050872169435,0.0025166869163513184,0.0009314934723079205
1761509278574009600,3.146009521484375,-0.0007787722861394286,0.0003939550369977951,0.00041194772347807884
1761509278594167600,3.16616748046875,-0.00018562888726592064,-0.0010518673807382584,-0.004499286413192749
1761509278614326500,3.186326416015625,-0.001311618834733963,0.0007436266168951988,0.0014979119878262281
1761509278634484500,3.206484375,-0.0008851939346641302,-0.000980973243713379,-2.514570951461792e-7
1761509278654643500,3.2266435546875,0.0010484440717846155,0.0007340675219893456,-0.0005584950558841228
1761509278674801700,3.2468017578125,0.0012907779309898615,-0.0025014858692884445,0.0006321710534393787
1761509278694960600,3.266960693359375,0.002246350049972534,0.0005769738927483559,-0.0005210700910538435
1761509278715118600,3.28711865234375,0.00143745681270957,-0.00034391507506370544,0.0007388729136437178
1761509278735277600,3.307277587890625,-0.0013304381864145398,0.0007829563692212105,-0.001305280951783061
1761509278755435500,3.327435546875,0.0002765408717095852,-0.00232905987650156,0.0004734806716442108
1761509278775593500,3.347593505859375,-0.00024804752320051193,-0.000756911002099514,0.00003366684541106224
1761509278795752400,3.36775244140625,0.0006264136172831059,-0.0009038755670189857,0.0026346866507083178
1761509278815910700,3.38791064453125,0.0002914802171289921,0.000011988915503025055,0.003589535830542445
1761509278836069600,3.408069580078125,-0.00027453387156128883,-0.000937056727707386,-0.00013209995813667774
1761509278856227600,3.4282275390625,0.0009622506331652403,-0.00025818590074777603,0.0008035444188863039
1761509278876386600,3.448386474609375,-0.0012298786314204335,0.000013513490557670593,0.00022544199600815773
1761509278896544500,3.46854443359375,-0.0016294368542730808,-0.00011876504868268967,-0.00018530013039708138
1761509278916703000,3.488702880859375,0.0002409103326499462,-0.001849990338087082,0.001256066607311368
1761509278936862000,3.508862060546875,0.0012062476016581059,0.00195328239351511,0.0007309901993721724
1761509278957020200,3.529020263671875,-0.0008390957955271006,-0.0005171885713934898,0.000027204863727092743
1761509278977179100,3.54917919921875,-0.00024891248904168606,-0.0005567017942667007,-0.00012572389096021652
1761509278997337000,3.569337158203125,0.00020240526646375656,0.0019258279353380203,-0.0007459286134690046
1761509279017496000,3.58949609375,-0.0015102270990610123,0.0012483522295951843,0.0011756815947592258
1761509279037654000,3.609654052734375,0.0009755692444741726,0.002919001504778862,-0.0013991016894578934
1761509279057812000,3.62981201171875,0.0025940367486327887,-0.0013744551688432693,-0.001211531925946474
1761509279077971000,3.649970947265625,0.0025348735507577658,-0.001834365539252758,0.0012613509315997362
1761509279098129200,3.670129150390625,-0.000995406648144126,-0.00042196735739707947,0.0028748612385243177
1761509279118288100,3.6902880859375,-0.00016413535922765732,-0.0005498398095369339,-0.0033067013137042522
1761509279138446000,3.710446044921875,-0.000544533715583384,-0.0001263180747628212,-0.000967526575550437
1761509279158605000,3.73060498046875,-0.0003987859236076474,-0.00014541111886501312,0.0028294879011809826
1761509279178763300,3.75076318359375,0.0025044260546565056,-0.0005248859524726868,0.0011150185018777847
1761509279198921000,3.7709208984375,0.0005933055654168129,0.0034190528094768524,0.001942801522091031
1761509279219080000,3.791079833984375,0.0014543950092047453,-0.0009916368871927261,-0.000792754115536809
1761509279239238100,3.811238037109375,-0.000757400062866509,-0.0031153522431850433,0.0020183513406664133
1761509279259397000,3.831397216796875,0.0005813061725348234,0.00020852778106927872,-0.0005156511906534433
1761509279279555000,3.85155517578125,0.00045606005005538464,0.0014187516644597054,0.0015989897074177861
1761509279299714000,3.871714111328125,-0.0029199128039181232,0.0007535666227340698,0.0011428184807300568
1761509279319872300,3.891872314453125,0.0006259451620280743,-0.0009679123759269714,-0.0019330803770571947
1761509279340030000,3.912030029296875,0.00048616155982017517,-0.00029940158128738403,-0.0006491695530712605
1761509279360189000,3.93218896484375,-0.00019235117360949516,-0.0008663898333907127,0.0001724946778267622
1761509279380347100,3.95234716796875,0.0011407143902033567,-0.0015691174194216728,-0.0014533817302435637
1761509279400506000,3.972506103515625,-0.0006776473019272089,-0.00010220985859632492,-0.0035161743871867657
1761509279420664000,3.9926640625,-0.0003917720168828964,0.0007689148187637329,0.0002153411041945219
1761509279440821000,4.012821044921875,-0.00010243640281260014,0.0005808370187878609,0.0018522077007219195
1761509279460979000,4.03297900390625,0.00027455645613372326,0.0002529555931687355,0.0010226864833384752
1761509279481138000,4.053137939453125,0.0006803814321756363,0.0019933953881263733,-0.0017232743557542562
1761509279501296000,4.073296142578125,-0.00036230054683983326,-0.0011943550780415535,0.0025621613021939993
1761509279521454000,4.0934541015625,0.0010455262381583452,-0.0008648838847875595,-0.001938696950674057
1761509279541613000,4.113613037109375,-0.0007554810727015138,0.0011664889752864838,-0.000994524685665965
1761509279561771300,4.133771240234375,0.0024061838630586863,-0.0018133698031306267,0.002829562174156308
1761509279581930200,4.15393017578125,0.0029854322783648968,0.0042819129303097725,0.0019692680798470974
1761509279602088000,4.174087890625,-0.001669399905949831,-0.0017736908048391342,-0.0014810157008469105
1761509279622247000,4.194246826171875,-0.0022594183683395386,0.0008183056488633156,-0.0007564513944089413
1761509279642405000,4.214405029296875,-0.0001713151577860117,-0.0015703849494457245,-0.0029626083560287952
1761509279662563000,4.23456298828125,-0.00035301910247653723,0.0007764101028442383,-0.0008251168765127659
1761509279682722000,4.25472216796875,-0.0007236311212182045,-0.001864427700638771,-0.0005959633272141218
1761509279702880300,4.27488037109375,0.0023710241075605154,0.0006455974653363228,-0.0013106937985867262
1761509279723039200,4.295039306640625,0.0018600414041429758,0.0006239078938961029,-0.0015795296058058739
1761509279743197000,4.315197021484375,0.0014625086914747953,-0.0011359043419361115,0.00045474106445908546
1761509279763355100,4.335355224609375,-0.0016084274975582957,0.0008245017379522324,0.0013460658956319094
1761509279783514000,4.35551416015625,0.00016031088307499886,0.0007491027936339378,0.0023298468440771103
1761509279803672000,4.375672119140625,0.0014729758258908987,0.00020640529692173004,-0.0017807409167289734
1761509279823831000,4.3958310546875,0.0005330222193151712,-0.0008632373064756393,-0.0005653165280818939
1761509279843989200,4.4159892578125,-0.00029646442271769047,-0.0027848882600665092,0.00037642521783709526
1761509279864148200,4.436148193359375,0.0005441757384687662,-0.0005231024697422981,0.00042625144124031067
1761509279884306000,4.456305908203125,-0.0017770403064787388,0.00022265687584877014,-0.0017573039513081312
1761509279904464100,4.476464111328125,0.00034098257310688496,0.001179378479719162,0.0004791023675352335
1761509279924623600,4.49662353515625,0.0008834609761834145,0.0009064702317118645,-0.0002554175443947315
1761509279944781600,4.516781494140625,-0.0009989842073991895,0.001667913980782032,0.001830370631068945
1761509279964940500,4.5369404296875,0.001156429760158062,-0.0019648773595690727,-0.003208860754966736
1761509279985098500,4.557098388671875,-0.00194433587603271,-0.00004158075898885727,-0.00003513297997415066
1761509280005257700,4.5772578125,-0.0010512140579521656,-0.002781907096505165,-0.0027553618419915438
1761509280025415700,4.597415771484375,0.00033064931631088257,-0.0006596799939870834,0.0016291807405650616
1761509280045573400,4.617573486328125,-0.0014319622423499823,-0.002303777262568474,-0.0015461137518286705
1761509280065732400,4.637732421875,-0.00013668066821992397,-0.0006197895854711533,-0.0007106158882379532
1761509280085890600,4.657890625,0.0012547224760055542,-0.00029006227850914,-0.001115323044359684
1761509280106049500,4.678049560546875,-0.002335356781259179,0.0009029554203152657,0.00033892784267663956
1761509280126207500,4.69820751953125,0.003131601959466934,-0.0017605852335691452,0.0010883929207921028
1761509280146365700,4.71836572265625,0.00011662696488201618,-0.0015743868425488472,-0.0004114699549973011
1761509280166524700,4.738524658203125,0.003568085841834545,0.0012192949652671814,0.0022280504927039146
1761509280186682400,4.758682373046875,0.0013824691995978355,0.0038964999839663506,0.000642809784039855
1761509280206841300,4.77884130859375,-0.0006428050110116601,-0.0013271747156977654,0.00003892718814313412
1761509280226999600,4.79899951171875,-0.00021531060338020325,0.00044791214168071747,-0.0009894263930618763
1761509280247158500,4.819158447265625,-0.0006440459983423352,-0.0007435698062181473,0.0006911244709044695
1761509280267316500,4.83931640625,-0.000404182355850935,0.0008032061159610748,-0.0007032048888504505
1761509280287474700,4.859474609375,0.00017556734383106232,0.001393638551235199,-0.0009509145747870207
1761509280307633700,4.879633544921875,-0.0010432639392092824,0.000985841266810894,-0.0024035752285271883
1761509280327791400,4.899791259765625,-0.0026404359377920628,0.0017006052657961845,-0.00012114248238503933
1761509280347950300,4.919950439453125,0.0011525636073201895,-0.0015720529481768608,-0.00028359959833323956
1761509280368108500,4.940108642578125,0.000757372472435236,-0.00010549649596214294,-0.0011853724718093872
1761509280388266500,4.9602666015625,0.001630185404792428,-0.002805698662996292,-0.0005305109079927206
1761509280408425500,4.980425537109375,-0.0004606102593243122,-0.008770138025283813,-0.0005519953556358814
1761509280428583700,5.000583740234375,-0.0025848541408777237,-0.0011306097730994225,-0.0007905201055109501
1761509280448742700,5.02074267578125,-0.00020617619156837463,0.0006958935409784317,0.0007786392234265804
1761509280468900400,5.040900390625,0.0018648721743375063,0.0005928836762905121,0.0024549136869609356
1761509280489058600,5.06105859375,0.0021889880299568176,0.00017083343118429184,0.0014536413364112377
1761509280509217500,5.081217529296875,0.0006661296356469393,-0.0001531532034277916,0.0034003190230578184
1761509280529375500,5.10137548828125,-0.003081019502133131,-0.0010937340557575226,-0.0011291236151009798
1761509280549534500,5.121534423828125,-0.0007559938821941614,0.0009343372657895088,0.001853993278928101
1761509280569692700,5.141692626953125,-0.001808989210985601,0.0007035154849290848,-0.0014980034902691841
1761509280589851600,5.1618515625,-0.002307858783751726,-0.0017407555133104324,-0.0013896750751882792
1761509280610009300,5.18200927734375,-0.00047733262181282043,0.0006638756021857262,-0.0010455921292304993
1761509280630167600,5.20216748046875,-0.00039537972770631313,-0.0008617658168077469,0.0016173688927665353
1761509280650326500,5.222326416015625,0.0025071140844374895,-0.00034971628338098526,-0.0002770032733678818
1761509280670484500,5.242484375,-0.0008779445197433233,-0.0002521686255931854,0.0015736822970211506
1761509280690643500,5.2626435546875,0.000541480490937829,-0.003042311407625675,-0.0017484030686318874
1761509280710801700,5.2828017578125,0.00005230703391134739,0.0013268571346998215,-0.0006738533265888691
1761509280730959600,5.302959716796875,0.0006390013732016087,-0.0003083236515522003,0.00015445775352418423
1761509280751118600,5.32311865234375,0.000559553736820817,-0.0009022857993841171,-0.0040005529299378395
1761509280771276500,5.343276611328125,0.0006303086411207914,-0.00002618413418531418,-0.00435193907469511
1761509280791435500,5.363435546875,0.0008481508120894432,-0.000575781799852848,-0.0012212954461574554
1761509280811593500,5.383593505859375,-0.00338381202891469,0.002597339451313019,0.00019442127086222172
1761509280831751700,5.403751708984375,0.0003643389791250229,0.0010691583156585693,-0.0005924275610595942
1761509280851910700,5.42391064453125,0.00031705573201179504,-0.0014059022068977356,-0.002240006811916828
1761509280872068600,5.444068603515625,0.0020997817628085613,-0.0011411383748054504,-0.001965512987226248
1761509280892227600,5.4642275390625,0.0014461877290159464,0.0017186673358082771,0.0003919617738574743
1761509280912385500,5.484385498046875,-0.0016506379470229149,-0.00030372198671102524,-0.00134140788577497
1761509280932543700,5.504543701171875,-0.000856642727740109,0.0005275895819067955,-0.0031707261223345995
1761509280952701700,5.52470166015625,0.00008855853229761124,0.0019327858462929726,0.0017655091360211372
1761509280972860000,5.54485986328125,0.0011120433919131756,0.002164045348763466,-0.0013924345839768648
1761509280993019000,5.565018798828125,-0.001096482970751822,-0.0020102299749851227,-0.0010233661159873009
1761509281013176600,5.585176513671875,0.0011675995774567127,-0.0007592868059873581,0.0004832244012504816
1761509281033335800,5.605335693359375,0.00042828964069485664,0.005706014111638069,0.0023524595890194178
1761509281053493800,5.62549365234375,-0.0008460110984742641,0.0011070193722844124,0.0014813935849815607
1761509281073651700,5.645651611328125,0.002056433353573084,0.0006881076842546463,-0.0004395290743559599
1761509281093810700,5.665810791015625,-0.0004425857914611697,-0.00248812697827816,-0.0008501086849719286
1761509281113969000,5.685968994140625,-0.00011346838437020779,0.0022160010412335396,0.0010781807359308004
1761509281134127900,5.7061279296875,-0.0007137211505323648,0.0028896667063236237,-0.0017854785546660423
1761509281154285800,5.726285888671875,0.0007927136030048132,0.0010833144187927246,0.00011674035340547562
1761509281174443800,5.74644384765625,0.002292103599756956,0.0014858106151223183,0.0027001865673810244
1761509281194602800,5.766602783203125,0.001216256059706211,0.0005549825727939606,-0.0010626504663378
1761509281214760700,5.7867607421875,-0.000987996463663876,0.002186727710068226,0.00019266130402684212
1761509281234919700,5.806919677734375,-0.00017544487491250038,0.0027018077671527863,0.0022300342097878456
1761509281255078000,5.827077880859375,0.0009151878766715527,-0.00005994364619255066,0.0007638151291757822
1761509281275235800,5.84723583984375,-0.0026288372464478016,0.0014359857887029648,0.0012962298933416605
1761509281295394800,5.867394775390625,0.001038208371028304,0.0009183697402477264,-0.0016737887635827065
1761509281315552800,5.887552734375,-0.0027142856270074844,0.0027055973187088966,-0.0010377145372331142
1761509281335711700,5.907711669921875,0.0011192071251571178,0.0021701250225305557,0.0014810205902904272
1761509281355869700,5.92786962890625,-0.0020020981319248676,0.0006126184016466141,0.0014337024185806513
1761509281376028000,5.94802783203125,-0.0011807591654360294,-0.0010795611888170242,0.0006312623154371977
1761509281396187000,5.968186767578125,0.00016243732534348965,-0.00005940813571214676,-0.0010455204173922539
1761509281416344800,5.9883447265625,0.00004111859016120434,0.00004877708852291107,0.002679711440578103
1761509281436503800,6.00850390625,0.00040206662379205227,-0.0016560694202780724,-0.0014289685059338808
1761509281456661800,6.028661865234375,0.0010876839514821768,0.0022882670164108276,-0.0006319235544651747
1761509281476819700,6.04881982421875,-0.00010858941823244095,-0.001016169786453247,-0.000060862861573696136
1761509281496978700,6.068978759765625,-0.0013640036340802908,0.00037634000182151794,-0.0007155232597142458
1761509281517137000,6.089136962890625,0.0022019012831151485,0.00008625444024801254,0.0009172616992145777
1761509281537296000,6.1092958984375,0.0018625219818204641,0.0009827632457017899,0.000020985491573810577
1761509281557453800,6.129453857421875,-0.00019129528664052486,0.0017597712576389313,0.0027337633073329926
1761509281577611800,6.14961181640625,0.0034922254271805286,-0.0030590547248721123,-0.001121034612879157
1761509281597770800,6.169770751953125,0.001147278118878603,0.0017772894352674484,-0.00006496370770037174
1761509281617928700,6.1899287109375,-0.0009925668127834797,-0.0004997560754418373,0.003610843326896429
1761509281638087700,6.210087646484375,0.00006435648538172245,0.0010226229205727577,0.0009993885178118944
1761509281658246000,6.230245849609375,-0.0005317805334925652,0.0013734111562371254,0.0007047413382679224
1761509281678403800,6.25040380859375,0.00033586565405130386,-0.0008787484839558601,0.000260630389675498
1761509281698562800,6.270562744140625,0.0011109721381217241,-0.001453186385333538,-0.0015090517699718475
1761509281718720800,6.290720703125,0.0012943337205797434,-0.00017411913722753525,-0.0009034851100295782
1761509281738878700,6.310878662109375,-0.0002450253814458847,0.0011030929163098335,-0.0021912544034421444
1761509281759037700,6.33103759765625,0.002565460279583931,0.00046596117317676544,0.0009174873121082783
1761509281779196000,6.35119580078125,-0.00026795477606356144,-0.0006319275125861168,0.0005506682209670544
1761509281799355000,6.37135498046875,0.000810637604445219,-0.001124299131333828,-0.0009252871386706829
1761509281819512800,6.391512939453125,0.003894226858392358,0.0019346252083778381,0.0013382215984165668
1761509281839670800,6.4116708984375,0.002452040323987603,0.0017641671001911163,0.0018955919658765197
1761509281859830000,6.431830078125,-0.00003981380723416805,0.0013989238068461418,0.0009260831866413355
1761509281879987700,6.45198779296875,-0.001801992068067193,-0.00042112916707992554,-0.000555053586140275
1761509281900146700,6.472146728515625,0.000899437116459012,-0.0004532439634203911,-0.001014153240248561
1761509281920305000,6.492304931640625,0.0014921417459845543,0.0020129522308707237,0.002107996726408601
1761509281940463400,6.51246337890625,0.0003744959831237793,0.00006029102951288223,0.0004396250005811453
1761509281960622300,6.532622314453125,-0.00010556681081652641,-0.0006608786061406136,-0.0011164660099893808
1761509281980780300,6.5527802734375,0.0031998937483876944,0.000735756941139698,-0.0009057538118213415
1761509282000939300,6.572939208984375,-0.0028984826058149338,-0.0000052247196435928345,0.002757105976343155
1761509282021097500,6.593097412109375,-0.0013214132050052285,0.0003298269584774971,0.002238222397863865
1761509282041255200,6.613255126953125,-0.0007430322002619505,0.001390300691127777,0.0014864769764244556
1761509282061414100,6.6334140625,-0.001732763135805726,-0.0005645900964736938,-0.001041513867676258
1761509282081572400,6.653572265625,0.0022351329680532217,0.0002586003392934799,0.0009493948891758919
1761509282101730300,6.673730224609375,-0.000048477668315172195,0.002947191707789898,0.00017641368322074413
1761509282121889300,6.69388916015625,0.0006643496453762054,0.0005512824282050133,0.00022315699607133865
1761509282142047500,6.714047607421875,-0.0014986596070230007,-0.0003518620505928993,0.0004181631375104189
1761509282162206500,6.73420654296875,-0.0011032986221835017,0.0016912827268242836,-0.00009340723045170307
1761509282182364200,6.7543642578125,0.0005466395523399115,0.00009093992412090302,-0.001416119048371911
1761509282202522400,6.7745224609375,0.00295999925583601,0.0013549858704209328,0.0009576096199452877
1761509282222681300,6.794681396484375,0.0005255532450973988,-0.0004352731630206108,-0.0004079029895365238
1761509282242839300,6.81483935546875,-0.0009783172281458974,-0.001677858643233776,-0.0011601047590374947
1761509282262998300,6.834998291015625,-0.00009230920113623142,0.00152627844363451,-0.000949016772210598
1761509282283156500,6.855156494140625,-0.0001794644631445408,0.0006427625194191933,0.000418270006775856
1761509282303314400,6.875314453125,-0.00044207973405718803,-0.0016450369730591774,-0.0005831934977322817
1761509282323473200,6.89547314453125,-0.00010159332305192947,-0.0009121093899011612,0.0003474701661616564
1761509282343631400,6.91563134765625,0.0002456256188452244,-0.000600733794271946,-0.0022490595001727343
1761509282363790300,6.935790283203125,-0.0008397918427363038,0.001390267163515091,0.001599188195541501
1761509282383948300,6.9559482421875,-0.0008862661197781563,-0.0013320008292794228,0.0005934936925768852
1761509282404106500,6.9761064453125,-0.001132115488871932,-0.0020028548315167427,0.0007414703723043203
1761509282424265500,6.996265380859375,-0.0004767966456711292,0.0003468189388513565,-0.00014354009181261063
1761509282444423400,7.01642333984375,0.0021759849041700363,0.00013017188757658005,-0.0015195088926702738
1761509282464581400,7.036581298828125,0.002381938509643078,0.0003634430468082428,0.0008342682849615812
1761509282484740400,7.056740234375,-0.003955421503633261,-0.001183193176984787,-0.00143525586463511
1761509282504898300,7.076898193359375,-0.0008262267801910639,0.00007883645594120026,0.0013230128679424524
1761509282525057300,7.097057373046875,-0.0010305718751624227,0.0018164422363042831,0.0017178079579025507
1761509282545215500,7.117215576171875,0.000072430819272995,0.000711856409907341,0.0015877812402322888
1761509282565373400,7.13737353515625,0.0000907648354768753,0.0005575744435191154,0.000014149816706776619
1761509282585532400,7.157532470703125,-0.00012070429511368275,0.0013672756031155586,0.0018188826506957412
1761509282605690400,7.1776904296875,0.0019863955676555634,0.0013727415353059769,0.0017623304156586528
1761509282625849300,7.197849365234375,0.0019033055286854506,-0.0017636222764849663,0.001213105395436287
1761509282646007300,7.21800732421875,-0.0027011316269636154,0.0024742046371102333,0.0006554524879902601
1761509282666165200,7.238165283203125,-0.00011912919580936432,0.0005425103008747101,0.0013743618037551641
1761509282686324500,7.258324462890625,-0.0005041924305260181,-0.002293846569955349,-0.0011331560090184212
1761509282706482400,7.278482421875,0.0016939302440732718,-0.0004961621016263962,-0.00016500288620591164
1761509282726640000,7.29864013671875,0.0004351707175374031,-0.0005554994568228722,-0.0021159814205020666
1761509282746799000,7.318799072265625,0.0020179434213787317,-0.002210891805589199,-0.0012058501597493887
1761509282766957300,7.338957275390625,-0.0012083285255357623,-0.0019491305574774742,0.0017011574236676097
1761509282787116300,7.3591162109375,-0.001407058211043477,-0.001589188352227211,0.0008034766651690006
1761509282807274200,7.379274169921875,-0.0014915852807462215,-0.00035452935844659805,0.0008771778084337711
1761509282827432400,7.399432373046875,-0.0007775163976475596,-0.002171730622649193,-0.0005376031622290611
1761509282847591400,7.41959130859375,0.0010228892788290977,-0.0005172481760382652,-0.0009728055447340012
1761509282867749400,7.439749267578125,-0.0011651830282062292,-0.0022527528926730156,0.0005345814861357212
1761509282887907300,7.4599072265625,0.001377116423100233,-0.0008676880970597267,-0.0003980114124715328
1761509282908066300,7.48006640625,-0.00024194177240133286,0.00006636790931224823,-0.0005704632494598627
1761509282928227300,7.500227294921875,-0.0012861450668424368,-0.004151677712798119,-0.0009421908762305975
1761509282948386300,7.52038623046875,-0.00017377035692334175,-0.0005251802504062653,0.00013788556680083275
1761509282968544500,7.54054443359375,0.00008941208943724632,-0.003162311390042305,-0.0006104398053139448
1761509282988702500,7.560702392578125,0.00019501359201967716,-0.0009445622563362122,0.0019034994766116142
1761509283008861200,7.580861083984375,0.0003284839913249016,-0.0011434275656938553,-0.0029648179188370705
1761509283029019400,7.601019287109375,0.0008931481279432774,0.001285230740904808,-0.00273906416259706
1761509283049177300,7.62117724609375,0.0007566786371171474,-0.0013195127248764038,-0.0011765067465603352
1761509283069336300,7.64133642578125,-0.00028552114963531494,0.00038728490471839905,0.0015678893541917205
1761509283089494500,7.66149462890625,0.00013641919940710068,0.0018254490569233894,-0.002143397694453597
1761509283109653500,7.681653564453125,-0.00047332211397588253,-0.00046157464385032654,0.00021791132166981697
1761509283129811500,7.7018115234375,-0.00039739906787872314,-0.0007162885740399361,0.0010003084316849709
1761509283149969400,7.721969482421875,-0.0008468885207548738,0.0007432615384459496,0.00024937745183706284
1761509283170128400,7.74212841796875,-0.002557873958721757,-0.0001333095133304596,0.0012537746224552393
1761509283190286300,7.762286376953125,-0.0016719871200621128,-0.0005775801837444305,0.003265340579673648
1761509283210444500,7.782444580078125,0.0004462101496756077,0.0009341444820165634,0.0004102960228919983
1761509283230603500,7.802603515625,0.0007666386663913727,0.0012777242809534073,-0.0010122114326804876
1761509283250761500,7.822761474609375,-0.0007798429578542709,-0.0028395988047122955,-0.00023146416060626507
1761509283270920400,7.84292041015625,0.00042213196866214275,-0.001017814502120018,0.00016618706285953522
1761509283291078400,7.863078369140625,0.002884351182729006,0.0001919381320476532,0.0005335595924407244
1761509283311236400,7.883236328125,-0.0008600788423791528,0.0013696858659386635,-0.0008195028640329838
1761509283331395300,7.903395263671875,-0.001223785220645368,0.00021534692496061325,-0.0007568914443254471
1761509283351553500,7.923553466796875,0.0008838335052132607,-0.003454756923019886,0.0017953558126464486
1761509283371711500,7.94371142578125,-0.0001902810763567686,0.0018239645287394524,0.0007995665073394775
1761509283391870500,7.963870361328125,0.0028414821717888117,0.0014536119997501373,-0.0001909786369651556
1761509283412028400,7.9840283203125,0.001042365562170744,0.0016561849042773247,-0.00009203446097671986
1761509283432187400,8.0041875,0.001142673660069704,-0.00001905672252178192,-0.00037752464413642883
1761509283452345300,8.024345458984374,-0.0010509039275348186,0.002419332042336464,-0.0012275446206331253
1761509283472503300,8.04450341796875,-0.0017288813833147287,-0.0011769812554121017,-0.0002644406631588936
1761509283492662500,8.06466259765625,0.0008605245966464281,-0.0005259234458208084,0.0010994654148817062
1761509283512820500,8.084820556640626,0.000687768217176199,0.0015387125313282013,0.0011800704523921013
1761509283532978400,8.104978515625,-0.00017853896133601665,0.0006427019834518433,0.0007171730976551771
1761509283553137400,8.125137451171875,-0.003360572038218379,-0.0008084559813141823,-0.0010746736079454422
1761509283573295400,8.14529541015625,0.0002805660478770733,0.0019474085420370102,0.002924080705270171
1761509283593453300,8.165453369140625,-0.0012231837026774883,-0.0016774265095591545,-0.0008847904391586781
1761509283613612300,8.1856123046875,0.002073273528367281,0.001434898003935814,-0.0005228773225098848
1761509283633770500,8.2057705078125,-0.0007309797219932079,0.00018018018454313278,0.0007290865760296583
1761509283653929500,8.225929443359375,-0.0020364224910736084,-0.0005825655534863472,0.000042888568714261055
1761509283674087400,8.24608740234375,0.00322746648453176,0.001495244912803173,-0.0005502735730260611
1761509283694245400,8.266245361328124,0.001468035625293851,-0.0013838838785886765,0.0015125395730137825
1761509283714404400,8.286404296875,-0.0014030052116140723,0.003089125268161297,0.0026294486597180367
1761509283734562300,8.306562255859374,-0.0019904091022908688,0.00073262769728899,-0.0011398931965231895
1761509283754720500,8.326720458984376,0.0006132356356829405,0.0029040630906820297,0.00021243048831820488
1761509283774879500,8.34687939453125,0.0007890223059803247,-0.00022585783153772354,-0.0006078556180000305
1761509283795037400,8.367037353515625,0.000014463206753134727,-0.0004724031314253807,-0.00568919163197279
1761509283815195400,8.3871953125,-0.0006959517486393452,0.0005545178428292274,-0.00022727018222212791
1761509283835354400,8.407354248046875,-0.0010417853482067585,0.001559065654873848,0.0002535909879952669
1761509283855512300,8.42751220703125,-0.0014343763468787074,0.001316663809120655,0.0014448522124439478
1761509283875671300,8.44767138671875,0.0020550116896629333,0.0007376214489340782,-0.0006620313506573439
1761509283895829500,8.46782958984375,0.00046276720240712166,0.0026949234306812286,-0.0005151652731001377
1761509283915987500,8.487987548828125,0.0010218555107712746,0.0013679740950465202,0.001916249981150031
1761509283936143000,8.50814306640625,-0.00024055014364421368,0.0014924220740795135,0.0008322307839989662
1761509283956301000,8.528301025390626,-0.0012149441754445434,0.000733288936316967,0.0007044561207294464
1761509283976459000,8.548458984375,0.00043842755258083344,0.0007087793201208115,0.0017618517158553004
1761509283996618000,8.568617919921875,-0.0009867611806839705,0.0011197635903954506,0.0025724098086357117
1761509284016776200,8.588776123046875,0.0003324435092508793,-0.002899797633290291,-0.0011993879452347755
1761509284036934100,8.60893408203125,-0.00016486039385199547,-0.0015040598809719086,-0.002466286765411496
1761509284057093000,8.629093017578125,0.00005647074431180954,0.0010271072387695312,-0.0024279551580548286
1761509284077251000,8.6492509765625,-0.0005729304393753409,-0.0019845999777317047,-0.0010391317773610353
1761509284097410000,8.66941015625,-0.0009817513637244701,0.00012880563735961914,-0.0015873662196099758
1761509284117568000,8.689568115234374,-0.0008679854217916727,0.0010997820645570755,-0.0022366910707205534
1761509284137726000,8.709725830078124,0.0010316565167158842,0.0009139450266957283,0.0022992086596786976
1761509284157885200,8.72988525390625,-0.0003093080595135689,0.0008441060781478882,0.0012799326796084642
1761509284178043100,8.750043212890626,0.0021710458677262068,0.0015693772584199905,0.0025886434596031904
1761509284198200800,8.770200927734376,-0.0004284270107746124,-0.0009067831560969353,0.001250815112143755
1761509284218360000,8.790360107421876,-0.0027487787883728743,-0.0011659478768706322,0.000025280052796006203
1761509284238518000,8.81051806640625,-0.002006394322961569,-0.0009734835475683212,-0.0016370052471756935
1761509284258676000,8.830676025390625,-0.00047919421922415495,0.0007067304104566574,0.0006391315255314112
1761509284278835000,8.8508349609375,0.001285090111196041,-0.00024673808366060257,-0.0010331547819077969
1761509284298993200,8.8709931640625,0.002918244805186987,0.005760095082223415,0.00706751924008131
1761509284319150800,8.89115087890625,0.00032600550912320614,-0.00043193623423576355,0.0010724733583629131
1761509284339309800,8.911309814453125,0.0014059243258088827,-0.0012187976390123367,-0.0005788058042526245
1761509284359468000,8.931468017578124,-0.0016196358483284712,-0.0012323921546339989,-0.0028710002079606056
1761509284379627000,8.951626953125,-0.0017314241267740726,-0.0013701403513550758,-0.0007915787864476442
1761509284399785000,8.971784912109374,0.0013750828802585602,-0.000975300557911396,-0.0020922841504216194
1761509284419943200,8.991943115234376,-0.0023984313011169434,-0.0015845466405153275,-0.0010717648547142744
1761509284440102100,9.01210205078125,0.0008708890527486801,-0.0030525606125593185,-0.0013195620849728584
1761509284460260000,9.032260009765626,-0.0005406076088547707,-0.00037893932312726974,0.001791526796296239
1761509284480418000,9.05241796875,-0.0003440489526838064,-0.0021980134770274162,-0.0005050094332545996
1761509284500577000,9.072576904296875,-0.00012100650928914547,-0.004345661960542202,-0.0017338753677904606
1761509284520735000,9.09273486328125,0.0009707193821668625,-0.00099276565015316,0.0010490692220628262
1761509284540893200,9.11289306640625,-0.0005257638404145837,-0.0006873775273561478,0.0009369601029902697
1761509284561052200,9.13305224609375,0.00001354282721877098,-0.0013932250440120697,0.0008225599303841591
1761509284581210000,9.153210205078125,-0.0018236301839351654,0.0010267896577715874,-0.00016467389650642872
1761509284601368000,9.1733681640625,-0.002794863423332572,-0.00020787864923477173,-0.0025688710156828165
1761509284621527000,9.193527099609375,-0.0012288369471207261,0.0008314801380038261,-0.000009929994121193886
1761509284641685000,9.21368505859375,-0.0009514959529042244,0.0008666366338729858,-0.0023820302449166775
1761509284661844000,9.233843994140624,-0.0012236916227266192,0.0017534242942929268,0.0025912453420460224
1761509284682002200,9.254002197265624,0.0012280878145247698,-0.0004069162532687187,-0.0003533181734383106
1761509284702160100,9.27416015625,0.0018613282591104507,0.0015861103311181068,-0.0005524193402379751
1761509284722319000,9.294319091796876,-0.0016067168908193707,0.0012822356075048447,0.001809879788197577
1761509284742477000,9.31447705078125,-0.001752253738231957,-0.0021891891956329346,-0.0010842329356819391
1761509284762635000,9.334635009765625,0.0003880634903907776,0.0005192523822188377,0.0002290266565978527
1761509284782794000,9.3547939453125,-0.00025564595125615597,-0.0017589963972568512,0.001371217891573906
1761509284802952000,9.374951904296875,0.0022103318478912115,0.00044001638889312744,0.0016047564567998052
1761509284823110100,9.395110107421875,-0.00015100487507879734,0.0005626678466796875,-0.002381599508225918
1761509284843269000,9.41526904296875,-0.0006629854906350374,-0.0010089678689837456,-0.0009472467936575413
1761509284863426800,9.4354267578125,0.001105430768802762,0.0008313478901982307,0.0008804143872112036
1761509284883585000,9.4555849609375,-0.00122037623077631,0.0006770016625523567,-0.002545886440202594
1761509284903744000,9.475743896484374,-0.0005938645917922258,0.0005842875689268112,0.0004130988381803036
1761509284923902500,9.49590234375,-0.00010710279457271099,-0.0012190034613013268,0.00040551298297941685
1761509284944060700,9.516060791015626,0.0024132458493113518,-0.00039814598858356476,0.001117053208872676
1761509284964219600,9.5362197265625,0.00010014977306127548,-0.0010488787665963173,0.000035728560760617256
1761509284984377600,9.556377685546876,0.0019142534583806992,0.0013019926846027374,0.0015504825860261917
1761509285004535600,9.57653564453125,-0.002109925262629986,-0.000821603462100029,-0.0018481242004781961
1761509285024694500,9.596694580078125,-0.0020015353802591562,0.0003422833979129791,0.0003014064859598875
1761509285044852500,9.6168525390625,-0.0007605939172208309,-0.0012206081300973892,-0.0007377907168120146
1761509285065010400,9.637010498046875,0.0019649951718747616,0.0006162384524941444,0.0027051304932683706
1761509285085169700,9.657169677734375,0.0018840357661247253,-0.0020089810714125633,0.00019774842076003551
1761509285105327600,9.67732763671875,0.00022479146718978882,0.00008619856089353561,0.0006839302368462086
1761509285125485600,9.697485595703125,-0.0004790250677615404,-0.00038144178688526154,-0.0005158854182809591
1761509285145644500,9.71764453125,-0.0018245212268084288,-0.0013146018609404564,0.0007176867220550776
1761509285165802500,9.737802490234374,0.00010075676254928112,-0.0003808429464697838,-0.0001205597072839737
1761509285185960400,9.75796044921875,0.00025598984211683273,0.00041853077709674835,-0.00044720456935465336
1761509285206119400,9.778119384765626,-0.0015954459086060524,-0.00002536177635192871,-0.00013842666521668434
1761509285226277600,9.798277587890626,0.0011001620441675186,-0.0017770985141396523,0.0016034527216106653
1761509285246435600,9.818435546875,-0.002364059444516897,-0.0012346552684903145,0.0001811194233596325
1761509285266594600,9.838594482421875,-0.0014796045143157244,-0.000604311004281044,0.0013184526469558477
1761509285286752500,9.85875244140625,-0.002035353099927306,-0.00003095995634794235,0.0004452019929885864
1761509285306910500,9.878910400390625,0.002691558562219143,-0.0021766675636172295,0.0012432234361767769
1761509285327069400,9.8990693359375,0.00041667581535875797,-0.00007367506623268127,0.0012883462477475405
1761509285347227600,9.9192275390625,0.0012971318792551756,-0.002486112527549267,0.003748296992853284
1761509285367385600,9.939385498046875,-0.0002821341622620821,0.001186390407383442,-0.0038836197927594185
1761509285387544600,9.959544677734375,0.0009243718814104795,0.0009024553000926971,-0.003887093160301447
1761509285407702500,9.97970263671875,0.0017857183702290058,-0.0010389192029833794,0.0000647923443466425
1761509285427860500,9.999860595703124,0.00009607058018445969,-0.00007382500916719437,0.0005566286854445934
1761509285448019500,10.02001953125,0.0014465430285781622,-0.0025908760726451874,-0.0015670822467654943
1761509285468177700,10.040177734375,0.002361567225307226,0.0017020059749484062,0.0015174587024375796
1761509285488335600,10.060335693359375,-0.0009055705741047859,0.0011405665427446365,0.0010464233346283436
1761509285508494600,10.08049462890625,-0.0015318123623728752,0.00013423990458250046,-0.0014259882736951113
1761509285528652500,10.100652587890625,-0.000391836860217154,-0.0041834162548184395,0.001521974802017212
1761509285548810500,10.120810546875,-0.0018918778514489532,-0.0014266418293118477,0.00013678777031600475
1761509285568969500,10.140969482421875,0.000291172182187438,0.0004010722041130066,0.0015177277382463217
1761509285589127400,10.16112744140625,0.0002696265000849962,0.0023276377469301224,0.002370836678892374
1761509285609286700,10.18128662109375,0.001848751911893487,0.0007830243557691574,-0.0009045947808772326
1761509285629444600,10.201444580078125,0.0002232652623206377,0.001474904827773571,0.0004524015821516514
1761509285649602600,10.2216025390625,-0.0022183237597346306,-0.0006643440574407578,0.0006012986414134502
1761509285669760500,10.241760498046874,-0.00028502335771918297,0.0008766520768404007,-0.00043827760964632034
1761509285689919500,10.26191943359375,0.00031862989999353886,-0.0009250761941075325,0.00028590718284249306
1761509285710077400,10.282077392578126,0.0010470168199390173,0.0018699057400226593,0.0013659077230840921
1761509285730235600,10.302235595703126,0.0020279637537896633,-0.0011591436341404915,0.0022957255132496357
1761509285750394600,10.32239453125,0.0009526561480015516,-0.0023991139605641365,-0.001237191492691636
1761509285770552600,10.342552490234375,0.0004052633885294199,-0.0010904595255851746,0.0005738944746553898
1761509285790710500,10.36271044921875,-0.001236035954207182,-0.0025996780022978783,-0.0010921158827841282
1761509285810869500,10.382869384765625,-0.001905190758407116,-0.001219191588461399,0.00010849791578948498
1761509285831027500,10.40302734375,-0.0008608241332694888,-0.00042440835386514664,-0.00015696627087891102
1761509285851185700,10.423185546875,0.0013905391097068787,0.0014146119356155396,-0.0030273129232227802
1761509285871344600,10.4433447265625,-0.0022829778026789427,0.0008872058242559433,0.00016342662274837494
1761509285891502600,10.463502685546874,0.000515002990141511,-0.0008054058998823166,0.0003977445885539055
1761509285911660500,10.48366064453125,-0.0009066637139767408,-0.0002334369346499443,0.0004709211643785238
1761509285931819500,10.503819580078124,-0.0013996484922245145,0.0027045253664255142,0.000019508879631757736
1761509285951977500,10.5239775390625,-0.0011048967717215419,-0.0017642900347709656,-0.002309911185875535
1761509285972135400,10.544135498046876,-0.00017919833771884441,-0.0001865467056632042,-0.0027672341093420982
1761509285992294700,10.564294677734376,-0.0007949589053168893,-0.0004451880231499672,0.00010971911251544952
1761509286012452400,10.584452392578125,-0.0009437862318009138,-0.0008266232907772064,0.0005679640453308821
1761509286032610300,10.6046103515625,-0.00008473079651594162,0.0023015225306153297,0.002853325568139553
1761509286052769500,10.62476953125,-0.00048182858154177666,0.001551637426018715,0.0026529727037996054
1761509286072927500,10.644927490234375,-0.0013172334292903543,0.0008491482585668564,0.0006029293872416019
1761509286093085400,10.66508544921875,-0.0012681634398177266,0.019414711743593216,0.022195378318428993
1761509286113244400,10.685244384765625,0.0007582185789942741,0.008195769973099232,0.01327164750546217
1761509286133402400,10.70540234375,0.0020592943765223026,0.002267414703965187,0.007457044906914234
1761509286153560300,10.725560302734374,-0.0007201147964224219,0.004063447006046772,0.004460853524506092
1761509286173719300,10.74571923828125,-0.003797525307163596,-0.0018513444811105728,0.002475867047905922
1761509286193877500,10.76587744140625,-0.0016545910621061921,0.0026626065373420715,0.005400939844548702
1761509286214035500,10.786035400390626,-0.0011513809440657496,0.003713158890604973,-0.003857660572975874
1761509286234194400,10.8061943359375,0.000021431827917695045,-0.0051316386088728905,-0.00527446111664176
1761509286254352600,10.8263525390625,0.002026188652962446,-0.01271668542176485,-0.009682394564151764
1761509286274510300,10.84651025390625,-0.00044887978583574295,-0.007975711487233639,-0.009703697636723518
1761509286294669300,10.86666943359375,0.002485323930159211,-0.002737022005021572,-0.004521987400949001
1761509286314827500,10.88682763671875,-0.0030569820664823055,0.002075490541756153,-0.004544357769191265
