time,seconds_elapsed,z,y,x
1761431256314141000,0.012140869140625,2.325015311205387,0.1781578880622983,-0.36165611423924565
1761431256334084900,0.0320849609375,3.0981524778217073,0.385483710680902,-0.36494251549877227
1761431256354028000,0.052028076171875,3.913414967983961,0.38918314972072837,-0.3847324539221823
1761431256373971000,0.071970947265625,4.881076343312859,0.29675182652175425,-0.6616410043980926
1761431256393915000,0.091914794921875,6.045535132983327,0.5001856101378798,-1.529456177161634
1761431256413858000,0.111858154296875,6.62778323251903,0.34497692824751136,-1.5248556976288556
1761431256433802000,0.131802001953125,6.711535866960883,0.0039461072772741315,-1.0743859392311423
1761431256453745000,0.151744873046875,6.624568362125754,0.004955284319818019,-0.5735691915828734
1761431256473687800,0.171687744140625,6.852582167986035,-0.2365577623218298,-1.5037193860977887
1761431256493631700,0.1916318359375,5.790202527564763,0.249741069021821,-1.9446949746370314
1761431256513575000,0.211574951171875,4.610035881152749,0.5514416039921343,-2.920043397337198
1761431256533517800,0.231517822265625,3.719799106287956,1.875996409203112,-2.5811378979578614
1761431256553462000,0.2514619140625,2.6108359938681125,1.3234336922265588,-1.609831736385822
1761431256573405000,0.271405029296875,-0.5868880342960358,1.3439862125203013,-1.6057856758654117
1761431256593348000,0.29134814453125,-3.4668343990445134,1.4660200623005628,-1.3727027500472961
1761431256613292000,0.3112919921875,-5.309620320302248,1.6153984306022524,-1.2733449885860084
1761431256633235000,0.33123486328125,-6.083882107034325,1.3774958295427262,-1.091800672955811
1761431256653177900,0.351177734375,-6.302049641662836,1.3876178489759563,-0.44805020310059185
1761431256673122000,0.3711220703125,-6.652454147917032,1.3804521951302886,1.1238530769072472
1761431256693065000,0.39106494140625,-7.986393890458345,1.8100284377768634,1.3001276354409754
1761431256713009000,0.4110087890625,-8.224424063420296,1.816338643836975,1.5407067622333763
1761431256732951800,0.430951904296875,-6.630815147560835,1.3086992105618118,2.1703125330105424
1761431256752895000,0.45089501953125,-4.548585679411888,0.72856927222386,2.089183817331493
1761431256772839000,0.4708388671875,-3.381575451692939,0.1863488298350945,0.95653353985399
1761431256792781800,0.49078173828125,-2.021231686350703,-0.4969834530957043,0.36972558505684133
1761431256812724700,0.510724853515625,-1.1333967119306325,-1.1676515212971716,-0.22831132750213146
1761431256832669000,0.5306689453125,-0.8745248264700174,-1.181012011194974,0.24800766935795543
1761431256852612000,0.550612060546875,-2.819639487823844,-0.6197023625306785,1.5466422897621988
1761431256872555000,0.570554931640625,-3.400236313021183,-1.5461612282469868,1.4596575415313242
1761431256892499000,0.5904990234375,-1.2375760483294724,-0.9213001677788794,-0.7583994700811802
1761431256912441900,0.61044189453125,0.012118892338871956,-1.1043106104388833,-1.33831927279979
1761431256932386000,0.630385986328125,1.7485282594144342,-1.8396560987994073,-0.3215136350736022
1761431256952329000,0.650328857421875,-9.327072585865855,-0.3412574693329632,-2.3516515353269876
1761431256972271900,0.67027197265625,-2.025385298898816,0.08269041203781961,-0.5102867329135536
1761431256992215800,0.6902158203125,0.3758984284728765,-0.6635765755705535,0.7015659683555364
1761431257012159000,0.710158935546875,-0.6715425860136747,0.6625557080902159,0.09015008039399981
1761431257032102000,0.730101806640625,0.22983049989342688,-0.2663821149602532,0.07792845833301544
1761431257052045800,0.7500458984375,0.7452174785554408,0.11220423742234706,0.1593837756179273
1761431257071988700,0.76998876953125,1.3691151008188724,0.717210404472053,0.1024494438663125
1761431257091933000,0.789932861328125,2.272656762936711,0.8575405200518668,-0.07453355519771576
1761431257111876000,0.8098759765625,-2.711303031745553,2.808963780030608,-1.6195385991469025
1761431257131819000,0.829819091796875,-1.269873220822215,1.9878936265029012,-0.8808290411807597
1761431257151763000,0.849762939453125,0.32730770830512046,-0.282310117258504,0.3547970421247184
1761431257171705900,0.869705810546875,0.34239655636548993,0.10673128590397536,0.1886860040783882
1761431257191649000,0.88964892578125,0.27900983360409737,-0.16434201907981186,-0.1895082802467048
1761431257211593500,0.909593505859375,0.4125812687039375,-0.37857732882592826,0.14722630483433605
1761431257231536400,0.929536376953125,-0.23721242683827876,0.35979642131458967,0.34291356597691774
1761431257251479300,0.949479248046875,-1.0931699154824017,0.0003400456093251705,0.3606730945512652
1761431257271423200,0.96942333984375,0.14438684362471102,0.31458946183361114,0.33596126262098547
1761431257291366400,0.989366455078125,-0.6741805333018303,0.243129523661267,0.3861109026685357
1761431257311310600,1.009310546875,0.5145189636558294,-0.23899196719881147,0.007594985173642635
1761431257331253500,1.02925341796875,0.6079466044157743,0.8199865960747003,-0.5619967541456222
1761431257351196400,1.049196533203125,1.1539438253968954,0.23449187930058688,0.07134995672553777
1761431257371140600,1.069140625,-1.0388222392231226,0.08225808503516018,-0.02781184377223253
1761431257391083500,1.08908349609375,-0.6655728639543056,-0.12495616696774958,0.4201975889265537
1761431257411026400,1.1090263671875,0.7270084526479244,0.051932267414312804,-0.01341010119318962
1761431257430970400,1.128970458984375,1.0777940671741961,-0.02214892263971269,-0.28516937914714213
1761431257450913500,1.14891357421875,0.33906770420372484,-0.39300212348699565,-0.2923290416434407
1761431257470856400,1.1688564453125,-0.594830517733097,-0.4947748006029054,0.08908566603288054
1761431257490800400,1.18880029296875,-0.03401449780464172,-0.702566742895916,0.3320728768803179
1761431257510743300,1.208743408203125,-0.4586053532540798,-0.5926786003962159,0.28957375158593057
1761431257530687200,1.228687255859375,-0.38252281504869456,-0.11896244297828525,-0.3485131395496428
1761431257550630400,1.24863037109375,0.7778443213939666,-0.5981108180454,-0.09848097862675785
1761431257570573300,1.2685732421875,-2.2654911090910432,0.813826539075002,-0.40277372204735873
1761431257590517500,1.288517578125,2.0391466977477073,-1.3664667782671749,0.5142400005839765
1761431257610460400,1.30846044921875,-2.113338892161846,1.6974655961751937,-0.3653701663263142
1761431257630403600,1.328403564453125,1.391188400939107,-1.4954432867921887,0.5111982948005199
1761431257650347500,1.348347412109375,-1.6307728176057337,0.12432984262979589,0.41801001575440166
1761431257670290400,1.36829052734375,-0.4030453785955906,-0.09824105065735056,-0.20388737260252235
1761431257690233300,1.3882333984375,0.008802899658679962,0.17450053459852932,-0.04427870218753814
1761431257710177500,1.408177490234375,0.19212708444297313,0.19019381482545286,-0.18575301936641334
1761431257730120400,1.428120361328125,0.08246434819698334,0.06549620746234432,0.08231719481125474
1761431257750064400,1.448064453125,-0.12156827809512614,-0.26345976124014703,0.2239479446608573
1761431257770007300,1.46800732421875,0.25132629238665105,-0.1264581416290719,-0.051252852049097415
1761431257789950500,1.487950439453125,0.3559843522131443,0.07155865843961946,-0.3129245973613113
1761431257809894400,1.507894287109375,-0.2599760473102331,0.15690975018721073,-0.17756920145414767
1761431257829837300,1.52783740234375,-0.06467033283114433,0.22474293096344916,-0.2071853912346065
1761431257849780200,1.5477802734375,0.5360509965062141,-0.23242665386646985,0.021730331901460884
1761431257869724400,1.567724365234375,0.6016092180877923,-0.33693357825186104,0.051064709065854544
1761431257889667600,1.58766748046875,-1.982560887172818,-0.29832230897517875,-0.05019300426524132
1761431257909610500,1.607610595703125,-3.509646535810828,1.778839957178384,-1.6165907091267406
1761431257929554400,1.627554443359375,-3.3936072502702475,1.1523691234260798,0.11441974891419522
1761431257949497300,1.647497314453125,0.378915145945549,0.6019827641079202,0.015710185695951805
1761431257969441500,1.667441650390625,0.08114332872629165,0.12255293261776677,-0.05570129195847548
1761431257989384400,1.687384521484375,0.08099427564442158,-0.013533346263656858,0.007557931965729221
1761431258009327400,1.707327392578125,0.04148468755483627,-0.04113444477848243,0.008995947145903483
1761431258029271300,1.727271240234375,0.028627544069290158,-0.03555108712161891,0.013191736601619049
1761431258049214500,1.74721435546875,0.043135961893200875,-0.042704744568816386,0.01762012923681177
1761431258069157400,1.767157470703125,0.041054479444026945,-0.03830406649103388,-0.0174576321514789
1761431258089101300,1.787101318359375,0.06306055954694748,-0.026248247717320917,0.025737466917280107
1761431258109044200,1.807044189453125,0.07039280213117599,-0.021457328212936406,0.04227736316933296
1761431258128988400,1.826988525390625,0.031034605211019514,-0.03565475299207028,-0.007602547425590455
1761431258148931600,1.846931640625,0.02203530619740486,-0.01897003002540441,-0.012389480308024212
1761431258168874500,1.86687451171875,0.04673252508044243,-0.0335233989526052,-0.005573763278033584
1761431258188818400,1.886818359375,0.05454875178933143,-0.010439624881884083,-0.007574627372203394
1761431258208761300,1.90676123046875,0.04736614680886268,-0.006350209276936948,0.014111098202550782
1761431258228704500,1.92670458984375,0.052901569104194635,-0.021037901791045442,0.007553885978274047
1761431258248648400,1.9466484375,0.05556581987738609,-0.008700832090270704,0.0018277634164318441
1761431258268591400,1.96659130859375,0.05972878477573394,-0.005751786726061255,0.007573229999560862
1761431258288535300,1.986535400390625,0.09729016140699386,-0.026467667188239282,0.04369177827821113
1761431258308478500,2.006478515625,0.0574783755004406,-0.022101174507848917,-0.0037435978419613092
1761431258328421400,2.02642138671875,0.053441082808375354,-0.008744666665419936,-0.019460185879236085
1761431258348365600,2.046365478515625,0.027421675410866736,0.006565071303746663,0.009036653615627437
1761431258368308500,2.06630859375,0.06335866571068763,-0.01252383814426139,0.02565441914317198
1761431258388251600,2.086251708984375,0.05362111555039882,-0.017442909506382418,-0.02017918433616869
1761431258408195600,2.106195556640625,0.03669102353751659,-0.01854210291993804,-0.009603639848623424
1761431258428138500,2.126138427734375,0.05315466708242893,0.014436485098861158,0.0017130418624263257
1761431258448082400,2.14608251953125,0.04883329675197601,-0.0002302376924548298,0.020647285905107855
1761431258468025300,2.166025390625,0.051513329616189,-0.008371928929467686,0.02241744651594199
1761431258487968500,2.185968505859375,0.06213292330801486,-0.019048723568092098,-0.01470710960063152
1761431258507912400,2.205912353515625,0.06153554193675518,-0.01653653525118716,-0.003997033746913075
1761431258527855400,2.22585546875,0.045832361370325085,-0.008236785641941241,0.015385684715630486
1761431258547799300,2.24579931640625,0.06738543700873852,-0.02516624290058389,-0.00762557210815139
1761431258567742500,2.265742431640625,0.04432721750438213,-0.004755359567236155,-0.0023954346360173075
1761431258587685400,2.285685302734375,0.03847907599806785,-0.002319898881507106,0.016726769726816564
1761431258607629600,2.305629638671875,0.06152969671785831,-0.009463697088393383,0.03500750003051944
1761431258627572500,2.325572509765625,0.03758709559440612,-0.00675354308055248,0.0001541585152503103
1761431258647515600,2.345515625,0.05479191289544105,-0.0070321682256879285,-0.012143286994611844
1761431258667459600,2.36545947265625,0.05389759440422058,-0.00838033143163193,-0.028685329537978393
1761431258687402500,2.385402587890625,0.041942952716350554,-0.008052067591645755,0.020494981420226394
1761431258707346400,2.405346435546875,0.0690156685590744,-0.014833274997258557,0.030354568791296332
1761431258727289300,2.425289306640625,0.03802431796789169,0.0028288713169516994,-0.0031300142545718696
1761431258747232500,2.445232421875,0.059274611267447465,0.019617545565147883,0.008376518339617178
1761431258767176400,2.465176513671875,0.07050210772454739,-0.003628497262042947,0.027046996879577637
1761431258787119400,2.485119384765625,0.04581541023552418,-0.0108741621079389,-0.025540263844747096
1761431258807063600,2.5050634765625,0.040730069795250894,-0.013223556511988862,0.00841292309355922
1761431258827006500,2.52500634765625,0.04417465729117393,-0.01018569122001063,0.009996922615682706
1761431258846949600,2.54494970703125,0.04358429018259048,-0.005813097592396661,0.005172105408273637
1761431258866893600,2.5648935546875,0.03728898943066597,-0.0012862769508734345,0.0108689288103953
1761431258886836500,2.58483642578125,0.05225216528475284,-0.003559286217042245,-0.008382564487913623
1761431258906780400,2.604780517578125,0.039836920347809786,0.013944002573913894,-0.0086529515276663
1761431258926723600,2.6247236328125,0.053607087025046345,-0.002820012157061137,0.008347730636550112
1761431258946666500,2.64466650390625,0.04822539398670196,-0.009568851663032545,0.007436296613747254
1761431258966610400,2.6646103515625,0.043135961893200875,-0.020943638503178954,0.009559133986616506
1761431258986553300,2.68455322265625,0.054953825458884234,-0.001012072252528742,-0.00003213957077823579
1761431259006497300,2.704497314453125,0.05898936458528042,-0.0021149554605130105,-0.0014680906580295412
1761431259026440400,2.7244404296875,0.04777180500030517,0.0033118507946142926,-0.025499895301740617
1761431259046383400,2.74438330078125,0.05016483761668205,0.0008906926288735121,-0.009714744673436507
1761431259066327600,2.76432763671875,0.05076163446605205,-0.006187661959254183,-0.004914048127131536
1761431259086270500,2.7842705078125,0.04552022668123245,-0.008345040922542101,-0.005109862960176542
1761431259106214400,2.80421435546875,0.04416647398471832,-0.009122354571125469,-0.0014711776642594486
1761431259126157600,2.824157470703125,0.05388999561965465,-0.01168721835676115,0.0029967706631869075
1761431259146101500,2.8441015625,0.05418634821772575,0.005080253273202106,-0.007499178382661193
1761431259166044400,2.86404443359375,0.038922143590450285,-0.0058470546609256414,0.017752295115962623
1761431259185987600,2.883987548828125,0.062408817639946934,-0.0004282718820497393,0.006018712300248444
1761431259205931000,2.903930908203125,0.061356678238511084,0.009384234077436849,0.010786730419658124
1761431259225874000,2.9238740234375,0.033223639687895774,-0.015782127554155884,0.004985688591236249
1761431259245817900,2.94381787109375,0.0396621483027935,-0.013940184915321879,-0.005003753970889375
1761431259265761000,2.963760986328125,0.04879413378536701,0.008299585212464444,-0.0017383863662369548
1761431259285704000,2.983703857421875,0.040864509829878805,0.003469073483208194,-0.005645705136237666
1761431259305647900,3.00364794921875,0.051038113319873804,-0.0023002123669255523,0.002997437383467331
1761431259325590800,3.0235908203125,0.05237900653481483,0.010371628546435386,0.0067088956546504045
1761431259345535000,3.043534912109375,0.07197919453978538,0.004591666038660332,-0.0028633992076385765
1761431259365478100,3.06347802734375,0.051775779944658276,-0.0011206654598470776,-0.011902080383570865
1761431259385421000,3.083421142578125,0.05626490805745125,-0.0024703950017923486,-0.0024610472181346267
1761431259405365000,3.103364990234375,0.06375029537677765,-0.013003168926690704,0.013247649773629381
1761431259425308000,3.123307861328125,0.06539630901813506,-0.0011688839491689577,-0.0032164230295456944
1761431259445251800,3.143251953125,0.03591419394612312,0.009984035734646022,0.01089873029361479
1761431259465195000,3.163195068359375,0.046837154498696326,-0.003926580592896789,0.011833718721941113
1761431259485139000,3.183138916015625,0.0468383235424757,-0.00531795731948223,0.029744464935781433
1761431259505081900,3.203081787109375,0.03786182088255882,0.0007513800563057884,-0.0007236472325865179
1761431259525024800,3.223024658203125,0.06150865392982959,0.017866514346469194,0.00003353694342076778
1761431259544969000,3.242968994140625,0.034575638818740845,-0.002356235136790201,-0.010864526629913598
1761431259564911900,3.262911865234375,0.052986909300088876,-0.025843877300666642,-0.02400169263323769
1761431259584856000,3.28285595703125,0.06032032092809677,-0.018369130106363443,-0.0007395389214623719
1761431259604799000,3.302799072265625,0.05388941109776497,-0.00817966689353343,-0.010526791708683595
1761431259624743000,3.322742919921875,0.04296528150141239,0.004392010714136995,0.0008189882326871157
1761431259644686000,3.34268603515625,0.05118950448930263,0.00928782906483393,0.01911219442547299
1761431259664629000,3.36262890625,0.04325637340247631,0.0239553601403255,-0.012961489776009694
1761431259684573000,3.382572998046875,0.030834114202857015,0.00847237079637125,0.0040873149794060735
1761431259704515800,3.402515869140625,0.052528644138574596,-0.002129847068968229,-0.005296572038158774
1761431259724459800,3.422459716796875,0.05971592529416084,-0.009704118248145096,-0.016824850673275066
1761431259744403000,3.44240283203125,0.029935704058408737,-0.006276276391046122,-0.010960552616603671
1761431259764347000,3.462346923828125,0.0420586880505085,0.007010814910405315,-0.002105931903840974
1761431259784289800,3.482289794921875,0.06689969931840896,0.0020980271585984154,0.01130118274781853
1761431259804233000,3.50223291015625,0.03666939622759819,0.011494125203764997,-0.01303349556629546
1761431259824177200,3.52217724609375,0.03921031288206577,0.009653799133282154,-0.008918360998202115
1761431259844120000,3.5421201171875,0.04025719158649444,0.0100848977266578,0.018244645210169254
1761431259864064000,3.56206396484375,0.05402502017617225,-0.004693468745588325,0.0064394036640413104
1761431259884007000,3.5820068359375,0.058064650955796236,0.0016169382439227774,0.012631253174645826
1761431259903950800,3.601950927734375,0.050882630497217175,-0.004793769048596732,-0.008174794355593621
1761431259923894000,3.62189404296875,0.06030979953408241,-0.007972887708479539,0.006472694012289866
1761431259943838000,3.641837890625,0.05925941369831562,0.002457147361151874,-0.011460601960076018
1761431259963780900,3.66178076171875,0.05192658659219741,0.00026546883604023605,0.005131298473849892
1761431259983724800,3.681724853515625,0.04309796797037124,0.0005659404868027195,-0.005675862812483683
1761431260003667700,3.701667724609375,0.034866146197915074,0.005977033149567433,0.008925658388668671
1761431260023611000,3.72161083984375,0.04728489826619625,0.006765585144795477,-0.008496865916810929
1761431260043555000,3.74155517578125,0.057010757988691325,0.012853946881461888,0.013728957884013652
1761431260063498000,3.761498046875,0.06135317110717296,-0.004390147550613619,-0.006323896658746525
1761431260083442000,3.78144189453125,0.043247021052241326,0.019083867946709507,0.013741415506787598
1761431260103385000,3.801385009765625,0.03845569512248039,0.010858772742561995,-0.021420535299926994
1761431260123329000,3.8213291015625,0.043995793592929835,0.007391242762468755,-0.006308982217404991
1761431260143272000,3.84127197265625,0.036513913404941555,0.013610130977048537,-0.009799034556560218
1761431260163216000,3.8612158203125,0.05058393981158733,0.0036135554212378337,-0.010202774785552173
1761431260183158800,3.88115869140625,0.04189911357462406,-0.01050887245950289,-0.0016919351423159241
1761431260203102500,3.9011025390625,0.05222235466837883,-0.00680574362524785,0.0029234405654948205
1761431260223046400,3.92104638671875,0.057309448674321174,0.010816330973478033,0.006219513835664838
1761431260242989300,3.9409892578125,0.051767012116312974,0.006209357767831534,0.0018997326740995048
1761431260262933200,3.960933349609375,0.04981763161420822,0.009036014294810593,0.004866610522521659
1761431260282875400,3.98087548828125,0.03949263695478439,0.0009550768017070367,-0.0028373423177748915
1761431260302818300,4.000818359375,0.06448211678266524,0.0016666911032050848,-0.0028157241410110144
1761431260322762200,4.02076220703125,0.046824879539012904,-0.014634966813027858,-0.004717119049234315
1761431260342705200,4.040705078125,0.055205169871449467,-0.00790714726219885,0.006697031686920672
1761431260362649300,4.0606494140625,0.035605566388368606,0.021319572843215426,-0.009199625624995678
1761431260382592500,4.080592529296875,0.047426352563500404,0.006291702289041131,0.012654725381778552
1761431260402536400,4.100536376953125,0.04832768531739712,0.0012084076753817498,-0.008097929727099835
1761431260422479400,4.120479248046875,0.049525370669364924,-0.011898271858133375,0.00475697613558732
1761431260442423300,4.14042333984375,0.049077626901865005,-0.009020898924069478,0.0006824384393636137
1761431260462366500,4.160366455078125,0.053119011247158045,-0.012048996307281776,0.0151198003210593
1761431260482310400,4.180310302734375,0.0525198763102293,-0.002174133735266514,-0.01074701946377754
1761431260502253300,4.20025341796875,0.034412557211518285,0.006681879783561453,-0.010498935587378218
1761431260522197200,4.220197265625,0.050120998474955554,0.009655178239615633,0.013879773664707317
1761431260542140200,4.24014013671875,0.04877309099733829,-0.0015537231148686258,0.010461032996093854
1761431260562083300,4.260083251953125,0.055202831783890724,0.008384592048218474,0.00794701348170638
1761431260582027500,4.280027587890625,0.04053425496220588,-0.009842170445388182,-0.006797679049801081
1761431260601970400,4.299970458984375,0.05789397056400775,-0.0001937735730083659,-0.011572053844761102
1761431260621914400,4.319914306640625,0.052209495186805725,0.0010159629763569682,0.011039974528364837
1761431260641858300,4.3398583984375,0.04293021018803119,0.0015810769126750528,0.00525836805277504
1761431260661801200,4.35980126953125,0.054150107860565184,0.011909163144906051,0.022885100560309363
1761431260681745400,4.379745361328125,0.05624561883509159,0.007392713200347498,0.01447967578661628
1761431260701688300,4.399688232421875,0.05400339286625385,-0.004178883986687288,-0.00897642046152614
1761431260721632300,4.41963232421875,0.03873685015141964,0.009230701183271593,-0.0003127100778277963
1761431260741575200,4.4395751953125,0.05310322915613651,0.005091824979986995,-0.0035772648317273703
1761431260761519400,4.459519287109375,0.037839024528861044,-0.013098021303024142,0.015855759045947344
1761431260781462500,4.479462646484375,0.050858665099740026,-0.0025570960377110166,0.004460924931615591
1761431260801406500,4.499406494140625,0.05040975228846073,0.0003118972270749509,0.02079757196283899
1761431260821349400,4.519349365234375,0.06177928756475448,-0.005772560086031444,-0.023277013354189694
1761431260841293300,4.539293212890625,0.052500002565979954,-0.00864963162599597,-0.006171738304337486
1761431260861236200,4.559236328125,0.05923252569139004,0.013455483838031067,-0.008260709940223022
1761431260881180200,4.57918017578125,0.04830956513881683,0.0073279089024057605,0.0020811353893019258
1761431260901123300,4.599123291015625,0.05025076233446598,-0.00789820590391755,0.006533758283453062
1761431260921067300,4.6190673828125,0.05488835900723934,-0.0005208227034425363,0.022197419690247622
1761431260941010200,4.63901025390625,0.05818097081184387,0.0025014614269137383,0.0189917646498885
1761431260960954400,4.658954345703125,0.05234510426521301,0.010780300678871571,0.014006359186442567
1761431260980897500,4.6788974609375,0.04770867663621902,-0.0013040318032726645,-0.013775500439479947
1761431261000841500,4.698841552734375,0.0457622187435627,0.006622176352422684,0.0006646927201189101
1761431261020784400,4.718784423828125,0.06102525432705879,0.010574882333842106,0.0017014518893323839
1761431261040727300,4.738727294921875,0.03903261822760105,-0.010686968972766771,-0.006676390757691115
1761431261060671200,4.758671142578125,0.0661135173767805,-0.0003284328033449128,-0.005848789960285648
1761431261080615200,4.778615234375,0.05443944619596004,-0.008433335693925618,-0.010835163538111373
1761431261100558300,4.798558349609375,0.03782908765673637,0.010377067339955828,0.017359679069183766
1761431261120501200,4.818501220703125,0.04815232875049114,0.0012585532603086903,0.0019904431648552416
1761431261140445200,4.838445068359375,0.0475526092916727,-0.0030816359350457788,0.0036880134635139256
1761431261160389400,4.858389404296875,0.03992226054370403,0.012153338031168096,0.00810127246165648
1761431261180332500,4.87833251953125,0.039624154379963875,-0.008717267201840876,0.0009123473382554948
1761431261200275500,4.898275390625,0.04905307698249817,-0.013155331847677006,-0.0020004257027525455
1761431261220219000,4.918218994140625,0.060576926037669176,0.000027541027474217115,-0.010211725276988
1761431261240161800,4.938161865234375,0.04920271458625793,0.00436362486986909,-0.0018688717449549584
1761431261260105700,4.958105712890625,0.049504327881336206,0.009990310211805626,0.003373851214116439
1761431261280049000,4.978048828125,0.04052431809008121,0.0018079490376869216,-0.001133515808265656
1761431261299993000,4.9979931640625,0.04201718699634075,-0.006606339462473988,-0.007588902492728084
1761431261319936000,5.01793603515625,0.05354162057340145,-0.00918637341777794,-0.015744645087979733
1761431261339880000,5.0378798828125,0.04337035517096519,0.02689566507565323,-0.00387328863623552
1761431261359824000,5.057823974609375,0.058037762948870655,-0.007998629504512064,0.02129218707936816
1761431261379767000,5.07776708984375,0.054447629502415655,0.015468289531744084,-0.0025777506666723638
1761431261399711000,5.0977109375,0.04816401918828487,0.011461634006537496,0.0076825173266232005
1761431261419654000,5.11765380859375,0.042328152641654015,0.0007437356059672311,0.0003126096131280064
1761431261439597800,5.137597900390625,0.04831482583582401,0.013154007540270685,0.012125349479122086
1761431261459540700,5.157540771484375,0.05220832614302635,-0.00630310046589002,-0.00902302694907412
1761431261479485000,5.17748486328125,0.0631336247831583,0.018206719785998575,0.001856615051580593
1761431261499428000,5.197427978515625,0.056850598990917205,0.004999411155912094,0.006145498751383274
1761431261519372000,5.2173720703125,0.036647768917679784,0.013985626925667747,0.024073579692514613
1761431261539315000,5.23731494140625,0.049962593042850494,0.0032365342358127236,-0.023624995674798265
1761431261559259000,5.2572587890625,0.04293196375370025,0.009377256347378715,-0.004791563391778618
1761431261579202000,5.2772021484375,0.03769757023155689,0.0006577880552969872,0.0030696441031526772
1761431261599146000,5.29714599609375,0.06777531310915946,-0.009462683308240957,0.02397161715538241
1761431261619089000,5.3170888671875,0.04652618885338306,-0.00703481684050057,-0.0018782149620354175
1761431261639032800,5.33703271484375,0.04787175824344158,0.004451289453590288,0.01518683767528273
1761431261658975700,5.356975830078125,0.04847323126792907,-0.00825603376510553,0.007656588300922885
1761431261678920000,5.376919921875,0.03485679384768009,0.0022209228859050197,0.006422708257567137
1761431261698863000,5.396863037109375,0.04952069449424743,-0.007698349649994634,-0.011124090881552546
1761431261718807000,5.41680712890625,0.04832651627361774,0.002673927350412123,0.0074718611174728715
1761431261738750000,5.43675,0.060445993134379386,-0.0047483133385190735,-0.0003915292013902217
1761431261758694000,5.45669384765625,0.04982230778932571,-0.00269893849408254,0.0037819662241265176
1761431261778637000,5.476636962890625,0.04802841010987759,-0.0016236967782722784,0.01084476248351857
1761431261798581000,5.4965810546875,0.04982113874554634,0.019891421469929626,-0.006449888525437563
1761431261818524000,5.51652392578125,0.05281447534263134,0.008773805994936264,-0.001595215035881847
1761431261838467800,5.5364677734375,0.04248948068320751,-0.015985952163720504,0.0169772830223199
1761431261858410800,5.55641064453125,0.04727963756918907,0.014266338996612466,-0.00009776128605008125
1761431261878355000,5.57635498046875,0.04697860879600048,-0.0028064083233941346,-0.010349124453682452
1761431261898298000,5.596298095703125,0.04682546406090259,-0.010860238613863475,-0.000620278189657256
1761431261918242000,5.616241943359375,0.05251578465700149,0.018240156264719552,0.00135102188331075
1761431261938185000,5.63618505859375,0.03814823660850525,-0.002914006016869098,0.013484253274789079
1761431261958129000,5.65612890625,0.04234042760133743,0.006077237554453313,0.0009029949880205094
1761431261978071800,5.67607177734375,0.03740355572104454,-0.015849690064764582,0.012654012995725496
1761431261998016000,5.69601611328125,0.05954641394615173,0.007714880659687332,-0.008070813391311094
1761431262017960000,5.7159599609375,0.0442851319283247,-0.00779964090026915,0.013641654059896246
1761431262037902800,5.73590283203125,0.04817220249474048,-0.0007167973666917533,0.00858827052731067
1761431262057847000,5.755846923828125,0.04517711233198642,0.010130412802239879,0.0012799933405593037
1761431262077790000,5.7757900390625,0.0554956772506237,0.00885785841604229,0.010567826971970498
1761431262097734000,5.79573388671875,0.03679273034632206,-0.011341829852038063,0.005864919111179188
1761431262117677000,5.815677001953125,0.05145955360233784,0.007458910304354503,0.0009268051218707114
1761431262137621000,5.83562109375,0.053258711978793144,0.005863092480273917,0.006949581675883382
1761431262157564000,5.85556396484375,0.045326165413856506,0.0017694162587402387,0.00915970460656099
1761431262177507800,5.8755078125,0.04428279384076595,0.010692453432059846,0.014725869100028648
1761431262197450800,5.89545068359375,0.049072366204857824,0.002509046511747874,0.0023288630726747213
1761431262217395500,5.9153955078125,0.05655541543662548,0.008183384087425655,-0.00783652971140109
1761431262237338600,5.935338623046875,0.038598318463563916,-0.010209866680041887,-0.007373506176378578
1761431262257282600,5.955282470703125,0.04309270727336406,-0.010449840315221809,0.00411980161005631
1761431262277225500,5.9752255859375,0.05296937364339828,0.01126274130041711,-0.0041081020391080525
1761431262297169400,5.99516943359375,0.04234218116700649,0.00759949238540139,-0.021057419342268256
1761431262317113600,6.015113525390625,0.05805237599611282,0.007744992670160718,0.012238244402222334
1761431262337056500,6.035056396484375,0.04173720101118088,-0.004673279907507821,0.007798782383743673
1761431262357000700,6.055000732421875,0.04637421316206455,-0.006176898536644875,0.02392255384926684
1761431262376943600,6.074943603515625,0.05101005626916885,0.013778359116846694,0.0004052928652614355
1761431262396887600,6.094887451171875,0.05774433296024799,-0.006298501922586001,-0.0050287696811370545
1761431262416830500,6.11483056640625,0.054902387532591815,0.011074529818515293,-0.011169044268131256
1761431262436774400,6.1347744140625,0.0580447772115469,0.008933773196465336,-0.0038193938913755115
1761431262456717600,6.154717529296875,0.05370996287763118,0.011407419601269066,-0.011890508676785976
1761431262476661500,6.17466162109375,0.04592822296023369,-0.014628838466340674,0.005280990876536816
1761431262496604400,6.1946044921875,0.06747369981408119,-0.0010145884366007522,0.023802297603618353
1761431262516548600,6.214548583984375,0.055503276035189626,0.0070890403789235275,0.0020507402510382233
1761431262536492500,6.234492431640625,0.05430266807377338,-0.007003741282224655,0.0015729666714556514
1761431262556435700,6.254435791015625,0.04233516690433025,-0.0006346537748817354,-0.009759624994779005
1761431262576379600,6.274379638671875,0.04876724577844142,-0.00968041771214921,0.012677503469167276
1761431262596322600,6.294322509765625,0.0487684148222208,-0.01983837610844057,0.0005492405137512833
1761431262616266500,6.3142666015625,0.05969079085290432,-0.004766150389309041,0.0070132854287046935
1761431262636209400,6.33420947265625,0.05175765976607799,-0.004365620464133099,-0.014923236569343135
1761431262656153300,6.3541533203125,0.058339376243948936,-0.0007916618343442678,0.027811222717724737
1761431262676096500,6.374096435546875,0.06178221017420291,0.009649661814281717,0.0037580190929584205
1761431262696040700,6.394040771484375,0.03798807761073112,-0.007675242769042961,0.0024383147965185343
1761431262715983600,6.413983642578125,0.04876256960332393,0.0034368380143074318,0.017196323467325417
1761431262735927600,6.433927490234375,0.04382628224492073,-0.00640873909771908,-0.002982614273671061
1761431262755871500,6.45387158203125,0.055794952458143234,0.013291415850119665,0.0015344886914361268
1761431262775814700,6.473814697265625,0.04382511320114135,-0.007754993474367074,-0.006820009612618014
1761431262795758600,6.493758544921875,0.05490004944503307,-0.002499570863926783,0.004438968828134239
1761431262815701500,6.513701416015625,0.05429974546432495,-0.017435945476056074,0.008736602089973166
1761431262835645400,6.5336455078125,0.031257308050990106,-0.012523404319421387,0.007438296774588525
1761431262855588400,6.55358837890625,0.046667643150687214,0.0065311873004538935,0.025815116997063157
1761431262875532500,6.573532470703125,0.04576981752812862,0.0009297551307827234,0.010806613297061994
1761431262895475700,6.593475830078125,0.03634089492559433,0.0047573140623047945,0.007080569378100335
1761431262915419600,6.613419677734375,0.03933247795701027,-0.0026153290309710426,-0.0038075116573367267
1761431262935363600,6.633363525390625,0.044265842705965036,-0.011557810690277255,-0.019241063235839826
1761431262955306500,6.653306396484375,0.05324585249722004,0.004291797176096588,0.004254095514211804
1761431262975250400,6.67325048828125,0.042917935228347776,-0.008599627604964188,0.009062573508173227
1761431262995193600,6.693193603515625,0.053987610775232314,-0.005751288969139568,0.009389056383026763
1761431263015137500,6.713137451171875,0.05099719678759575,-0.007413545925822109,-0.02871637313021347
1761431263035080400,6.73308056640625,0.04531155236661434,-0.007595163270155899,0.012327648851880804
1761431263055024600,6.753024658203125,0.03887888897061348,0.003883691299241036,0.03418262091316283
1761431263074967600,6.772967529296875,0.0502495932906866,0.009199840254127047,0.0032198936282657087
1761431263094911500,6.792911376953125,0.06790683053433895,0.0029166591982590032,0.0034248507489915937
1761431263114855400,6.81285546875,0.03304126885831356,-0.0023631626344984397,-0.004340303359786048
1761431263134798600,6.832798583984375,0.03423603160083294,-0.015928349358122793,-0.003104322690889239
1761431263154742500,6.852742431640625,0.047106034567952156,-0.018814421621873044,0.0030304263376165178
1761431263174685400,6.872685546875,0.0496487047880888,0.005176028098142706,-0.004777407002262771
1761431263194629400,6.89262939453125,0.03902385039925575,0.012955292930663562,0.00437400469998829
1761431263214572500,6.912572509765625,0.04410977536141872,0.021009785374836065,0.004534355494007468
1761431263234516700,6.932516845703125,0.057876434907317156,0.005711504948022775,0.017608420532708988
1761431263254460700,6.952460693359375,0.04186111965179443,-0.0008983325126348063,0.016039865174889565
1761431263274403600,6.972403564453125,0.06161445239186287,-0.013946180831268428,0.0062464383752085266
1761431263294347800,6.99234765625,0.03482522966563702,-0.0023475221073720604,0.00658241973076947
1761431263314290700,7.012290771484375,0.0557744941920042,-0.01295408278768882,0.011056149345031007
1761431263334234600,7.032234619140625,0.06250877088308333,0.010193372202967293,-0.005036149269994348
1761431263354177800,7.052177734375,0.05083762231171131,0.003249699678062461,0.003327518721204251
1761431263374121700,7.072121826171875,0.04784545475840568,0.011538836561748757,0.010752316693402826
1761431263394065700,7.092065673828125,0.047694648110866544,-0.0008853177674347534,-0.020348531287396325
1761431263414008600,7.112008544921875,0.05024140998423099,0.005126590332691558,0.0034790012221783398
1761431263433952500,7.131952392578125,0.05338555322885513,0.004583345734886825,0.011022585002146661
1761431263453895700,7.151895751953125,0.05443886167407035,0.018578439175221135,0.027253826296981424
1761431263473839900,7.17183984375,0.043809915632009505,0.0035533085674047467,0.007627891929401084
1761431263493782800,7.19178271484375,0.05009644855558872,-0.010633804880268872,0.00009994410998187959
1761431263513726700,7.211726806640625,0.047701662373542786,-0.0010310372479027136,-0.007346143245417624
1761431263533670700,7.231670654296875,0.06416121426522732,-0.017607109925034455,0.015237919408548623
1761431263553613600,7.251613525390625,0.03872282162606716,-0.009028995465557091,-0.001956495229480788
1761431263573557500,7.2715576171875,0.047697570720314976,0.0007363605836872011,0.00132948590493761
1761431263593500700,7.291500732421875,0.045750528305768964,-0.00962938164465595,0.016399738862691447
1761431263613444600,7.311444580078125,0.048292029482126235,0.011109486967464909,-0.007129532219516113
1761431263633387500,7.331387451171875,0.046045127338171,0.007443520938977598,-0.013438852363638579
1761431263653331700,7.351331787109375,0.04455225843191147,-0.003775504517299123,-0.005142221726663411
1761431263673275600,7.371275634765625,0.049641690525412556,-0.0026302297725807875,0.005384095057984813
1761431263693218800,7.39121875,0.0505418542355299,0.007359916042443364,0.009106330451508984
1761431263713162800,7.411162841796875,0.04275952979624271,0.010598957329173571,0.004838516939198598
1761431263733105700,7.431105712890625,0.05502981330454349,0.016362598889810034,0.0022863939041271805
1761431263753049600,7.451049560546875,0.05473053809702396,0.006310968678514473,-0.006074050083523616
1761431263772993500,7.47099365234375,0.04096154046356678,0.0002683823123341426,0.022238783747097476
1761431263792936400,7.4909365234375,0.04709551317393779,0.009351350154564715,-0.00405316611463204
1761431263812880600,7.510880615234375,0.05801788920462131,-0.007413988883816637,-0.01734704791647382
1761431263832823800,7.53082373046875,0.05787058968842029,-0.010780935433111153,-0.0025968480927869675
1761431263852767700,7.550767822265625,0.055177112820744514,-0.008670272555225528,-0.012306752194324507
1761431263872711700,7.570711669921875,0.05802081181406975,0.020984299307130277,0.0049577776710037135
1761431263892654600,7.590654541015625,0.05951660332977771,0.00026993951518088576,-0.01118798643061891
1761431263912598500,7.6105986328125,0.051586394852399825,-0.007238426820933818,0.026346127734379842
1761431263932541700,7.630541748046875,0.03976853128671646,-0.003200389776774682,0.05517763341055251
1761431263952485600,7.650485595703125,0.05338379966318607,-0.007838082347670569,0.02605799497538246
1761431263972428500,7.670428466796875,0.05083937587738037,0.018927266312623394,-0.022764415056398136
1761431263992372700,7.690372802734375,0.05877426052987575,0.015460859710536897,-0.02057630302812904
1761431264012316700,7.710316650390625,0.049802434045076366,0.029810027285548858,-0.010283813265664502
1761431264032259600,7.730259521484375,0.04651099128425121,-0.001160869606072083,0.03614097930616699
1761431264052203800,7.750203857421875,0.04755845451056957,-0.007675630928110331,0.035682376217935234
1761431264072146700,7.770146728515625,0.05234335069954395,-0.012404097921843639,-0.0005590495217125863
1761431264092090600,7.790090576171875,0.05653145003914833,-0.008036331166396848,-0.018312714610854163
1761431264112034600,7.81003466796875,0.057877603951096535,0.012839192270324564,-0.009338148179696873
1761431264131977500,7.8299775390625,0.036629064217209815,0.0047392532492289315,-0.022268064640508962
1761431264151921700,7.849921630859375,0.07283961076140404,0.006396989294420927,0.007426432806858793
1761431264171864800,7.86986474609375,0.03976970033049583,0.019906459208857266,0.03419598271823488
1761431264191808800,7.889808837890625,0.044853287205100054,0.01015340095218271,0.01490363681972958
1761431264211752700,7.909752685546875,0.03796761934459209,-0.011516058474360033,-0.025640189688419922
1761431264231695600,7.929695556640625,0.06236380945444107,0.01247892585687805,-0.012196295823482795
1761431264251639600,7.9496396484375,0.04276712858080864,0.0035433853950118644,0.009988812374463304
1761431264271582700,7.969582763671875,0.059679100415110584,-0.014688445999356918,0.019547261374490334
1761431264291526700,7.989526611328125,0.053394905579090116,-0.00016083028463181108,0.010371573747508227
1761431264311469600,8.009469482421874,0.05339607462286949,0.01031040444506798,-0.0010275986152235418
1761431264331413800,8.029413818359375,0.04965338096320629,-0.0032408861839445307,0.012693093763943761
1761431264351356700,8.049356689453125,0.03618482758104801,-0.01597391923263203,0.006818922767229378
1761431264371300600,8.069300537109376,0.04396481393277645,-0.0015139573600608854,0.016086791322845965
1761431264391244500,8.08924462890625,0.058629883623123165,-0.008510803110618144,0.0011847802046220748
1761431264411187700,8.109187744140625,0.06476093372404575,0.005647636798419989,0.015742617527674883
1761431264431131600,8.129131591796876,0.04396072227954864,0.02085143930823542,-0.0003466123474296182
1761431264451074600,8.149074462890624,0.04665595271289348,0.00011800492305774241,-0.0005074745981022715
1761431264471018800,8.169018798828125,0.04814882161915302,0.003406753403297625,0.0068006747244857245
1761431264490962700,8.188962646484375,0.05174070863127708,0.0028046045253751796,0.011767247623298317
1761431264510905900,8.20890576171875,0.0560796146184206,-0.0043509434848092495,0.0033784360576886684
1761431264530849800,8.228849853515625,0.06341361076831817,-0.001846312853274867,-0.007341302673518658
1761431264550792700,8.248792724609375,0.03857376854419708,0.005843022373202256,-0.009628956952970474
1761431264570736600,8.268736572265626,0.035435470518469805,-0.0017750422819284722,0.008979087342647836
1761431264590680600,8.2886806640625,0.05324468345344066,0.008526215308881365,-0.004651588665507734
1761431264610623500,8.30862353515625,0.0631207653015852,-0.0013464050736976788,0.007152492969995364
1761431264630567700,8.328567626953125,0.056687517383694645,-0.006245050135720521,0.0038383086543995887
1761431264650512600,8.3485126953125,0.03619008827805519,-0.006431339088594541,0.022038128342153504
1761431264670456600,8.36845654296875,0.04561784183681011,0.008924192517367192,0.016375125011242924
1761431264690399700,8.388399658203125,0.05384557195603847,-0.005597267451207153,0.002509562534978613
1761431264710343700,8.40834375,0.038730420410633085,0.00317036909784656,-0.007632431107200682
1761431264730286600,8.42828662109375,0.04860474869310855,0.004428630097210407,0.018183553539542482
1761431264750230800,8.448230712890625,0.06252279940843582,-0.00738069853556808,-0.003942883273726329
1761431264770174700,8.4681748046875,0.05982756897509098,-0.0008093801541253924,-0.00215464815008454
1761431264790117600,8.48811767578125,0.053990533384680746,-0.004948626250168308,-0.0020821035036817192
1761431264810061600,8.5080615234375,0.0436661232471466,-0.00022970340291503816,0.009993899541534483
1761431264830004700,8.528004638671876,0.050849897271394724,-0.0008758284198818728,-0.0015660894060973078
1761431264849948700,8.54794873046875,0.05519289491176605,-0.007461855746689252,0.011765420992393047
1761431264869892600,8.567892578125,0.04277414284348487,0.008997362784855066,-0.013006936352932826
1761431264889835500,8.58783544921875,0.04771276828944683,-0.00040204602882731703,0.023315144274337216
1761431264909779700,8.60777978515625,0.05235387209355831,0.00490151743912138,0.0029817374908365306
1761431264929723000,8.627722900390625,0.04711655596196651,-0.006946535768848843,0.0032034630832728
1761431264949666800,8.647666748046875,0.04592296226322651,0.0043595195169094944,-0.010203021380724384
1761431264969610800,8.66761083984375,0.04292787210047245,0.010000945770251565,-0.0015695782711263745
1761431264989553700,8.6875537109375,0.0511602783948183,0.002523298799386248,0.002374665842624381
1761431265009497600,8.70749755859375,0.04577157109379768,0.013307330371881834,0.009381201870134099
1761431265029441500,8.727441650390626,0.04876373864710331,-0.003416347782127559,-0.0016654763936530797
1761431265049384700,8.747384765625,0.038887656798958774,-0.018080855783470906,-0.00749355235947296
1761431265069329000,8.767328857421875,0.02646598212122917,-0.002469235091167502,0.02895504072429612
1761431265089272800,8.78727294921875,0.03664367726445198,0.000917475604522042,0.025893022805172947
1761431265109215700,8.8072158203125,0.04471943169236183,0.009943795055802911,0.00840668514901772
1761431265129159700,8.82715966796875,0.05040390706956386,0.011411100262543186,0.0029435243722982702
1761431265149102600,8.8471025390625,0.05369534983038902,0.012275370675371959,-0.009990237146569415
1761431265169046500,8.867046630859376,0.06372106928229332,-0.007777246405370533,0.010639303039293736
1761431265188990700,8.88699072265625,0.04681611171066761,-0.014330472007696516,0.0019435718158259986
1761431265208933000,8.90693310546875,0.053550388401746744,-0.003341748175956309,0.019418401697278022
1761431265228877000,8.926876953125,0.05610007288455963,0.003764663462876342,0.013692507464298977
1761431265248821200,8.9468212890625,0.05625029501020908,0.00875086807734333,-0.007731197040248662
1761431265268764200,8.96676416015625,0.04547755658328533,0.004980391361610964,-0.005137353755300864
1761431265288708000,8.9867080078125,0.06193769299685955,0.0013932170572225004,-0.003941157107520848
1761431265308651300,9.0066513671875,0.04742284543216228,-0.0017352536942344158,0.017439694635989142
1761431265328595200,9.02659521484375,0.046075522476434705,0.006575300436816178,0.012907220571814104
1761431265348539100,9.0465390625,0.045774493703246114,-0.006573985262564383,0.00023929778174497187
1761431265368482000,9.06648193359375,0.046073768910765645,-0.014579414400621316,-0.002722620763769373
1761431265388426000,9.086426025390624,0.05654489404261112,0.00005345635344274342,0.009891754341311752
1761431265408370200,9.1063701171875,0.03604512684941292,-0.0007895338093396276,0.01484459097571671
1761431265428313300,9.126313232421875,0.05953998420536518,0.014798906936775892,-0.01751906174882315
1761431265448257300,9.14625732421875,0.05729542014896869,-0.007680110740405507,-0.01837865598653443
1761431265468200200,9.1662001953125,0.060736500513553615,-0.017001673111482523,-0.011953554842481388
1761431265488144100,9.18614404296875,0.04816869536340236,-0.0188994375907816,0.028917101600393652
1761431265508088000,9.206088134765626,0.0438274512887001,-0.0016740661254851146,0.003966748206503689
1761431265528031200,9.22603125,0.05430091450810432,0.018953807259676977,-0.001575697484659031
1761431265547975200,9.24597509765625,0.04112988276779651,0.034106838563480416,0.0003870356893632561
1761431265567919400,9.26591943359375,0.047262686434388156,0.00775987514546141,0.022759391821408643
1761431265587862300,9.2858623046875,0.0460667546480894,-0.021917342373542488,0.032906792291067535
1761431265607806200,9.30580615234375,0.03394493969976902,-0.024626532833580857,0.01814587014396675
1761431265627750100,9.325750244140625,0.07134849542081356,-0.014907673674030229,-0.014542237895121797
1761431265647693000,9.345693115234376,0.04411328249275684,-0.003219418704230338,0.006743912169104442
1761431265667637000,9.365636962890624,0.04620820894539356,-0.0015268762071384116,-0.006654936977708712
1761431265687580200,9.385580078125,0.03842529998421669,0.004777685563475824,0.003631862829485908
1761431265707524000,9.405524169921875,0.047398295512795445,0.012758564782165922,0.005417979061277583
1761431265727468300,9.42546826171875,0.05338438418507575,0.0037852221937151624,-0.010380186312226578
1761431265747411200,9.4454111328125,0.053534021788835526,-0.006306466033332981,0.010364422487514093
1761431265767355100,9.465355224609375,0.050097617599368094,-0.002609616242814809,0.04192298764055594
1761431265787299000,9.485299072265626,0.06042202773690224,0.004756802605651319,0.008597741608554497
1761431265807242200,9.5052421875,0.04471124838590622,0.015193468345468863,-0.008777546021714806
1761431265827186200,9.525186279296875,0.0477577764749527,0.001580410192394629,-0.02855802249703556
1761431265847130000,9.545130126953126,0.3289829480409622,-0.04161533733033575,0.12107220167387277
1761431265867073000,9.565072998046874,0.1675152057558298,-0.036142394945118575,0.040621083862287924
1761431265887017200,9.585017333984375,0.0463981785595417,-0.0010060489371186121,0.015819747017649932
1761431265906961200,9.604961181640626,-0.00853811124265194,0.030386160372802985,0.0011884791322052477
