time,seconds_elapsed,z,y,x
1761431256314141000,0.012140869140625,0.14443689584732056,-0.32467642426490784,-0.20028220117092133
1761431256334084900,0.0320849609375,0.2523952126502991,-0.24682463705539703,-0.29839903116226196
1761431256354028000,0.052028076171875,0.36193373799324036,-0.22848838567733765,-0.3181993365287781
1761431256373971000,0.071970947265625,0.4373945891857147,-0.2395928055047989,-0.3479175269603729
1761431256393915000,0.091914794921875,0.3149564564228058,-0.25906360149383545,-0.5639469623565674
1761431256413858000,0.111858154296875,0.28989356756210327,-0.19412092864513397,-0.8007479310035706
1761431256433802000,0.131802001953125,0.44281014800071716,-0.4117853045463562,-0.859249472618103
1761431256453745000,0.151744873046875,0.6147204041481018,-0.554671585559845,-0.8248269557952881
1761431256473687800,0.171687744140625,0.5332181453704834,-0.7610186338424683,-0.9489855170249939
1761431256493631700,0.1916318359375,0.407670795917511,-1.039245843887329,-1.0254944562911987
1761431256513575000,0.211574951171875,0.12546467781066895,-1.6653344631195068,-1.0917484760284424
1761431256533517800,0.231517822265625,-0.036097604781389236,-1.6516919136047363,-1.2229539155960083
1761431256553462000,0.2514619140625,-0.004674016498029232,-2.004514217376709,-1.4287101030349731
1761431256573405000,0.271405029296875,-0.07788410782814026,-2.483914852142334,-1.3516011238098145
1761431256593348000,0.29134814453125,-0.20941437780857086,-2.176438093185425,-1.0364809036254883
1761431256613292000,0.3112919921875,-0.4018174111843109,-1.715213656425476,-1.009229302406311
1761431256633235000,0.33123486328125,-0.597923755645752,-1.0013954639434814,-1.4604806900024414
1761431256653177900,0.351177734375,-0.6182323694229126,-0.2847365438938141,-1.8687376976013184
1761431256673122000,0.3711220703125,-0.2843945026397705,-0.1296740174293518,-1.6682454347610474
1761431256693065000,0.39106494140625,0.10372883081436157,-0.20911361277103424,-0.9721941351890564
1761431256713009000,0.4110087890625,0.47266900539398193,-0.35880008339881897,-0.24360717833042145
1761431256732951800,0.430951904296875,0.8637440800666809,-0.5630834698677063,0.28152161836624146
1761431256752895000,0.45089501953125,1.0952640771865845,-0.7058654427528381,0.5132712125778198
1761431256772839000,0.4708388671875,0.9651421904563904,-0.4463953673839569,0.3046574294567108
1761431256792781800,0.49078173828125,0.5854621529579163,0.35310307145118713,-0.2849825918674469
1761431256812724700,0.510724853515625,0.18358738720417023,0.06953097879886627,-0.7948611378669739
1761431256832669000,0.5306689453125,0.0756576657295227,-0.3420664668083191,-1.049878478050232
1761431256852612000,0.550612060546875,0.2506559491157532,0.4636053442955017,-1.2946093082427979
1761431256872555000,0.570554931640625,0.6537348031997681,0.5203699469566345,-1.4087097644805908
1761431256892499000,0.5904990234375,0.44388148188591003,0.15254487097263336,-1.3140623569488525
1761431256912441900,0.61044189453125,0.10171861946582794,0.20245420932769775,-1.2351750135421753
1761431256932386000,0.630385986328125,0.1107914000749588,-0.10639876872301102,-1.3873920440673828
1761431256952329000,0.650328857421875,-0.11888503283262253,0.03430546075105667,-0.09175675362348557
1761431256972271900,0.67027197265625,-0.26786649227142334,-0.2923104465007782,0.6310068964958191
1761431256992215800,0.6902158203125,-0.18688428401947021,-0.46424198150634766,0.9061476588249207
1761431257012159000,0.710158935546875,-0.1549440324306488,-0.7297229766845703,0.8071498274803162
1761431257032102000,0.730101806640625,-0.30042123794555664,-0.2235020250082016,0.5020261406898499
1761431257052045800,0.7500458984375,-0.34689998626708984,0.5314967036247253,0.21138587594032288
1761431257071988700,0.76998876953125,-0.41183191537857056,1.5320371389389038,0.24523963034152985
1761431257091933000,0.789932861328125,-0.26145198941230774,2.212219476699829,0.4992559254169464
1761431257111876000,0.8098759765625,0.14488938450813293,-0.25521814823150635,0.7371528744697571
1761431257131819000,0.829819091796875,0.41741064190864563,-1.1705690622329712,0.778191328048706
1761431257151763000,0.849762939453125,0.3889104425907135,-0.908237636089325,0.726210355758667
1761431257171705900,0.869705810546875,0.32950517535209656,-0.7175297141075134,0.746120035648346
1761431257191649000,0.88964892578125,0.47593507170677185,-0.3280940651893616,0.4011945128440857
1761431257211593500,0.909593505859375,0.3793931007385254,-0.16354215145111084,0.47925493121147156
1761431257231536400,0.929536376953125,0.2243608981370926,-0.4790114164352417,0.5232804417610168
1761431257251479300,0.949479248046875,0.0613793283700943,-0.7559587359428406,0.2828298807144165
1761431257271423200,0.96942333984375,-0.04129591956734657,-0.9634259343147278,0.5206538438796997
1761431257291366400,0.989366455078125,-0.09332548081874847,-1.6310133934020996,1.0291740894317627
1761431257311310600,1.009310546875,-0.024157730862498283,-0.48800691962242126,-0.09370575100183487
1761431257331253500,1.02925341796875,-0.25578388571739197,0.49535074830055237,-0.0880807563662529
1761431257351196400,1.049196533203125,-0.4628533720970154,1.078603982925415,-0.16916918754577637
1761431257371140600,1.069140625,-0.5131092071533203,0.35919633507728577,-0.1508798450231552
1761431257391083500,1.08908349609375,-0.5265287756919861,0.11916814744472504,-0.14434009790420532
1761431257411026400,1.1090263671875,-0.6270205974578857,0.6007050275802612,-0.17707300186157227
1761431257430970400,1.128970458984375,-0.6468403935432434,1.151676058769226,-0.1704467087984085
1761431257450913500,1.14891357421875,-0.5990258455276489,1.0751391649246216,-0.15129801630973816
1761431257470856400,1.1688564453125,-0.6619484424591064,0.7772418260574341,-0.13058851659297943
1761431257490800400,1.18880029296875,-0.6773004531860352,0.6629071235656738,-0.15258246660232544
1761431257510743300,1.208743408203125,-0.2294245809316635,0.3292522728443146,-0.04543207958340645
1761431257530687200,1.228687255859375,-0.12054169923067093,0.08296818286180496,-0.017782600596547127
1761431257550630400,1.24863037109375,-0.25208160281181335,0.5208770632743835,-0.1329248994588852
1761431257570573300,1.2685732421875,-0.22136801481246948,0.05205177515745163,-0.022297581657767296
1761431257590517500,1.288517578125,-0.20624367892742157,0.45384979248046875,-0.11578424274921417
1761431257610460400,1.30846044921875,-0.15470494329929352,0.050573039799928665,-0.021100664511322975
1761431257630403600,1.328403564453125,-0.14623025059700012,0.3413710594177246,-0.0920078381896019
1761431257650347500,1.348347412109375,0.035993389785289764,0.4136383533477783,-0.06044236198067665
1761431257670290400,1.36829052734375,0.07656515389680862,0.31668344140052795,0.008114625699818134
1761431257690233300,1.3882333984375,0.06710898131132126,0.2004832774400711,0.00574798509478569
1761431257710177500,1.408177490234375,0.009730082005262375,0.1664452999830246,-0.003744871588423848
1761431257730120400,1.428120361328125,-0.0020884948316961527,0.320968359708786,-0.044343262910842896
1761431257750064400,1.448064453125,0.016116684302687645,0.32310110330581665,-0.0009857523255050182
1761431257770007300,1.46800732421875,0.025433462113142014,0.3952772319316864,-0.039479199796915054
1761431257789950500,1.487950439453125,0.05320703610777855,0.4524121582508087,-0.026191888377070427
1761431257809894400,1.507894287109375,0.12921108305454254,0.28955307602882385,0.04000463709235191
1761431257829837300,1.52783740234375,0.19621428847312927,0.27405285835266113,0.04935012385249138
1761431257849780200,1.5477802734375,0.3089130222797394,0.5822113752365112,0.014490138739347458
1761431257869724400,1.567724365234375,0.30320048332214355,1.0966854095458984,-0.0028458908200263977
1761431257889667600,1.58766748046875,0.1140231266617775,2.605741500854492,0.5725167989730835
1761431257909610500,1.607610595703125,0.05015311390161514,-0.47892650961875916,-0.15603581070899963
1761431257929554400,1.627554443359375,0.09770065546035767,0.13746561110019684,0.16433580219745636
1761431257949497300,1.647497314453125,0.017786702141165733,0.05197980999946594,-0.010551626794040203
1761431257969441500,1.667441650390625,0.0013285689055919647,-0.005195662844926119,0.0012174758594483137
1761431257989384400,1.687384521484375,0.0005886794533580542,-0.01955949142575264,0.014089392498135567
1761431258009327400,1.707327392578125,0.0008478714153170586,0.01036844588816166,-0.0023984056897461414
1761431258029271300,1.727271240234375,0.004954133182764053,-0.010056800208985806,-0.0025258029345422983
1761431258049214500,1.74721435546875,-0.00018486741464585066,-0.001853899098932743,0.00033259810879826546
1761431258069157400,1.767157470703125,-0.0023168926127254963,0.02154925838112831,0.0018410426564514637
1761431258089101300,1.787101318359375,0.0017711863620206714,0.002807668875902891,0.0001852345885708928
1761431258109044200,1.807044189453125,0.0009705388220027089,0.0014980938285589218,-0.003078233450651169
1761431258128988400,1.826988525390625,0.000349654583260417,-0.008886734023690224,-0.0028212685137987137
1761431258148931600,1.846931640625,0.002096054144203663,-0.012436561286449432,-0.002512638457119465
1761431258168874500,1.86687451171875,0.0004598585655912757,0.004084642976522446,-0.008329182863235474
1761431258188818400,1.886818359375,0.002385679166764021,-0.0002793692983686924,0.001762655097991228
1761431258208761300,1.90676123046875,0.0014576190151274204,0.0024824091233313084,0.0016611514147371054
1761431258228704500,1.92670458984375,0.001891650608740747,0.004148147534579039,-0.00022457202430814505
1761431258248648400,1.9466484375,-0.0020271011162549257,-0.003585030557587743,-0.006538341753184795
1761431258268591400,1.96659130859375,-0.0012727549765259027,0.02083255723118782,0.006493693217635155
1761431258288535300,1.986535400390625,-0.0019243428250774741,-0.0007155658677220345,-0.004135889932513237
1761431258308478500,2.006478515625,0.001742893480695784,-0.0053001283667981625,-0.007553584408015013
1761431258328421400,2.02642138671875,0.001939460402354598,0.004239354748278856,0.004995611496269703
1761431258348365600,2.046365478515625,-0.001885739155113697,0.01663227751851082,0.014729700051248074
1761431258368308500,2.06630859375,-0.00046959734754636884,0.0031906315125524998,0.0005444950656965375
1761431258388251600,2.086251708984375,0.002919746795669198,-0.005306457635015249,-0.01103444304317236
1761431258408195600,2.106195556640625,0.005835995078086853,-0.005346623249351978,-0.005045098718255758
1761431258428138500,2.126138427734375,-0.0024792796466499567,0.00487374234944582,0.003674994222819805
1761431258448082400,2.14608251953125,-0.002249310025945306,0.004850700963288546,0.00530630350112915
1761431258468025300,2.166025390625,-0.0020115417428314686,0.006634672172367573,0.006070669274777174
1761431258487968500,2.185968505859375,-0.0002255365252494812,0.0056558032520115376,0.008784483186900616
1761431258507912400,2.205912353515625,-0.00020989886252209544,0.0019134711474180222,0.001049947110004723
1761431258527855400,2.22585546875,0.0014961336273699999,-0.0028919479809701443,-0.0035560117103159428
1761431258547799300,2.24579931640625,0.0004065216635353863,-0.0015442096628248692,-0.005328354425728321
1761431258567742500,2.265742431640625,0.00018862274009734392,0.0011058212257921696,0.0010161336977034807
1761431258587685400,2.285685302734375,0.0012042396701872349,0.0017158640548586845,0.0031037768349051476
1761431258607629600,2.305629638671875,-0.001468482194468379,0.0014597084373235703,0.0022724508307874203
1761431258627572500,2.325572509765625,-0.0007755052065476775,-0.0014823074452579021,-0.00002110656350851059
1761431258647515600,2.345515625,0.0007333554676733911,0.00008598016574978828,-0.0014231562381610274
1761431258667459600,2.36545947265625,-0.0010275640524923801,0.0003442778252065182,-0.001199809368699789
1761431258687402500,2.385402587890625,-0.0007326612831093371,0.006397486198693514,-0.002523882780224085
1761431258707346400,2.405346435546875,-0.0017542659770697355,-0.015452736057341099,-0.008843429386615753
1761431258727289300,2.425289306640625,0.0006819794070906937,-0.000005387701094150543,0.004703668411821127
1761431258747232500,2.445232421875,0.0005053998902440071,0.040215276181697845,0.009761033579707146
1761431258767176400,2.465176513671875,0.000529192213434726,-0.005616813898086548,0.0012376387603580952
1761431258787119400,2.485119384765625,-0.0008219305891543627,-0.005044865887612104,-0.0002873180783353746
1761431258807063600,2.5050634765625,0.0019354424439370632,-0.0006701601669192314,0.0013979916693642735
1761431258827006500,2.52500634765625,0.0012742700055241585,0.002204564865678549,0.0002065442968159914
1761431258846949600,2.54494970703125,-0.00040285021532326937,0.0011647287756204605,0.001369936391711235
1761431258866893600,2.5648935546875,0.0005387532874010503,-0.0015741754323244095,-0.00238384073600173
1761431258886836500,2.58483642578125,0.0003871711087413132,0.00111426692456007,0.0009258639765903354
1761431258906780400,2.604780517578125,-0.0014427509158849716,-0.0013766572810709476,0.0010311206569895148
1761431258926723600,2.6247236328125,0.00027016783133149147,-0.000514098908752203,0.0010248826583847404
1761431258946666500,2.64466650390625,-0.00010437378659844398,0.0003167088143527508,0.0023412525188177824
1761431258966610400,2.6646103515625,0.002191803650930524,0.0015976889990270138,0.0011670649982988834
1761431258986553300,2.68455322265625,-0.0024051263462752104,-0.0010551041923463345,0.0010823034681379795
1761431259006497300,2.704497314453125,0.001531936228275299,-0.0010472927242517471,-0.0006540660979226232
1761431259026440400,2.7244404296875,-0.0013500354252755642,0.0006431136280298233,-0.0018604473443701863
1761431259046383400,2.74438330078125,0.001509044086560607,-0.0019322726875543594,-0.00011399795766919851
1761431259066327600,2.76432763671875,0.00016079226043075323,-0.001440226100385189,-0.0009175572777166963
1761431259086270500,2.7842705078125,0.0007365407655015588,0.0015938733704388142,0.0034696231596171856
1761431259106214400,2.80421435546875,0.0011007869616150856,-0.00023098336532711983,-0.0037919380702078342
1761431259126157600,2.824157470703125,0.0003830112109426409,-0.0030550798401236534,-0.00016227271407842636
1761431259146101500,2.8441015625,0.0020137187093496323,-0.0008136830292642117,-0.002452101791277528
1761431259166044400,2.86404443359375,0.002030900912359357,-0.0010849316604435444,-0.00021678651683032513
1761431259185987600,2.883987548828125,-0.00039464206201955676,-0.00020814966410398483,0.0037067867815494537
1761431259205931000,2.903930908203125,0.000492025341372937,-0.0003148443065583706,0.004978743381798267
1761431259225874000,2.9238740234375,0.0008155085379257798,0.0014882730320096016,-0.00024056958500295877
1761431259245817900,2.94381787109375,-0.0007590160239487886,0.0011089700274169445,-0.0002900427207350731
1761431259265761000,2.963760986328125,-0.0005358906928449869,-0.00009293295443058014,0.0002904525026679039
1761431259285704000,2.983703857421875,0.0004115978954359889,-0.002254424151033163,-0.0007957887137308717
1761431259305647900,3.00364794921875,-0.00017651141388341784,0.000229724682867527,0.002049362286925316
1761431259325590800,3.0235908203125,0.0005318553885444999,-0.002050308510661125,0.004258195869624615
1761431259345535000,3.043534912109375,0.0007711887592449784,-0.0023257271386682987,0.001728559611365199
1761431259365478100,3.06347802734375,0.0005348381237126887,-0.0026377225294709206,0.0017345426604151726
1761431259385421000,3.083421142578125,0.0007338212453760207,-0.002375843236222863,-0.000734768807888031
1761431259405365000,3.103364990234375,-0.00028000742895528674,-0.00014568259939551353,0.0013287423644214869
1761431259425308000,3.123307861328125,-0.003049648366868496,0.000013859942555427551,-0.0014027853030711412
1761431259445251800,3.143251953125,-0.0005588677595369518,0.0016982504166662693,-0.0011763368966057897
1761431259465195000,3.163195068359375,-0.0003424709429964423,-0.001292362343519926,0.0011479101376608014
1761431259485139000,3.183138916015625,-0.002193029271438718,-0.0004115249030292034,-0.0022627185098826885
1761431259505081900,3.203081787109375,-0.000766125915106386,0.001984204165637493,-0.0012753441696986556
1761431259525024800,3.223024658203125,0.0008465741411782801,0.0006804992444813251,0.0012804764555767179
1761431259544969000,3.242968994140625,0.0017838508356362581,-0.00010291486978530884,0.002287166425958276
1761431259564911900,3.262911865234375,0.0005375830223783851,-0.000003469642251729965,0.0004139465745538473
1761431259584856000,3.28285595703125,-0.0012010843493044376,-0.0017693238332867622,-0.000055021606385707855
1761431259604799000,3.302799072265625,-0.0010318177519366145,-0.00017417827621102333,0.0007210090989246964
1761431259624743000,3.322742919921875,-0.0012206359533593059,-0.00006365682929754257,-0.001336282817646861
1761431259644686000,3.34268603515625,0.0009196457103826106,-0.0021167867816984653,-0.0009890380315482616
1761431259664629000,3.36262890625,-0.0032748328521847725,0.00103000458329916,0.0002993992529809475
1761431259684573000,3.382572998046875,-0.00011462398106232285,-0.0004353336989879608,-0.0008708208915777504
1761431259704515800,3.402515869140625,-0.0004649950424209237,-0.0008150022476911545,-0.000322977255564183
1761431259724459800,3.422459716796875,-0.0004941908409819007,0.00031567178666591644,-0.0006526808720082045
1761431259744403000,3.44240283203125,0.0006517815636470914,-0.0011461195535957813,-0.0010713314404711127
1761431259764347000,3.462346923828125,0.0014782932121306658,0.000135909765958786,0.0013768976787105203
1761431259784289800,3.482289794921875,0.00033829727908596396,0.00041109463199973106,-0.0013530883006751537
1761431259804233000,3.50223291015625,-0.00007820094469934702,0.00007771141827106476,-0.0015990849351510406
1761431259824177200,3.52217724609375,-0.003217731136828661,-0.0002784552052617073,-0.0017283030319958925
1761431259844120000,3.5421201171875,0.0005129064666107297,0.0008082021959125996,0.00008373649325221777
1761431259864064000,3.56206396484375,0.0016421492910012603,0.0003817570395767689,-0.00002839870285242796
1761431259884007000,3.5820068359375,-0.0003272246103733778,-0.0005010105669498444,-0.0009118796442635357
1761431259903950800,3.601950927734375,0.0023055076599121094,-0.0022766906768083572,0.001633697422221303
1761431259923894000,3.62189404296875,-0.0007257955148816109,-0.00006607593968510628,-0.00095676991622895
1761431259943838000,3.641837890625,-0.0007585404091514647,-0.000765620730817318,-0.0015033470699563622
1761431259963780900,3.66178076171875,0.00015707066631875932,0.0007188054732978344,0.0005311649292707443
1761431259983724800,3.681724853515625,0.0015045093605294824,0.00029353518038988113,0.0016646112781018019
1761431260003667700,3.701667724609375,-0.00006134493742138147,-0.0003330819308757782,-0.0021797488443553448
1761431260023611000,3.72161083984375,-0.0004228689940646291,-0.0003846287727355957,0.0008837952045723796
1761431260043555000,3.74155517578125,0.002422245452180505,0.00015890365466475487,0.000111372210085392
1761431260063498000,3.761498046875,0.0005705506191588938,-0.00022188806906342506,-0.00015326286666095257
1761431260083442000,3.78144189453125,-0.0007121811504475772,-0.001486354973167181,0.000046659959480166435
1761431260103385000,3.801385009765625,-0.002230245852842927,-0.0011495621874928474,0.0014473581686615944
1761431260123329000,3.8213291015625,0.00018311571329832077,0.0005534416995942593,-0.00017419905634596944
1761431260143272000,3.84127197265625,-0.0007689003832638264,0.0010787220671772957,-0.002633729949593544
1761431260163216000,3.8612158203125,-0.0010177271906286478,-0.00132374232634902,-0.0004789726808667183
1761431260183158800,3.88115869140625,0.0013755436521023512,-0.0004566912539303303,0.00016651512123644352
1761431260203102500,3.9011025390625,0.0002650976530276239,0.0018598930910229683,-0.0014990397030487657
1761431260223046400,3.92104638671875,0.0020729429088532925,-0.00044800713658332825,0.0015707233687862754
1761431260242989300,3.9409892578125,0.001538414042443037,-0.002558718901127577,-0.0003058175789192319
1761431260262933200,3.960933349609375,-0.00026884416001848876,0.0013716239482164383,0.0007657994283363223
1761431260282875400,3.98087548828125,-0.0020322990603744984,-0.0006410363130271435,0.0003678265493363142
1761431260302818300,4.000818359375,0.001266597886569798,-0.0013579935766756535,-0.00022699806140735745
1761431260322762200,4.02076220703125,-0.0016879902686923742,-0.001374723855406046,0.0005173218669369817
1761431260342705200,4.040705078125,0.0005663043702952564,-0.00004944019019603729,0.00039931037463247776
1761431260362649300,4.0606494140625,-0.0007943539530970156,0.0007598958909511566,-0.0004029680276289582
1761431260382592500,4.080592529296875,-0.0035957021173089743,0.0004770103842020035,0.0006608308758586645
1761431260402536400,4.100536376953125,0.0007634499343112111,0.0033217505551874638,-0.0033605690114200115
1761431260422479400,4.120479248046875,0.0021106128115206957,-0.0010656844824552536,0.0007941706571727991
1761431260442423300,4.14042333984375,0.0001428548712283373,0.0004044473171234131,-0.0016181805403903127
1761431260462366500,4.160366455078125,-0.0016141822561621666,0.0003074849955737591,0.0015335747739300132
1761431260482310400,4.180310302734375,-0.0012843965087085962,0.0008148308843374252,0.0002041878178715706
1761431260502253300,4.20025341796875,0.00011991572682745755,-0.0000889417715370655,0.0014448121655732393
1761431260522197200,4.220197265625,0.00038720027077943087,-0.0010856352746486664,-0.0007817402947694063
1761431260542140200,4.24014013671875,0.0001965532428584993,-0.0006951168179512024,0.0013457289896905422
1761431260562083300,4.260083251953125,0.0014152516378089786,-0.0008282377384603024,0.002490716055035591
1761431260582027500,4.280027587890625,-0.0008427415159530938,-0.0012234514579176903,-0.0014591892249882221
1761431260601970400,4.299970458984375,0.0007698327535763383,0.0006035082042217255,0.00010464852675795555
1761431260621914400,4.319914306640625,0.0003021886514034122,-0.0004912279546260834,-0.0003062619362026453
1761431260641858300,4.3398583984375,0.0005576921976171434,-0.0011990144848823547,-0.00016844458878040314
1761431260661801200,4.35980126953125,-0.0012248277198523283,0.00005901604890823364,0.0013055024901404977
1761431260681745400,4.379745361328125,-0.0012375426013022661,0.002260355744510889,-0.0003769380855374038
1761431260701688300,4.399688232421875,-0.00013948933337815106,-0.001023243647068739,0.0019418889423832297
1761431260721632300,4.41963232421875,0.0018866510363295674,-0.0010399888269603252,-0.0006715695490129292
1761431260741575200,4.4395751953125,0.00028551166178658605,-0.0012439573183655739,0.0005443793488666415
1761431260761519400,4.459519287109375,-0.0033238795585930347,-0.0011855713091790676,0.0001202278072014451
1761431260781462500,4.479462646484375,0.00015524527407251298,0.0022997581399977207,-0.00007164780981838703
1761431260801406500,4.499406494140625,0.00014399486826732755,-0.0013780142180621624,0.000148666906170547
1761431260821349400,4.519349365234375,0.0016535379691049457,-0.0010490487329661846,-0.001493613002821803
1761431260841293300,4.539293212890625,0.003838794771581888,-0.002639999845996499,-0.00024126260541379452
1761431260861236200,4.559236328125,0.0004002994392067194,-0.0013627586886286736,-0.00006077077705413103
1761431260881180200,4.57918017578125,-0.002013562945649028,-0.0007288744673132896,-0.002735614776611328
1761431260901123300,4.599123291015625,-0.00008903996786102653,-0.0008589024655520916,0.0002060260158032179
1761431260921067300,4.6190673828125,-0.0010491189314052463,0.0004236428067088127,0.00042411615140736103
1761431260941010200,4.63901025390625,0.0031549809500575066,0.0009210668504238129,-0.00058927689678967
1761431260960954400,4.658954345703125,-0.0002244404749944806,0.0008653560653328896,-0.0005269711837172508
1761431260980897500,4.6788974609375,0.0011800720822066069,0.002117346040904522,-0.002431640401482582
1761431261000841500,4.698841552734375,0.0016404089983552694,0.0017829067073762417,-0.0007251848001033068
1761431261020784400,4.718784423828125,-0.0018181127961724997,-0.000962601974606514,-0.00022552837617695332
1761431261040727300,4.738727294921875,0.0006352696218527853,-0.0005660522729158401,-0.0015128194354474545
1761431261060671200,4.758671142578125,-0.00015182769857347012,-0.002219704445451498,0.000727425329387188
1761431261080615200,4.778615234375,-0.0004334977129474282,-0.0006390931084752083,0.0007430319674313068
1761431261100558300,4.798558349609375,-0.0032970812171697617,-0.0003845207393169403,0.0013712375657632947
1761431261120501200,4.818501220703125,0.0007879360346123576,-0.002222417388111353,-0.00026365346275269985
1761431261140445200,4.838445068359375,-0.001298408373259008,0.0015902160666882992,-0.001859146635979414
1761431261160389400,4.858389404296875,0.000013756100088357925,0.00020083552226424217,0.0010484900558367372
1761431261180332500,4.87833251953125,0.0006364211440086365,-0.0009329169988632202,0.00037741055712103844
1761431261200275500,4.898275390625,-0.0019869308453053236,0.0015598353929817677,0.001103113521821797
1761431261220219000,4.918218994140625,-0.00021299731452018023,0.0001956624910235405,-0.0008027931326068938
1761431261240161800,4.938161865234375,-0.0007052348228171468,0.000738857313990593,0.00011996272951364517
1761431261260105700,4.958105712890625,0.0014795258175581694,-0.00028457585722208023,-0.000031478703022003174
1761431261280049000,4.978048828125,0.0039374083280563354,-0.001192338764667511,0.002053035655990243
1761431261299993000,4.9979931640625,0.00019776167755480856,0.0016503194347023964,-0.0022214557975530624
1761431261319936000,5.01793603515625,-0.0012879937421530485,0.000008443836122751236,0.001058480003848672
1761431261339880000,5.0378798828125,-0.0015534325502812862,0.0031725293956696987,-0.002171250991523266
1761431261359824000,5.057823974609375,-0.00043036407441832125,0.00039579859003424644,0.0022531957365572453
1761431261379767000,5.07776708984375,-0.0008945596637204289,0.0013832435943186283,-0.001572927925735712
1761431261399711000,5.0977109375,-0.00009491227683611214,-0.0012017213739454746,-0.0013610366731882095
1761431261419654000,5.11765380859375,-0.0017064458224922419,-0.00014433450996875763,0.00004608579911291599
1761431261439597800,5.137597900390625,-0.00007997205830179155,0.000144242774695158,-0.0008260274771600962
1761431261459540700,5.157540771484375,0.00034884302294813097,-0.0001596040092408657,-0.0028315079398453236
1761431261479485000,5.17748486328125,0.0008184136240743101,0.0017234347760677338,-0.002768106758594513
1761431261499428000,5.197427978515625,0.00023398760822601616,-0.00007217936217784882,0.0003898136783391237
1761431261519372000,5.2173720703125,-0.00010361013119108975,0.0005094604566693306,0.0009985800134018064
1761431261539315000,5.23731494140625,-0.00037265438004396856,-0.0019909413531422615,-0.000535606755875051
1761431261559259000,5.2572587890625,0.00016252626664936543,0.0011484334245324135,-0.0018602219643071294
1761431261579202000,5.2772021484375,0.00036466060555540025,0.0015428964979946613,0.0010059052146971226
1761431261599146000,5.29714599609375,0.0021548070944845676,0.0005458611994981766,-0.0009185005910694599
1761431261619089000,5.3170888671875,0.0005146365147083998,-0.000765766017138958,0.001112155383452773
1761431261639032800,5.33703271484375,0.0016808346845209599,0.0012904605828225613,0.0009888510685414076
1761431261658975700,5.356975830078125,0.0007974779000505805,0.0004838122986257076,0.00006925826892256737
1761431261678920000,5.376919921875,0.0015630003763362765,0.000010706949979066849,0.0021218934562057257
1761431261698863000,5.396863037109375,-0.0009557226439937949,-0.0003582998178899288,0.0010635924991220236
1761431261718807000,5.41680712890625,0.0001407405943609774,0.00002916622906923294,-0.0028491730336099863
1761431261738750000,5.43675,-0.0022509824484586716,0.0011939136311411858,0.0022493661381304264
1761431261758694000,5.45669384765625,0.0016162351239472628,0.0028684334829449654,0.002786658238619566
1761431261778637000,5.476636962890625,-0.0000110213877633214,-0.00134627940133214,-0.00011757237371057272
1761431261798581000,5.4965810546875,0.0011159892892464995,-0.0003471369855105877,0.00123818579595536
1761431261818524000,5.51652392578125,-0.000757447152864188,-0.0005928706377744675,-0.0007431817939504981
1761431261838467800,5.5364677734375,-0.002036550547927618,-0.00047961296513676643,-0.0003087380900979042
1761431261858410800,5.55641064453125,0.0017473154002800584,-0.0003939555026590824,0.001211830647662282
1761431261878355000,5.57635498046875,-0.0013987787533551455,0.0003290451131761074,0.0014905586140230298
1761431261898298000,5.596298095703125,-0.000830645440146327,0.0013426411896944046,-0.0018591382540762424
1761431261918242000,5.616241943359375,0.0025826492346823215,-0.00025514932349324226,0.0003639012575149536
1761431261938185000,5.63618505859375,-0.0019841499160975218,0.000806096475571394,-0.0008700755424797535
1761431261958129000,5.65612890625,-0.000421858043409884,0.0020939158275723457,-0.003603520570322871
1761431261978071800,5.67607177734375,0.0007687993347644806,-0.00014184508472681046,-0.000703200523275882
1761431261998016000,5.69601611328125,0.00024601467885077,-0.0013588257133960724,0.0017215106636285782
1761431262017960000,5.7159599609375,-0.0010595981730148196,0.00137728126719594,0.000759149668738246
1761431262037902800,5.73590283203125,-0.0012585138902068138,-0.0016614766791462898,-0.0015800895635038614
1761431262057847000,5.755846923828125,0.0013646662700921297,-0.002557141473516822,0.0005977263208478689
1761431262077790000,5.7757900390625,0.0018396277446299791,-0.002540650311857462,0.0009987893281504512
1761431262097734000,5.79573388671875,-0.0010088842827826738,-0.00007380824536085129,-0.0006057500140741467
1761431262117677000,5.815677001953125,-0.0002921559498645365,0.0004976615309715271,-0.0011452736798673868
1761431262137621000,5.83562109375,-0.00014505887520499527,-0.0008340552449226379,-0.0006436973344534636
1761431262157564000,5.85556396484375,0.0016405867645516992,0.001270171720534563,-0.00018653576262295246
1761431262177507800,5.8755078125,0.0008158085984177887,0.0016167052090168,-0.0011092622298747301
1761431262197450800,5.89545068359375,0.0004835675354115665,-0.0022414433769881725,-0.0018494671676307917
1761431262217395500,5.9153955078125,-0.000654006318654865,-0.00012911949306726456,0.00009054981637746096
1761431262237338600,5.935338623046875,0.002577214501798153,0.000853193923830986,-0.00004646810702979565
1761431262257282600,5.955282470703125,-0.0007640813710168004,-0.0002624625340104103,-0.0013419538736343384
1761431262277225500,5.9752255859375,-0.0009251623414456844,-0.0008933055214583874,0.0027975887060165405
1761431262297169400,5.99516943359375,0.0008787308470346034,-0.0017317654564976692,0.000982670928351581
1761431262317113600,6.015113525390625,0.0027836840599775314,-0.0019264048896729946,0.0004782642936334014
1761431262337056500,6.035056396484375,0.00033276478643529117,-0.0013641943223774433,-0.0004113506292924285
1761431262357000700,6.055000732421875,-0.0008931639604270458,0.000575751531869173,-0.00047280394937843084
1761431262376943600,6.074943603515625,-0.000662117381580174,-0.0003536469303071499,-0.0016370355151593685
1761431262396887600,6.094887451171875,-0.00028766310424543917,0.00021461769938468933,0.0017483227420598269
1761431262416830500,6.11483056640625,0.0008233285043388605,-0.0004600333049893379,-0.0001723356544971466
1761431262436774400,6.1347744140625,-0.0012513521360233426,-0.00022156443446874619,-0.0013425240758806467
1761431262456717600,6.154717529296875,-0.0018147076480090618,0.0003572874702513218,-0.002136847237125039
1761431262476661500,6.17466162109375,-0.0029251237865537405,-0.0005124974995851517,0.0020791180431842804
1761431262496604400,6.1946044921875,0.0005497121601365507,-0.00001189112663269043,0.0006969348760321736
1761431262516548600,6.214548583984375,0.0004201213887427002,0.0001679491251707077,-0.0008206281345337629
1761431262536492500,6.234492431640625,0.0005628803046420217,-0.0008297725580632687,-0.0002750955754891038
1761431262556435700,6.254435791015625,-0.0023322668857872486,0.00010496238246560097,0.0013822853798046708
1761431262576379600,6.274379638671875,-0.0010346771450713277,0.001045419368892908,-0.0009615859016776085
1761431262596322600,6.294322509765625,-0.001261078636161983,0.0005238447338342667,-0.00007816962897777557
1761431262616266500,6.3142666015625,0.00019747726037167013,-0.00018436508253216743,-0.0009301860118284822
1761431262636209400,6.33420947265625,-0.0010841250186786056,-0.002747399965301156,0.0009467913769185543
1761431262656153300,6.3541533203125,-0.0009822298306971788,-0.0003003813326358795,-0.00035720516461879015
1761431262676096500,6.374096435546875,-0.0021977988071739674,0.0008347416296601295,0.00010032940190285444
1761431262696040700,6.394040771484375,0.0006763797719031572,0.0008530593477189541,0.0022647904697805643
1761431262715983600,6.413983642578125,0.0024710139259696007,-0.00021326448768377304,0.0010012780549004674
1761431262735927600,6.433927490234375,-0.0010901344940066338,-0.0011765728704631329,-0.00031008757650852203
1761431262755871500,6.45387158203125,-0.0005722576752305031,-0.0006136354058980942,-0.0010512471199035645
1761431262775814700,6.473814697265625,0.0023127018939703703,-0.0012560626491904259,0.0008317050524055958
1761431262795758600,6.493758544921875,-0.0013762612361460924,-0.002064309548586607,0.001121495384722948
1761431262815701500,6.513701416015625,-0.0005267333472147584,-0.000812931451946497,-0.0011598225682973862
1761431262835645400,6.5336455078125,-0.00038597150705754757,-0.0001905183307826519,-0.00011375697795301676
1761431262855588400,6.55358837890625,0.0017819693312048912,-0.000947228167206049,-0.00019738380797207355
1761431262875532500,6.573532470703125,0.00003549634129740298,-0.0000402107834815979,-0.00071299122646451
1761431262895475700,6.593475830078125,0.0009460648288950324,-0.0011488148011267185,0.0032904623076319695
1761431262915419600,6.613419677734375,-0.0019522912334650755,-0.002928859321400523,-0.000718343595508486
1761431262935363600,6.633363525390625,-0.00233818287961185,-0.0007799896411597729,0.002571511548012495
1761431262955306500,6.653306396484375,-0.0012030622456222773,0.0002697720192372799,0.0012170583941042423
1761431262975250400,6.67325048828125,0.002484537661075592,-0.002138412557542324,0.0006587459938600659
1761431262995193600,6.693193603515625,0.0010627319570630789,0.00014568353071808815,0.0004090436268597841
1761431263015137500,6.713137451171875,-0.001258103409782052,0.00004349276423454285,0.003353250678628683
1761431263035080400,6.73308056640625,-0.001771559938788414,-0.0008210893720388412,-0.0011876780772581697
1761431263055024600,6.753024658203125,0.0006636322941631079,0.0013414043933153152,-0.0009346349397674203
1761431263074967600,6.772967529296875,-0.0006030861986801028,-0.00036123208701610565,0.0004077317425981164
1761431263094911500,6.792911376953125,-0.0008560320129618049,0.00013875355944037437,-0.00035401288187131286
1761431263114855400,6.81285546875,0.0007837751181796193,-0.00020753545686602592,0.002487510209903121
1761431263134798600,6.832798583984375,-0.0005048886523582041,0.0010676924139261246,0.0008335952879860997
1761431263154742500,6.852742431640625,-0.0006471816450357437,0.0007984722033143044,-0.0019335502292960882
1761431263174685400,6.872685546875,-0.0011448231525719166,-0.002092831302434206,-0.0005300302291288972
1761431263194629400,6.89262939453125,0.0016004603821784258,-0.0008479263633489609,-0.0007162169786170125
1761431263214572500,6.912572509765625,-0.00007087536505423486,0.0014910227619111538,0.00022456503938883543
1761431263234516700,6.932516845703125,0.0014658697182312608,-0.00022470811381936073,0.0003635697066783905
1761431263254460700,6.952460693359375,-0.001109216595068574,-0.0022370810620486736,-0.0021114866249263287
1761431263274403600,6.972403564453125,0.0008927572052925825,-0.0021700584329664707,0.00041255936957895756
1761431263294347800,6.99234765625,-0.005392619874328375,0.0023129391483962536,0.0022050533443689346
1761431263314290700,7.012290771484375,-0.0005648786900565028,-0.0009795823134481907,0.0009208199335262179
1761431263334234600,7.032234619140625,0.0003301208489574492,-0.0003960859030485153,-0.002501384587958455
1761431263354177800,7.052177734375,0.0009759896784089506,0.0009615081362426281,0.002130503300577402
1761431263374121700,7.072121826171875,0.0003456036210991442,0.0003267219290137291,0.00030819373205304146
1761431263394065700,7.092065673828125,0.0008425420965068042,-0.00001633167266845703,-0.0001369301462545991
1761431263414008600,7.112008544921875,0.00034753145882859826,-0.00089242123067379,-0.0016325196484103799
1761431263433952500,7.131952392578125,0.0003981176414526999,0.0019078031182289124,-0.0014265778008848429
1761431263453895700,7.151895751953125,0.00009927089558914304,0.002609988208860159,0.001640643342398107
1761431263473839900,7.17183984375,0.00165841868147254,0.00036149704828858376,0.0008366237161681056
1761431263493782800,7.19178271484375,0.0027882694266736507,-0.0002097003161907196,0.0013163175899535418
1761431263513726700,7.211726806640625,0.00005785076064057648,0.0013862745836377144,0.0022486275993287563
1761431263533670700,7.231670654296875,0.00007270966307260096,-0.0006808578036725521,-0.00009265623521059752
1761431263553613600,7.251613525390625,-0.0005347200203686953,0.00016093486919999123,0.0019199680536985397
1761431263573557500,7.2715576171875,-0.00021868114708922803,-0.0005935900844633579,0.0017958362586796284
1761431263593500700,7.291500732421875,-0.001061112037859857,-0.0012306328862905502,-0.0007119785877875984
1761431263613444600,7.311444580078125,0.0015821114648133516,-0.0012435936369001865,0.002260195091366768
1761431263633387500,7.331387451171875,0.0007397570880129933,0.0019942671060562134,0.0008069097530096769
1761431263653331700,7.351331787109375,0.001413706224411726,-0.001071828417479992,0.0003742824774235487
1761431263673275600,7.371275634765625,0.0003794637741521001,-0.00122061837464571,-0.00036400038516148925
1761431263693218800,7.39121875,0.0021478987764567137,0.0003417572006583214,-0.003595283254981041
1761431263713162800,7.411162841796875,-0.002274551894515753,0.002195645123720169,-0.0005781478248536587
1761431263733105700,7.431105712890625,0.0025596763007342815,0.0005734004080295563,0.0014261443866416812
1761431263753049600,7.451049560546875,0.0012882007285952568,0.001424622256308794,-0.0012609277619048953
1761431263772993500,7.47099365234375,0.00045253729331307113,-0.001448315568268299,0.0006852668011561036
1761431263792936400,7.4909365234375,0.00016953411977738142,-0.0011872118338942528,0.0035087340511381626
1761431263812880600,7.510880615234375,-0.003021379467099905,0.0011242055334150791,-0.0008031955221667886
1761431263832823800,7.53082373046875,0.0010797556024044752,-0.0005314727313816547,-0.00037243805127218366
1761431263852767700,7.550767822265625,0.0006993557326495647,0.0009193699806928635,-0.0002952503855340183
1761431263872711700,7.570711669921875,-0.0016447058878839016,-0.0002078106626868248,-0.0007948977872729301
1761431263892654600,7.590654541015625,0.0008784682722762227,-0.0014014644548296928,-0.000584799621719867
1761431263912598500,7.6105986328125,0.0010171923786401749,0.0004895017482340336,-0.0013682807330042124
1761431263932541700,7.630541748046875,-0.000943782040849328,0.0025815824046730995,0.0003768894821405411
1761431263952485600,7.650485595703125,-0.0013416241854429245,0.0008055507205426693,-0.0016560660442337394
1761431263972428500,7.670428466796875,-0.0009699917281977832,0.0011965418234467506,0.002336753997951746
1761431263992372700,7.690372802734375,0.0009717809734866023,0.002207913901656866,-0.004415831528604031
1761431264012316700,7.710316650390625,-0.0011131505016237497,0.0019991383887827396,-0.00036554510006681085
1761431264032259600,7.730259521484375,0.00010984903201460838,0.0013448805548250675,0.00028061505872756243
1761431264052203800,7.750203857421875,0.0015516523271799088,0.00004025362432003021,-0.0006726656574755907
1761431264072146700,7.770146728515625,0.0024796754587441683,-0.0035865074023604393,0.000058927456848323345
1761431264092090600,7.790090576171875,-0.002333969809114933,-0.0009072893299162388,-0.0003034904948435724
1761431264112034600,7.81003466796875,-0.00024464487796649337,0.00026284297928214073,0.0004945442778989673
1761431264131977500,7.8299775390625,-0.0012620483757928014,0.001262496691197157,-0.0006760276737622917
1761431264151921700,7.849921630859375,0.00042572274105623364,0.0012112781405448914,-0.00034130847780033946
1761431264171864800,7.86986474609375,0.0009866668842732906,-0.0012199534103274345,0.004470019601285458
1761431264191808800,7.889808837890625,0.0010668664472177625,-0.001516094896942377,0.00011748378165066242
1761431264211752700,7.909752685546875,0.0029267414938658476,0.0003956686705350876,-0.0002307139802724123
1761431264231695600,7.929695556640625,0.0005773813463747501,0.0020220018923282623,-0.0006675211479887366
1761431264251639600,7.9496396484375,0.000217793756746687,0.0026283184997737408,0.0003424293827265501
1761431264271582700,7.969582763671875,0.00016309201600961387,0.0004368191584944725,0.00013563537504523993
1761431264291526700,7.989526611328125,-0.00010358053259551525,-0.0007310467772185802,-0.001021941308863461
1761431264311469600,8.009469482421874,-0.0005990375648252666,0.00016924086958169937,-0.0019855378195643425
1761431264331413800,8.029413818359375,-0.0001338555885013193,-0.00024717021733522415,0.0008676757570356131
1761431264351356700,8.049356689453125,0.0006554989377036691,-0.00029745930805802345,-0.0005128366174176335
1761431264371300600,8.069300537109376,0.0010750135406851768,-0.0029026109259575605,-0.00018563121557235718
1761431264391244500,8.08924462890625,0.0019858230371028185,0.0014705709181725979,-0.0002269330434501171
1761431264411187700,8.109187744140625,-0.0005532572977244854,-0.0007969820871949196,-0.0014603898162022233
1761431264431131600,8.129131591796876,-0.00029850663850083947,-0.00009580468758940697,0.00015537370927631855
1761431264451074600,8.149074462890624,0.0004291530349291861,0.00011492660269141197,0.00021902751177549362
1761431264471018800,8.169018798828125,-0.00030493794474750757,-0.0035976525396108627,-0.0016967842821031809
1761431264490962700,8.188962646484375,0.0015616955934092402,-0.001937088556587696,0.0013577829813584685
1761431264510905900,8.20890576171875,0.0013436467852443457,0.0014989697374403477,-0.001041558338329196
1761431264530849800,8.228849853515625,-0.0023235012777149677,0.0013127587735652924,-0.0001279652351513505
1761431264550792700,8.248792724609375,-0.0005659728776663542,0.0017205658368766308,-0.0013406674843281507
1761431264570736600,8.268736572265626,-0.001983906840905547,0.0036692065186798573,-0.0022337203845381737
1761431264590680600,8.2886806640625,0.0012176744639873505,0.0004471633583307266,0.00034713849890977144
1761431264610623500,8.30862353515625,0.0015702154487371445,0.0007397159934043884,-0.0015793935162946582
1761431264630567700,8.328567626953125,-0.00017901862156577408,-0.0010241116397082806,0.0008813213789835572
1761431264650512600,8.3485126953125,0.0014852028107270598,-0.0000021299347281455994,-0.002483219373971224
1761431264670456600,8.36845654296875,-0.0002450499450787902,-0.00018846429884433746,-0.0008318297332152724
1761431264690399700,8.388399658203125,0.0019136718474328518,-0.001192362979054451,0.0004832886625081301
1761431264710343700,8.40834375,0.001300733769312501,-0.0008729584515094757,-0.0013649739557877183
1761431264730286600,8.42828662109375,0.0014678389998152852,-0.0011989274062216282,0.000034715281799435616
1761431264750230800,8.448230712890625,0.0006090909009799361,0.00045492732897400856,-0.0011185811599716544
1761431264770174700,8.4681748046875,0.0006423798040486872,-0.001350312028080225,0.0013349115615710616
1761431264790117600,8.48811767578125,0.00045764053356833756,-0.00020292680710554123,0.00035902485251426697
1761431264810061600,8.5080615234375,-0.001024364260956645,0.003781156614422798,0.001364278607070446
1761431264830004700,8.528004638671876,0.00007178983651101589,0.001084919087588787,0.00019222672563046217
1761431264849948700,8.54794873046875,-0.0021811348851770163,0.00039114709943532944,-0.0007230329210869968
1761431264869892600,8.567892578125,0.0009931150125339627,0.00035589514300227165,0.0009941450553014874
1761431264889835500,8.58783544921875,0.0007649437757208943,-0.0015319408848881721,0.002364358864724636
1761431264909779700,8.60777978515625,-0.0005500370170921087,-0.00009074201807379723,-0.002331459429115057
1761431264929723000,8.627722900390625,0.0007477387553080916,0.0006080195307731628,0.0011696501169353724
1761431264949666800,8.647666748046875,0.0003395590465515852,-0.002485806355252862,-0.0017855656333267689
1761431264969610800,8.66761083984375,0.0008073451463133097,-0.0006771059706807137,0.0013785575283691287
1761431264989553700,8.6875537109375,0.00029943318804726005,-0.0005595325492322445,-0.0026627907063812017
1761431265009497600,8.70749755859375,-0.00009843285079114139,-0.0014778375625610352,0.001023789867758751
1761431265029441500,8.727441650390626,0.0009711353341117501,0.0016910978592932224,0.0007782075554132462
1761431265049384700,8.747384765625,0.0008218358270823956,0.00035712216049432755,-0.001283892197534442
1761431265069329000,8.767328857421875,-0.0006654527387581766,-0.001361306756734848,0.0019113683374598622
1761431265089272800,8.78727294921875,-0.0008855026680976152,0.0002477695234119892,0.00005846342537552118
1761431265109215700,8.8072158203125,0.0024138493463397026,-0.0009515248239040375,-0.000662736245431006
1761431265129159700,8.82715966796875,0.00038319715531542897,0.0002393685281276703,0.002312254160642624
1761431265149102600,8.8471025390625,0.0016710824565961957,-0.0034914191346615553,-0.0007630085456185043
1761431265169046500,8.867046630859376,0.0018930276855826378,-0.00037422962486743927,-0.001138234161771834
1761431265188990700,8.88699072265625,0.00018065565382130444,0.0005417498759925365,-0.0008933079661801457
1761431265208933000,8.90693310546875,-0.0017122634453698993,0.0007566981948912144,0.0019481064518913627
1761431265228877000,8.926876953125,-0.0003527064109221101,0.002288141753524542,-0.0010593514889478683
1761431265248821200,8.9468212890625,-0.0009473897516727448,0.0009493930265307426,0.002950978698208928
1761431265268764200,8.96676416015625,0.0027734702453017235,-0.0007439558394253254,-0.0000028011854737997055
1761431265288708000,8.9867080078125,-0.0002251670230180025,-0.0015111262910068035,-0.0011452453909441829
1761431265308651300,9.0066513671875,-0.00005354790482670069,-0.0009355815127491951,0.0014308268437162042
1761431265328595200,9.02659521484375,-0.000979559845291078,0.00019348552450537682,0.00006727222353219986
1761431265348539100,9.0465390625,0.0025633664336055517,-0.0023014191538095474,-0.0021925487089902163
1761431265368482000,9.06648193359375,-0.0017008241266012192,-0.002396436408162117,0.0015659426571801305
1761431265388426000,9.086426025390624,-0.0005718301981687546,0.00027524586766958237,0.0029289312660694122
1761431265408370200,9.1063701171875,-0.0012219358468428254,0.0008903583511710167,-0.0014394226018339396
1761431265428313300,9.126313232421875,-0.0008077457314357162,-0.00007775053381919861,0.00043938576709479094
1761431265448257300,9.14625732421875,0.00006640155334025621,-0.0012988629750907421,-0.001132771372795105
1761431265468200200,9.1662001953125,0.002384184394031763,-0.0012436620891094208,0.0031618697103112936
1761431265488144100,9.18614404296875,-0.0010051433928310871,-0.0010532629676163197,-0.0005197321297600865
1761431265508088000,9.206088134765626,0.0006944038323126733,-0.0014894157648086548,-0.0035174121148884296
1761431265528031200,9.22603125,-0.0006246486445888877,-0.00030096713453531265,0.0004828798118978739
1761431265547975200,9.24597509765625,0.0014852301683276892,-0.0002540750429034233,-0.0027538067661225796
1761431265567919400,9.26591943359375,-0.0020250838715583086,0.00016672303900122643,0.0009760275715962052
1761431265587862300,9.2858623046875,-0.001857757568359375,0.001517114695161581,0.0014359097694978118
1761431265607806200,9.30580615234375,-0.00019847089424729347,0.0008278344757854939,0.0035326892975717783
1761431265627750100,9.325750244140625,-0.0009027792257256806,-0.0007566851563751698,0.0011403195094317198
1761431265647693000,9.345693115234376,0.0010924407979473472,-0.0004011918790638447,-0.0015222689835354686
1761431265667637000,9.365636962890624,-0.0008401747909374535,0.0025235223583877087,-0.0017126610036939383
1761431265687580200,9.385580078125,0.002490640850737691,-0.0012973146513104439,0.002250122604891658
1761431265707524000,9.405524169921875,0.00064836599631235,-0.0012269006110727787,0.0003427901538088918
1761431265727468300,9.42546826171875,-0.0007388415397144854,-0.00016773119568824768,-0.0016645966097712517
1761431265747411200,9.4454111328125,-0.0014787002000957727,0.0012040394358336926,-0.0011501909466460347
1761431265767355100,9.465355224609375,-0.000812311249319464,0.0020914659835398197,0.0008804126409813762
1761431265787299000,9.485299072265626,0.0012383557623252273,0.0005548447370529175,-0.001846815226599574
1761431265807242200,9.5052421875,0.002637081081047654,-0.0011788345873355865,0.0007229620823636651
1761431265827186200,9.525186279296875,-0.0059971194714307785,0.14075329899787903,0.060762956738471985
1761431265847130000,9.545130126953126,-0.00027977910940535367,0.058596447110176086,0.021946260705590248
1761431265867073000,9.565072998046874,0.003949987236410379,-0.028773466125130653,-0.01344304159283638
1761431265887017200,9.585017333984375,0.0031096930615603924,-0.04062700271606445,-0.013514078222215176
1761431265906961200,9.604961181640626,0.0009065596968866885,-0.010534511879086494,-0.0037293226923793554
