time,seconds_elapsed,z,y,x
1761507864674243300,0.076243408203125,-0.07782265987098216,-0.071546538743563,-0.01268120239675045
1761507864694399200,0.096399169921875,-0.20510054778456688,0.004980327429529279,0.13706746052205562
1761507864714554400,0.116554443359375,-0.19107260695397854,-0.1447009328088723,-0.1767037437312305
1761507864734710300,0.136710205078125,-0.13856909725666045,-0.15446328861685468,-0.037246319332718845
1761507864754865200,0.156865234375,-0.08633446762859821,-0.07916484999386593,-0.09848916193321347
1761507864775021300,0.177021240234375,-0.044375732821226116,0.08194356659273616,-0.08285670851543545
1761507864795176200,0.19717626953125,0.0005617255359888076,0.06403987117419019,-0.03564779809489846
1761507864815332000,0.21733203125,-0.0680570526599884,-0.04964658132966142,-0.0153542209982872
1761507864835487200,0.2374873046875,0.15370646063387394,0.05988302548937499,-0.11601429722979664
1761507864855643400,0.257643310546875,0.3521539802700281,0.08327836799360812,-0.199757506256178
1761507864875798300,0.27779833984375,0.19775603024065494,0.0018393442563712596,-0.2872826449740678
1761507864895954400,0.297954345703125,0.11351648906469344,-0.07379437246927992,-0.3061131637807935
1761507864916109600,0.318109619140625,0.01489887844622135,0.08346274811718613,-0.14729133289456367
1761507864936265500,0.338265380859375,-0.013651508733630179,0.11943552211644128,-0.06982800785526633
1761507864956420400,0.35842041015625,-0.2082534588575363,0.13204108372740447,0.09806457984559237
1761507864976576500,0.378576416015625,-0.4642208550482988,0.09882836729232221,0.17263254876956344
1761507864996731400,0.3987314453125,-0.48446986235082146,0.12021587710548191,0.09167363669946789
1761507865016887600,0.418887451171875,-0.3892448167800903,0.0725781102810055,0.09825367267690599
1761507865037042400,0.43904248046875,-0.11710136181414127,0.1597427451234311,0.12684066554009912
1761507865057198600,0.459198486328125,-0.1866378393769264,0.22954065010137856,0.2752277577821165
1761507865077353500,0.479353515625,-0.04759703295528889,0.1278010350048542,0.2114182795640081
1761507865097509400,0.49950927734375,0.11193360378742218,0.09468757769316434,0.0620804624684155
1761507865117664500,0.51966455078125,0.08335048338174819,0.0635475393462926,0.04442885124795139
1761507865137820400,0.5398203125,-0.03269815450906753,0.03680778178498149,0.04759111467115581
1761507865157975600,0.5599755859375,-0.09929857861995696,0.12158157596811651,-0.05173252532482147
1761507865178131500,0.58013134765625,0.09715513685047626,0.15933869436718523,-0.06233034557625651
1761507865198286600,0.60028662109375,-0.07793781068325042,0.12268880655765532,-0.0009197451934218406
1761507865218442500,0.6204423828125,-0.06716624130010604,0.17192261040192097,0.08283902672827244
1761507865238597400,0.640597412109375,0.02984451864361763,0.16452910261712966,0.06535451570302248
1761507865258753500,0.66075341796875,-0.24155717804431914,0.13567556777223944,0.0242883458212018
1761507865278908400,0.680908447265625,0.09062485829889774,0.294525017317757,0.07016556924656032
1761507865299064300,0.701064208984375,-0.0246913736641407,0.13304467127937822,0.05393880319744348
1761507865319219500,0.721219482421875,0.1533592546314001,0.020004859815724193,-0.09812544318735598
1761507865339375600,0.741375732421875,0.13910568835139273,0.00148695062212646,0.05385331687107682
1761507865359530500,0.761530517578125,0.09272329188287258,0.02360306697078049,0.15925985697731374
1761507865379686400,0.781686279296875,-0.1367319449573755,0.11076002996340394,0.23573797037154434
1761507865399841500,0.801841552734375,-0.21260697789192198,0.2545734941469505,0.11985329087078571
1761507865419997400,0.82199755859375,-0.21254852570295332,0.0619647088679485,-0.08757409242615104
1761507865440152300,0.84215234375,-0.06584697539508343,0.09021351928533985,-0.11609262316301465
1761507865460308500,0.86230859375,-0.13913082279264927,0.14091002522646448,-0.003162701814621687
1761507865480463600,0.882463623046875,-0.07479074482917786,0.056800777632975946,0.08624167477861046
1761507865500619500,0.90261962890625,-0.10706395192444323,-0.005127718277275562,0.13122078032046555
1761507865520774400,0.9227744140625,-0.09167758222222328,-0.014383704598853363,0.035416473557054996
1761507865540930600,0.9429306640625,-0.23312486526370046,0.04049634323776699,0.06793313401937484
1761507865561085400,0.96308544921875,-0.1359264737933874,0.14870089829838834,0.018166648070514203
1761507865581241300,0.983241455078125,-0.13840367756187916,0.051757221374660725,-0.06927446562573314
1761507865601396500,1.003396484375,-0.110167763158679,-0.034297041073068975,-0.13527780062630773
1761507865621552400,1.023552490234375,-0.1439817699551582,-0.0874574255102314,-0.10045344774350523
1761507865641708300,1.043708251953125,-0.10790390987992286,-0.010048406207747758,-0.022441548910737037
1761507865661863700,1.06386376953125,-0.12514496753811835,0.0021429303128272293,0.04158756340742111
1761507865682019600,1.08401953125,-0.0595563508182764,0.004676978835090995,0.03232888280525804
1761507865702174500,1.104174560546875,0.06026362230479717,-0.011562153505254536,-0.012478081040084361
1761507865722330600,1.12433056640625,0.12003799978792666,0.0001727262184023857,-0.05315685903951525
1761507865742485500,1.144485595703125,0.14203238945305346,-0.006283902575075626,-0.08318900920972228
1761507865762641400,1.164641357421875,0.1499386325329542,-0.10555383962243794,-0.2504695294268429
1761507865782796300,1.18479638671875,0.16312486184239386,-0.1361174297882244,-0.0682575436681509
1761507865802952400,1.204952392578125,0.14690262583792207,-0.10239935764688998,0.0315590674765408
1761507865823107600,1.225107666015625,-0.035282325783371926,-0.06490925615355372,0.05292392706647515
1761507865843263500,1.245263427734375,-0.1982405988872051,0.028640878474898636,0.00336363121420145
1761507865863418600,1.265418701171875,-0.19607552980780601,-0.11743523341100662,-0.13173530571386216
1761507865883574500,1.285574462890625,-0.10288637397885322,-0.08474210213692858,-0.06694339232966304
1761507865903729400,1.3057294921875,-0.12817688257992266,-0.01917089320961386,0.021857465412467716
1761507865923885600,1.325885498046875,-0.2513625327438116,-0.004629614295717329,0.02539090023562312
1761507865944040400,1.34604052734375,-0.1801946545869112,-0.02190439156042412,-0.0208440505862236
1761507865964196400,1.3661962890625,-0.0345645329028368,-0.09006064854487776,-0.05046323604136705
1761507865984351500,1.3863515625,0.1713929239720106,-0.12044946666564792,-0.03882248260825872
1761507866004507600,1.406507568359375,0.1980886231958866,0.02424224165715277,0.1363417765960097
1761507866024662500,1.42666259765625,-0.11871405770778655,0.066015609960258,0.1547850496508181
1761507866044818400,1.446818359375,-0.1213958441376686,-0.044205454288236794,-0.04918927058279514
1761507866064973600,1.4669736328125,-0.06935410673320293,-0.0029487302703782915,0.03751271518394351
1761507866085129500,1.48712939453125,0.04646890570819378,-0.023750951008871195,0.0397080332711339
1761507866105284400,1.507284423828125,0.058847910287976264,0.0070462652496993535,0.05876330074444413
1761507866125440500,1.5274404296875,-0.0773942053258419,0.08960643850397318,0.07801029139757155
1761507866145595600,1.547595703125,-0.11102701033651828,0.060537288147024804,0.08650412510707974
1761507866165751600,1.56775146484375,-0.06503975066542625,0.03811060801185667,0.018651655108481643
1761507866185906400,1.587906494140625,-0.08231178798377513,0.08149849883951246,0.04741166645102202
1761507866206062600,1.6080625,-0.27894378263056274,0.1951655022908002,0.04706957501508295
1761507866226217500,1.628217529296875,-0.14075754721164702,0.07552044734321534,-0.010411211638152599
1761507866246373400,1.648373291015625,-0.05394201806783676,0.08628558698557316,0.02312251691222191
1761507866266528500,1.668528564453125,0.046669396716356275,0.033575594930723304,0.06656535279750823
1761507866286684400,1.688684326171875,0.012764204505085945,0.1395461986605078,0.0728299661502242
1761507866306839600,1.708839599609375,-0.029418986707925796,0.12139197168014942,0.05316285038888454
1761507866326995700,1.72899560546875,0.03270283068418502,0.05295680642277002,-0.02532360715307295
1761507866347150600,1.749150634765625,0.045485155367851256,0.07657923568114638,0.007978577663749455
1761507866367306500,1.769306396484375,-0.047075054907798765,0.11868395483046769,0.08637246155142783
1761507866387461400,1.78946142578125,0.02451367900967598,0.10420417857915162,0.0016651567332446574
1761507866407617500,1.809617431640625,0.05030863000154495,0.06907002909481524,-0.03609042729586363
1761507866427772400,1.8297724609375,-0.0952057563483715,0.15071677729859947,-0.008334332298859954
1761507866447928300,1.84992822265625,-0.13002806340456008,0.0349223333645612,-0.03830094295218587
1761507866468084500,1.87008447265625,-0.12099778473079204,0.06414850091412663,-0.010062325135245919
1761507866488239600,1.890239501953125,-0.15537351706326008,0.1031838956207037,0.009214183873310685
1761507866508395500,1.9103955078125,-0.07814590047597884,0.06281842135414481,0.0005685206029564142
1761507866528550700,1.930550537109375,-0.0501975708425045,0.04070946539863944,-0.004394362501427531
1761507866548706600,1.95070654296875,-0.04536182124912738,0.04800700199566781,0.029593174231052396
1761507866568861400,1.970861328125,-0.08415770811140537,0.07750957533381879,0.022982670050114392
1761507866589017300,1.991017333984375,-0.047560792598128315,0.03235357885509729,-0.012748422414064407
1761507866609172500,2.01117236328125,0.02564940504133701,0.016164295272156595,-0.04918547119051218
1761507866629328400,2.031328369140625,-0.04472118525803089,0.003339811947196722,-0.010636179500445722
1761507866649483500,2.0514833984375,-0.04967734636068344,0.015258651669323444,0.026639731252938507
1761507866669639700,2.0716396484375,-0.08222586326599121,-0.03932626741193235,0.037523090447485447
1761507866689794600,2.091794677734375,-0.056931847533583636,-0.02019077430926263,0.01127250464260578
1761507866709950500,2.111950439453125,-0.09851765737533569,0.03734488433636725,0.07933503719530999
1761507866730105300,2.132105224609375,-0.10224281537830829,0.06257518718279897,0.0773827340837568
1761507866750261500,2.152261474609375,-0.12542378447949887,0.004656009112298488,0.0011988543957471847
1761507866770416400,2.17241650390625,-0.04814882161915302,-0.00355272404551506,-0.009277823694050311
1761507866790572300,2.192572265625,-0.002232289096713066,-0.031446400882303716,0.029620135303214192
1761507866810727700,2.212727783203125,0.04916238257586956,-0.051306043541058895,0.09899075477980077
1761507866830883600,2.232883544921875,0.08874678946733475,-0.011237360263988375,0.07780169014818966
1761507866851038500,2.25303857421875,-0.10711831246018409,-0.029193799649924038,0.10269033995009959
1761507866871194600,2.273194580078125,-0.02941606409847736,-0.01915989689156413,0.0711793493989855
1761507866891348500,2.293348388671875,-0.18006664429306982,-0.021063976947218177,0.039404008823260665
1761507866911504400,2.31350439453125,-0.05886252333521843,-0.03010755349397659,0.043819706373661754
1761507866931659800,2.33365966796875,-0.08011457020044327,0.012416998502612114,0.08630283038131892
1761507866951815700,2.353815673828125,-0.07234510524272918,0.00044949733316898343,0.11587518102005123
1761507866971971600,2.3739716796875,-0.01753974834382534,0.03606419687606394,0.0647356531523168
1761507866992126700,2.394126708984375,-0.048478491964936254,0.03965126158259809,0.03323350349478423
1761507867012282600,2.41428271484375,0.02172375603020191,0.03735694010034203,0.009384645069390535
1761507867032437500,2.4344375,-0.06383329748511314,0.07672229741364717,0.009360314345732331
1761507867052593700,2.45459375,0.016556582525372503,-0.013070201714336871,-0.026153116779774426
1761507867072748500,2.47474853515625,-0.12836802123785018,0.01970299079231918,0.06473689526133239
1761507867092904400,2.494904541015625,-0.07181435936689376,0.09946860142461955,0.004627440604940056
1761507867113059600,2.5150595703125,-0.1430196469247341,0.017850933184847234,0.007523308176919818
1761507867133215700,2.5352158203125,-0.12126140410304069,0.1371084501195699,0.07010748238377272
1761507867153370600,2.55537060546875,-0.015466449201107024,-0.0358600526060909,0.0008339666061103343
1761507867173526500,2.575526611328125,0.058629883623123165,0.0175320764940232,-0.05213197297118604
1761507867193681400,2.595681396484375,0.03817921626865864,0.020119754899665714,-0.009423954166471958
1761507867213837600,2.615837646484375,-0.049397944897413254,0.0785040662638843,0.0433515043400228
1761507867233992700,2.63599267578125,-0.03477203817367554,0.04551934989839792,0.0357432212933898
1761507867254148600,2.656148681640625,-0.0030289924323558806,0.058695496205240484,-0.013809037382900714
1761507867274303700,2.6763037109375,-0.03216156341433525,0.024249840441718695,-0.042329467815905804
1761507867294459600,2.696459716796875,-0.017658406287431715,-0.023757746075838804,-0.04805727087818086
1761507867314614500,2.716614501953125,-0.015676877081394196,-0.020383812663331627,0.013505159065499902
1761507867334770700,2.736770751953125,-0.028123686200380325,0.02768573317453265,0.07354534787796438
1761507867354926600,2.756926513671875,-0.15737024383842943,0.06332286374494434,0.07969787915833294
1761507867375081500,2.77708154296875,-0.21665420745611189,0.054411243014782666,0.03548369357436895
1761507867395237600,2.797237548828125,-0.220471719917655,-0.005401566782593727,-0.03670410221479833
1761507867415392500,2.817392578125,-0.03781973530650139,0.020715601900964973,-0.048458399024978276
1761507867435548400,2.83754833984375,0.016717910566926,-0.0027049481097608805,0.005564794520288706
1761507867455703600,2.85770361328125,0.023774843341112135,0.042049920222163195,0.041891880116239184
1761507867475859700,2.877859619140625,0.00015665186643600462,0.028706965981051324,0.04409903477169573
1761507867496014600,2.8980146484375,-0.0677607000619173,0.008128507528454065,0.0560802722055465
1761507867516170500,2.91817041015625,-0.01683306137919426,0.02645246505253017,0.01742627803198993
1761507867536325600,2.93832568359375,0.07224222939014434,0.045687619137391444,-0.04372596367560327
1761507867556481500,2.9584814453125,0.022916765207052228,0.03654365095607936,-0.016094298775866628
1761507867576636700,2.97863671875,-0.02643207985162735,0.003945376624912024,0.0052468876775354145
1761507867596792600,2.99879248046875,-0.1106646067649126,0.02764642407745123,-0.010694631689414381
1761507867616947700,3.01894775390625,-0.14937339986562728,0.06635901657044888,-0.0026949381723999975
1761507867637103600,3.039103515625,-0.07183306406736374,0.04787321954816579,-0.03333068025894463
1761507867657259800,3.059259765625,0.12284487390220164,0.0684586922634393,-0.06988302597813308
1761507867677414700,3.07941455078125,0.09435936865210533,0.017417071812227368,-0.005858005313202738
1761507867697570600,3.099570556640625,-0.017740823873877525,0.0646964901857078,0.08811682100072503
1761507867717725400,3.119725341796875,-0.0673030194222927,0.05022044026143849,0.07667517033629119
1761507867737881600,3.139881591796875,-0.12290449513494968,0.0437011945605278,0.026733327820524573
1761507867758036700,3.16003662109375,-0.2620154441833496,0.05247267616763711,0.039041532186418766
1761507867778192600,3.180192626953125,-0.29495208362340924,-0.023815613742917775,0.013022563180327415
1761507867798347800,3.20034765625,-0.11745382851362228,0.00483640718050301,0.0004784311667084694
1761507867818503700,3.220503662109375,-0.10834639295041561,0.01460683669708669,0.05509703332185745
1761507867838658600,3.240658447265625,-0.05575637401342392,0.0020211305640637873,0.126337392193079
1761507867858814500,3.260814453125,0.0529337178081274,-0.03262662364281714,0.14504932612143456
1761507867878969600,3.280969482421875,-0.017733809611201284,0.01566496744789183,0.10956380591616034
1761507867899126000,3.3011259765625,0.054315527555346486,0.02500723468028009,0.023234964310750363
1761507867919281000,3.321281005859375,-0.013228314885497092,-0.026645795667544006,-0.004448796102404594
1761507867939437000,3.34143701171875,-0.0012543839752674102,0.027344080130010842,-0.0010687982752919196
1761507867959593000,3.361593017578125,-0.05154547832012176,0.014778028545528649,0.027932620607689022
1761507867979748000,3.381748046875,-0.0517617514193058,-0.005544043993204832,0.05338621081598103
1761507867999904300,3.401904296875,-0.04923953946530819,-0.03339008229598403,0.061332420580089086
1761507868020059100,3.42205908203125,-0.018254034093022346,0.006106134855374694,0.08767996395342051
1761507868040215000,3.442215087890625,-0.07639175028502941,-0.03347724912278354,0.11467844551615416
1761507868060370200,3.4623701171875,-0.04023205714523792,-0.0035853111408650873,0.07348463066667318
1761507868080526000,3.482526123046875,-0.020824761363863943,-0.008795520069822668,0.01432348971106112
1761507868100681000,3.502680908203125,-0.04704465976953506,-0.02984912175349891,-0.040260041130706664
1761507868120837000,3.522837158203125,0.024683190357685087,-0.021606778587028384,0.025076719719916582
1761507868140992300,3.5429921875,-0.07601824079751968,0.0005922668047249317,0.08918138149231672
1761507868161148200,3.563148193359375,0.011951719078421592,-0.03199848180711269,0.0975070920933038
1761507868181303000,3.583302978515625,-0.10091127451360225,0.03941365343444049,0.05455649670436978
1761507868201459200,3.603459228515625,-0.0276759424328804,-0.017982889001443982,0.01517411519102752
1761507868221614000,3.623614013671875,-0.046996144452691076,-0.00007226151861250401,0.0016246055271476507
1761507868241770000,3.64377001953125,0.005823007065057754,0.048761838950961825,0.009520546408742666
1761507868261926100,3.663926025390625,-0.07794716303348541,0.030937063120678066,0.0024979542955756184
1761507868282081000,3.6840810546875,-0.07386661572158336,0.0169413440592587,0.006443477050960064
1761507868302237000,3.70423681640625,-0.04895020112991333,-0.002521700497344136,0.05252637911625206
1761507868322392000,3.72439208984375,-0.09629238254129886,0.0009370616544038057,0.08674290229901671
1761507868342548200,3.74454833984375,0.023351064971089363,-0.07141995322182774,0.10228804275952279
1761507868362703000,3.764703125,-0.10227145695090294,-0.013097089721262454,0.09702559218667448
1761507868382859000,3.78485888671875,-0.10045008674263954,-0.038768560463935134,0.11067921981215477
1761507868403014100,3.80501416015625,-0.09816168354451656,0.003751461488008499,0.07718903814256191
1761507868423170000,3.825170166015625,-0.08606558755934238,-0.025597455658391118,0.05069214942641556
1761507868443325000,3.845324951171875,-0.025275311031937597,-0.001816840163618326,0.022293957133591173
1761507868463481000,3.865481201171875,-0.036197687062621116,-0.03611738836802542,0.0299219677940011
1761507868483637000,3.885636962890625,0.07914367934167385,0.007290814595296979,0.008732318640500307
1761507868503792000,3.905792236328125,0.044808863541483876,-0.0103997403960675,0.02676423441544175
1761507868523948300,3.9259482421875,0.02540799750089645,0.012132482472807168,0.019844956546276805
1761507868544103200,3.946103271484375,-0.04574760569632053,0.019690058245509862,0.007227393970265984
1761507868564259000,3.966259033203125,-0.04066051169037819,0.032290815817192196,-0.00838810831271112
1761507868584414000,3.9864140625,-0.07815992900133133,0.03909194719940424,-0.007486191036924719
1761507868604568000,4.006568115234375,-0.05745733271241188,0.009162307555601,-0.015472878941893576
1761507868624723200,4.02672314453125,-0.07964519912302494,0.017700126537308097,-0.033836364758759736
1761507868644879000,4.046879150390625,-0.06416472139656543,0.047815424946323036,0.020606661633774635
1761507868665034000,4.067033935546875,-0.12126783384382724,0.05175795202702284,0.018441154162958263
1761507868685190100,4.087190185546875,-0.05836626425087452,0.003947349386289716,-0.016213906567543745
1761507868705345300,4.10734521484375,-0.15166706376075745,0.061980947616696355,-0.04129099161364138
1761507868725501200,4.127501220703125,-0.08624620482325554,-0.033330461063236,-0.04362747173719108
1761507868745657000,4.147656982421875,-0.11680559373795986,0.005307531823590397,-0.010550108652189373
1761507868765812200,4.167812255859375,-0.0234627086520195,0.04822670916095376,0.041306773704662916
1761507868785968000,4.187968017578125,-0.06610591859221458,0.01809277911670506,0.0050915509853512045
1761507868806123000,4.208123046875,-0.023472645524144173,0.05110073022730648,-0.01927979694418609
1761507868826279200,4.228279052734375,-0.043107904842495916,0.024872137058526277,-0.05185936657488346
1761507868846434000,4.24843408203125,-0.033140637579560275,0.030789763604477046,-0.06422967639155686
1761507868866590000,4.26858984375,0.002830254989862442,0.06122976392321288,-0.055750163468346
1761507868886745300,4.288745361328125,-0.0631423926115036,0.0467762180916965,-0.03904854644909501
1761507868906901500,4.308901611328125,-0.010240238985419273,0.00551101850643754,0.000990983798727393
1761507868927056600,4.329056640625,-0.041191842088103295,-0.01355469729565084,0.05562668321914971
1761507868947212500,4.349212646484375,-0.07192366496026516,0.010820376960933208,0.0643906391069293
1761507868967367400,4.369367431640625,-0.0650204614430666,0.013045140338316559,0.0916851810067892
1761507868987523600,4.389523681640625,-0.04960545016825199,0.020441095808520913,0.06516542287170887
1761507869007679500,4.409679443359375,-0.03316284941136837,0.016664719074964522,0.03718677116520703
1761507869027834400,4.42983447265625,-0.005057867911458016,0.01581833137869835,0.03080876056589186
1761507869047990500,4.449990478515625,-0.10454641614556312,0.050195378885418175,0.03169372670687735
1761507869068145400,4.4701455078125,0.027650807991623876,-0.0025324410870671272,0.03742350253053009
1761507869088301300,4.49030126953125,-0.07338029350936412,0.04116816895157099,0.04478431362211704
1761507869108456700,4.510456787109375,0.0963514192521572,0.033995062451809645,0.025253756787255405
1761507869128612600,4.530612548828125,-0.03909633111357689,-0.045342458961531516,0.09329093570299446
1761507869148767500,4.550767578125,-0.08587035724818706,0.0897057706926018,0.07516228155530989
1761507869168923600,4.570923583984375,0.06313947000205516,-0.061805152658373115,0.03138838708475232
1761507869189078500,4.59107861328125,-0.12355799060761928,-0.07857406276017427,0.08770546372085809
1761507869209234400,4.611234375,-0.0884480987817049,0.06933890916407108,0.052287894185259934
1761507869229390600,4.631390625,-0.035001170754432674,-0.02218085214793682,-0.007073299387097358
1761507869249545500,4.65154541015625,-0.15093407331109046,0.012128829210996627,0.007468070858344435
1761507869269701400,4.671701416015625,-0.09826046774387359,0.0394508436396718,0.037687487228959794
1761507869289856500,4.6918564453125,-0.072300681579113,0.024679317900165913,-0.027556846097856757
1761507869310012700,4.7120126953125,-0.07324059277772903,0.03558065114282071,-0.006539338640868663
1761507869330167600,4.73216748046875,-0.07639993359148502,0.027656945471465588,0.024041969844698904
1761507869350323500,4.752323486328125,0.041220483660697936,-0.002977700636535883,0.029921529402583837
1761507869370478300,4.772478271484375,-0.02092822173833847,0.01937463562078774,0.06437193440645933
1761507869390634500,4.792634521484375,-0.02920563621819019,0.029682825275883076,0.076433543600142
1761507869410790400,4.812790283203125,-0.06505670180022716,-0.027989684557169676,0.055842006470263
1761507869430945300,4.8329453125,-0.026592238849401473,-0.032527547182515264,0.07125372980944812
1761507869451101400,4.853101318359375,-0.08266367016136646,-0.028286402481421828,0.0803551740232855
1761507869471256600,4.873256591796875,-0.10626198789179324,0.018804434517398477,0.06242306536100804
1761507869491412500,4.89341259765625,-0.12747545631229876,0.003252572055160999,0.04506042714975774
1761507869511567600,4.913567626953125,-0.16337386816740035,0.06126943834647536,-0.006309037016332149
1761507869531723500,4.9337236328125,-0.0738256991893053,0.06585092091783881,-0.05529284815490246
1761507869551878400,4.95387841796875,-0.1067518172353506,0.03853307120762765,-0.055184492409601806
1761507869572034600,4.97403466796875,0.05202361722588539,0.019733824322000146,0.03500321658104658
1761507869592189400,4.994189453125,0.0374573317348957,-0.006303849384561181,0.08592274502255022
1761507869612345300,5.014345458984375,0.07606383350491523,0.015438392150402068,0.10067680817060172
1761507869632501500,5.03450146484375,0.03621346915364265,-0.005269757096469402,0.08026654589176177
1761507869652656600,5.05465673828125,0.01291910280585289,0.02420037527680397,0.042137671570852395
1761507869672812500,5.0748125,-0.055337856340408324,-0.04523381095528602,-0.012233750890195369
1761507869692967400,5.094967529296875,-0.06913198841512203,-0.002374766307324171,-0.0034616847611963746
1761507869713123600,5.11512353515625,-0.1453945593625307,-0.03125723498575389,0.009182181299850344
1761507869733278500,5.135278564453125,-0.19506781406998633,0.04371573454253375,0.0018894670084118842
1761507869753434400,5.155434326171875,-0.0802308900564909,-0.053981765556335444,-0.014239099363237619
1761507869773589500,5.175589599609375,-0.1288116733521223,0.015190408738702534,0.006400806953012943
1761507869793745400,5.195745361328125,-0.001980944684147835,0.04380867352299392,0.012552899841964244
1761507869813901300,5.2159013671875,0.007733809122443198,-0.0780679398689419,-0.017838731290400027
1761507869834056700,5.236056640625,0.04270984543561935,0.06675977939106524,-0.005650280846655369
1761507869854212600,5.256212646484375,-0.06672142014205455,-0.02227788278162479,0.0521897675730288
1761507869874367500,5.276367431640625,-0.016494623205065725,0.0047451487004756925,0.040445553765445945
1761507869894523000,5.29652294921875,-0.09234978239536284,-0.00002988368161022663,0.002045534352958202
1761507869914678000,5.316677978515625,-0.0754296272546053,0.05359130493402481,-0.0728217828437686
1761507869934834000,5.336833984375,-0.0836596954613924,-0.05103665201514959,-0.05649462516009807
1761507869954989000,5.356989013671875,-0.040135611033439635,-0.00913834215812385,0.05039528537169099
1761507869975145200,5.377145263671875,-0.07432078922986984,-0.0037883594322949644,0.12104936878755689
1761507869995300000,5.397300048828125,-0.0013169278174638747,0.038431072137877345,0.06705182114019989
1761507870015456000,5.4174560546875,-0.09247720816731453,0.014901801055669784,0.013825477061048148
1761507870035612200,5.437612060546875,-0.05281330629885196,0.02201572471410036,-0.011586612093076109
1761507870055767000,5.45776708984375,-0.09509469718933104,0.01280994334295392,0.0075813219744712106
1761507870075923000,5.4779228515625,-0.020259528696537018,0.01467946354188025,-0.010391118698194623
1761507870096077800,5.498077880859375,-0.03529986144006252,-0.009043941872939467,0.015037556264549492
1761507870116234000,5.51823388671875,-0.012702245184779167,0.12718999043442308,0.20942359861545262
1761507870136389000,5.53838916015625,-0.0631160891264677,-0.011212371953204273,-0.03302899389863014
1761507870156545000,5.558544921875,-0.07527765156328678,0.04675729419551789,0.04553498585894704
1761507870176700200,5.5787001953125,-0.08731821796894072,0.016006474361941216,-0.0027227029621601103
1761507870196856000,5.59885595703125,-0.12728490217626093,0.043803778152167794,0.02791369671151042
1761507870217012000,5.619011962890625,-0.030817163068056104,0.001960559483245015,0.03907733415216207
1761507870237167000,5.6391669921875,-0.08200199138224125,-0.007039250987023115,0.03384652082659304
1761507870257323000,5.659322998046875,-0.028155834904313087,0.04663206038065255,0.042337504991889
1761507870277478000,5.679477783203125,-0.07907470575869083,0.01730360150039196,0.0459486081611365
1761507870297634000,5.699634033203125,-0.009365794238448142,0.010120777324214576,0.05032550807110965
1761507870317789200,5.7197890625,-0.014764438411593436,0.062373600196093316,0.04513517288640141
1761507870337945000,5.739945068359375,-0.06543196485340595,0.04210150427892804,0.0385428619492799
1761507870358100000,5.760099853515625,-0.01671148082613945,0.04067256745435297,0.025521687008440493
1761507870378256100,5.780256103515625,-0.011762918508052824,0.06238353706821799,0.057497153266146774
1761507870398412000,5.800412109375,-0.02658113293349743,0.02170841233059764,0.06915478476881981
1761507870418567000,5.82056689453125,-0.0012578911066055297,-0.007198679332435131,0.015264716083928941
1761507870438723000,5.84072314453125,-0.05221124875247478,0.04750898934565484,0.04119081917479634
1761507870458878000,5.8608779296875,-0.11322773525118827,0.02941043807528913,0.11972995675206184
1761507870479033900,5.881033935546875,-0.11447510496377944,-0.0029802579198032614,0.09568447977602482
1761507870499189000,5.90118896484375,-0.0669938073426485,0.021547668810933826,0.04089008266255259
1761507870519345200,5.92134521484375,-0.040758711367845535,0.02427519407868385,0.020455270464345813
1761507870539500000,5.9415,-0.04617255311012268,0.020986527796834707,0.03673018650412559
1761507870559656000,5.961656005859375,-0.031335049462318416,0.042517318538203834,0.07220518531538546
1761507870579812000,5.98181201171875,-0.05860533370375633,0.029812077678740022,0.07375234169214963
1761507870599967000,6.001967041015625,-0.025972645646333694,0.04434511848725378,0.04904445528462529
1761507870620123000,6.022122802734375,0.012346271353960037,0.02146810076870024,0.012902005540579556
1761507870640278000,6.042278076171875,0.0018055881172418593,0.018713833624497054,-0.0053755555585026735
1761507870660434000,6.062433837890625,-0.03207914582788944,0.02287088023871183,0.016770663667470216
1761507870680589000,6.082589111328125,-0.09544599484503269,0.02118548443503678,0.05354366640001535
1761507870700745200,6.1027451171875,-0.09394026645720005,0.022465295112505553,0.029381650372222064
1761507870720901000,6.122901123046875,-0.1394657538354397,0.04293203681893647,0.00839702227152884
1761507870741056000,6.143055908203125,-0.09325111514925956,-0.0009730828158557415,0.0002898497920483351
1761507870761212200,6.163212158203125,-0.07348843005895614,0.04178549713231623,-0.02309248710013926
1761507870781367000,6.183366943359375,-0.043241175833344456,-0.002409472294524312,-0.011834741635248064
1761507870801523000,6.20352294921875,-0.08850655097067356,0.06930157282836735,0.01045658514983952
1761507870821677800,6.223677734375,-0.04864683426916599,0.026623510770499705,-0.0011371142711490393
1761507870841834000,6.243833984375,-0.08972820172011851,0.08908807718567549,0.005667743438109755
1761507870861989000,6.263989013671875,-0.02288403198122978,0.09865231660567224,-0.010716405129805207
1761507870882145000,6.28414501953125,-0.06081424192488193,0.00982289035618305,-0.06556793925799428
1761507870902301000,6.304301025390625,0.014410218146443367,0.07472184431143104,-0.038133039039373394
1761507870922455800,6.324455810546875,-0.049499651706218714,0.034849560389295216,0.017526742731779812
1761507870942612000,6.344612060546875,0.021718495333194733,0.0499592320419848,0.01614164504893124
1761507870962766800,6.364766845703125,-0.04750350945293903,-0.012439429530128835,0.010710194584727287
1761507870982922800,6.3849228515625,0.008672551277279854,0.06614866175539791,0.007255085694789886
1761507871003077600,6.40507763671875,-0.09733867672383785,-0.0007429273217916488,-0.02100727832391858
1761507871023233800,6.42523388671875,-0.02822013231217861,0.013667217759415507,0.009680267015099525
1761507871043389000,6.445388916015625,-0.04421440477967262,0.00436148314513266,0.03777443486005068
1761507871063544800,6.465544921875,-0.06429740786552429,0.008425371583178638,0.07044891623258591
1761507871083701000,6.485700927734375,-0.07296937462091445,0.011122793973609804,0.0032243688739836216
1761507871103855900,6.50585595703125,-0.09614508302509785,-0.01856682636924088,-0.02686009600535035
1761507871124011800,6.52601171875,-0.056819034808874125,-0.004413213332369923,0.007438771698623895
1761507871144167000,6.5461669921875,-0.06629296559691429,-0.013810279491916298,0.050224678045138714
1761507871164322800,6.56632275390625,-0.018398410999774933,-0.007805120792984962,0.09271810425110161
1761507871184477700,6.586477783203125,-0.04095218811333179,-0.015955694022774695,0.07673924854844807
1761507871204633900,6.6066337890625,-0.056280105626583095,-0.015393018638715146,0.045275750400871034
1761507871224789000,6.6267890625,-0.08090425927340984,-0.018377222081273792,0.025455270708724855
1761507871244945000,6.64694482421875,-0.05958206978142261,-0.013210121641680598,0.011316709110513329
1761507871265101000,6.66710107421875,-0.09102993196845054,0.0022419337078928947,0.03960990665890276
1761507871285256000,6.687255859375,-0.07684650831520556,0.0023773966558277605,0.04532236602157354
1761507871305411800,6.707411865234375,-0.0645452451467514,0.01738879556581378,0.04606142088584601
1761507871325566700,6.727566650390625,-0.06701075847744942,-0.002942629323154688,0.04784165536612272
1761507871345723000,6.747722900390625,-0.029180501776933668,-0.024486571807041762,0.051150122326985
1761507871365877800,6.767877685546875,0.012242810979485512,-0.04018040002323687,0.02192716964781284
1761507871386033700,6.78803369140625,-0.000034486791491508485,-0.0227802062805742,0.052884691034629935
1761507871406189800,6.80818994140625,-0.046971010011434555,-0.004368789668753743,0.07201813831068575
1761507871426345000,6.828344970703125,-0.031195348730683324,-0.016612769692018626,0.07046418686695397
1761507871446500900,6.8485009765625,-0.06444996807873249,-0.012535510315746068,0.05110255685821175
1761507871466655700,6.86865576171875,-0.09403963517844677,0.005973009994998574,0.07033807626925409
1761507871486812000,6.88881201171875,-0.0497878209978342,-0.005864946510642767,0.020193696918711066
1761507871506966800,6.908966796875,-0.0014776713371276854,0.000049099838733673096,0.023886706217750905
1761507871527122700,6.929122802734375,0.013224223232269286,-0.04017623530477285,0.04346175978146493
1761507871547277800,6.94927783203125,-0.00009586158990859984,-0.04455700767226517,0.054558688661456106
1761507871567433700,6.969433837890625,-0.0179249482691288,-0.02660283330865204,0.0517300411067903
1761507871587589600,6.989589599609375,-0.09345335972309111,-0.018543299363180995,0.04370835495367646
1761507871607745000,7.0097451171875,-0.163422968006134,-0.0024359219100326297,0.044424905725196
1761507871627901000,7.02990087890625,-0.11851415122151374,-0.032435631115362046,0.012680033352971076
1761507871648055800,7.050055908203125,-0.0915109934836626,0.008183306455612183,0.018388547192886472
1761507871668212000,7.0702119140625,-0.06512392181754112,0.012250190568342804,0.03891542158871889
1761507871688366800,7.090366943359375,-0.05821370403766632,0.02499685941673815,0.008414996319636702
1761507871708522800,7.110522705078125,-0.04389876295924187,0.027107567960396407,-0.04733472875729203
1761507871728677600,7.130677734375,-0.0470563502073288,0.034582141624763606,-0.060432768326625225
1761507871748833800,7.150833740234375,0.04065466647148132,0.015808467571809887,-0.030993615613505242
1761507871768989700,7.17098974609375,0.051155017697811125,0.022559257006272673,0.021072671710327267
1761507871789144800,7.191144775390625,0.07034428681433201,0.015643047877028582,0.06529138733893633
1761507871809301000,7.211301025390625,-0.013496610432863234,0.03369951357133686,0.07548837170451879
1761507871829456000,7.231455810546875,-0.085066639649868,0.07686893934272229,0.04504449892826378
1761507871849611800,7.25161181640625,-0.09098317021727562,-0.00393083664290607,-0.0029302082329988478
1761507871869767000,7.271766845703125,-0.07571019776165484,-0.01772358047813177,0.010753668400272726
1761507871889926700,7.2919267578125,-0.0847919143617153,0.009951412106677889,0.03544562658630311
1761507871910082800,7.312082763671875,-0.08118424525856971,-0.008792743590846657,0.025548428884893653
1761507871930237700,7.33223779296875,-0.061136898007988924,-0.0024448358688503504,0.0031305531106889245
1761507871950393600,7.3523935546875,0.0006014730244874954,-0.009554667874053121,0.008544175657257437
1761507871970548700,7.372548828125,-0.04274550127089023,-0.02095043357014656,0.04809774901904165
1761507871990705000,7.392704833984375,-0.0670154346525669,-0.047761356671527026,0.052560281385853884
1761507872010859800,7.41285986328125,-0.08695581439733505,-0.01605469741784036,0.06156695998832583
1761507872031015700,7.433015625,-0.12126783384382724,-0.007689677719771862,0.051727995280176395
1761507872051170800,7.4531708984375,-0.09861936418414115,-0.016422873143106698,0.023522622145712373
1761507872071326700,7.47332666015625,-0.07136369298994541,0.02314655537493527,-0.01629340154454112
1761507872091482600,7.493482666015625,-0.07433364871144295,0.00911342691257596,-0.0215204885430634
1761507872111637800,7.5136376953125,-0.010767477729916573,0.036370924737676974,-0.03794708801321685
1761507872131793700,7.533793701171875,-0.027144612035155294,0.022013678887486458,-0.054106634045019746
1761507872151948800,7.55394873046875,0.011702128231525421,0.030175138837471603,-0.03108129389695823
1761507872172105000,7.57410498046875,0.009045476242899895,-0.0015296207200735806,-0.010147373070195316
1761507872192259800,7.594259765625,-0.001464227333664894,0.004068710743635893,0.007335968911275267
1761507872212415700,7.614415771484375,-0.04641337612867355,0.010262596947699784,0.019433745396882293
1761507872232571600,7.634571533203125,-0.06577566372454166,-0.014389906010776757,0.04917940677590668
1761507872252726800,7.654726806640625,-0.06855214270055293,-0.025310601541027426,0.04111337002441287
1761507872272882700,7.674882568359375,-0.06023381168842315,-0.010644435872137545,0.055517231495305894
1761507872293037600,7.69503759765625,-0.10204583150148391,-0.02476341598704457,0.07738704493269324
1761507872313193700,7.71519384765625,-0.13280454238057135,-0.0053159343257546425,0.02754274450726807
1761507872333348900,7.735348876953125,-0.100111648568511,0.02072941123060882,-0.0327512729357928
1761507872353504800,7.7555048828125,-0.0400935254573822,0.008813713313639164,-0.013389496796578169
1761507872373659600,7.77565966796875,0.04041384345293045,0.0015958178240805863,0.03293919672332704
1761507872393815800,7.79581591796875,0.034847441497445106,-0.015437003910914062,0.06783866066895425
1761507872413971700,7.8159716796875,0.03669394614696502,0.02622705879881978,0.08819975004382431
1761507872434126600,7.836126708984375,-0.0346907896310091,0.03567936227694154,0.03555610122345388
1761507872454282800,7.85628271484375,-0.02708206819295883,0.022769027299433944,-0.01148804708942771
1761507872474437600,7.876437744140625,-0.06648585782051086,0.04379289143197238,-0.023997107789665458
1761507872494593500,7.896593505859375,-0.10961188284158706,0.03827544318474829,0.024131109432876108
1761507872514749000,7.9167490234375,-0.1420440798908472,-0.004241656157746911,0.013914251323044299
1761507872534904800,7.93690478515625,-0.07738777558505534,-0.013969050250202416,-0.019917364195361734
1761507872555060700,7.957060791015625,-0.07765314852297306,0.010308628046512603,0.008605038999021052
1761507872575215900,7.9772158203125,-0.04272562752664089,-0.0073804656401276585,0.035980317984893914
1761507872595371800,7.997371826171875,-0.037142858958244325,-0.008717632528021931,0.06614661592878401
1761507872615526700,8.017526611328124,-0.03113631201982498,0.021105551066622135,0.062081996838375925
1761507872635682800,8.037682861328125,-0.03899228621721267,-0.007717588640004396,0.004631678388640284
1761507872655837700,8.057837646484375,-0.02698620660305023,-0.00010433715730905532,-0.030381182803586124
1761507872675993600,8.07799365234375,-0.03694178342819213,0.02826565195433795,-0.030762071879953144
1761507872696149800,8.098149658203125,-0.06448913104534149,0.045923035328462716,-0.00851071177907288
1761507872716305000,8.118304931640624,-0.028802316114306448,0.0066516399089246985,-0.04244388797581196
1761507872736460800,8.138460693359375,-0.06017828210890293,0.07294723585434258,-0.02445427697263658
1761507872756615700,8.15861572265625,-0.04279518563151359,0.05226860496290028,-0.005611629336699843
1761507872776771800,8.178771728515626,-0.021940029129385946,0.0167104579128325,-0.003520502276346087
1761507872796926700,8.1989267578125,0.01132043543756008,-0.015478139638900755,-0.007275105569511652
1761507872817082600,8.21908251953125,0.00322246917784214,-0.01681179939545691,0.019119711011648177
1761507872837238800,8.23923876953125,0.0014390928924083708,-0.042451705956086515,0.032730814669653774
1761507872857393700,8.2593935546875,-0.045265375137329096,-0.03869191503114998,0.03443586502186954
1761507872877549600,8.279549560546876,-0.057361471122503276,-0.040449937679618596,0.018920754373446105
1761507872897701400,8.299701416015624,-0.10914426532983779,-0.04242554860152304,0.03681771865710616
1761507872917857300,8.319857177734375,-0.08379238193035125,-0.060574295689165586,0.030059111242368815
1761507872938012400,8.340012451171875,-0.07979834385812282,-0.016827581486478446,0.03369476433098316
1761507872958168300,8.360168212890626,-0.08973112432956695,-0.001595160236954689,0.004976254042610526
1761507872978323200,8.3803232421875,-0.06283025792241097,-0.02266096381507814,-0.03249430250003934
1761507872998479400,8.400479248046874,-0.02448620648086071,-0.01965703275874257,0.008513780518993735
1761507873018635300,8.42063525390625,-0.004915244570374488,-0.03824190624132752,0.021832404036447404
1761507873038790100,8.4407900390625,-0.012257424026727675,0.03284969180896878,0.0005069266088306904
1761507873058946300,8.4609462890625,-0.0019084639698266981,-0.007691212089732289,-0.0508159950017929
1761507873079101400,8.481101318359375,-0.013108487898111343,-0.032755876045674086,-0.05598989050835371
1761507873099257300,8.50125732421875,-0.02524725398123264,0.014297697682678698,-0.003343830535188317
1761507873119412200,8.521412109375,-0.06606792466938495,-0.009440905301272869,0.007253843585774302
1761507873139568400,8.541568359375,-0.07550912223160267,-0.03393441830575466,0.00021064707599580286
1761507873159724300,8.561724365234374,-0.11783961296081542,0.002031067436188459,0.02105886238068342
1761507873179879200,8.581879150390625,-0.06640753188729286,-0.0077025372013449665,0.013436623873934149
1761507873200035300,8.602035400390625,-0.040029812571406365,-0.021273162718489766,0.01577230027988553
1761507873220190200,8.622190185546875,-0.014752747973799704,-0.012343056483566761,0.03935936596393585
1761507873240346000,8.64234619140625,-0.012146949389576911,-0.011941416880115865,0.03563318504765629
1761507873260501200,8.662501220703126,-0.014812953728437423,0.010652034656703472,0.038744595066457985
1761507873280657400,8.682657470703125,-0.045971477580070495,-0.0064284256123006344,0.005109232772514224
1761507873300813300,8.702813232421875,-0.058440498530864714,-0.005897752801701426,0.009119272131472825
1761507873320968200,8.72296826171875,-0.056416883748769756,0.012730302235484122,-0.0027345395304262635
1761507873341124400,8.743124267578125,-0.059899465167522425,0.034101153174787756,-0.00009549626372754574
1761507873361279200,8.763279296875,-0.06776712980270386,0.020021409091725943,-0.00688617931716144
1761507873381435100,8.78343505859375,-0.0743096833139658,0.005579845958948135,-0.013254837566241622
1761507873401590300,8.80359033203125,0.005770400094985962,-0.033424276826530694,-0.0036047464936971663
1761507873421746200,8.82374609375,-0.028320670077204704,-0.020494725691899657,0.03835566881410778
1761507873441902000,8.843902099609375,0.02433539983332157,-0.02074358588643372,0.04573496541045606
1761507873462057500,8.864057373046874,-0.05364215833842754,-0.013855214612185954,-0.005023088859021663
1761507873482213400,8.88421337890625,-0.17242460510730742,0.013681538545712827,0.01304974344819784
1761507873502368300,8.9043681640625,-0.09491583349108695,-0.0027880232833325863,0.028733050270378587
1761507873522524400,8.9245244140625,-0.1599859792947769,-0.020266689089685676,0.004177797141298651
1761507873542679300,8.94467919921875,-0.06440554441511631,0.017109467167779804,-0.027340499933436513
1761507873562835200,8.964835205078124,-0.05840308912992477,0.01819923516586423,-0.07028788045197724
1761507873582991400,8.984991455078125,-0.005233224478363991,-0.01570939111150801,-0.025434008724987505
1761507873603146200,9.005146240234374,0.016513327905535696,0.0020391046121716497,0.07571772348098456
1761507873623302100,9.02530224609375,0.0561579405516386,0.023095848101004957,0.09479301082901656
1761507873643457300,9.045457275390625,0.04218436025679111,-0.016378449479490517,0.03772036658525467
1761507873663613400,9.065613525390624,0.06210486625730991,-0.028984102421998975,-0.032643940103799104
1761507873683768300,9.085768310546875,-0.03929565307796001,-0.042105376736447216,-0.04009505982734263
1761507873703924200,9.10592431640625,-0.047124154746532435,-0.018022636489942668,-0.012196779880672692
1761507873724079400,9.126079345703126,-0.08102174817323685,-0.034500308560207485,0.020555223707482216
1761507873744235300,9.1462353515625,-0.0892278509825468,-0.03749437580965459,0.03253383079282939
1761507873764391200,9.16639111328125,-0.018974749583005903,-0.030161329507827756,0.037466099563241005
1761507873784546300,9.18654638671875,-0.057739072263240813,-0.010890884913876651,0.03520772617720067
1761507873804702200,9.2067021484375,-0.08469722181558609,-0.05027538531906903,0.018821312586963176
1761507873824857300,9.226857421875,-0.07031213811039924,-0.017146949633955955,0.009566066050902008
1761507873845013200,9.24701318359375,-0.08750468045175075,0.00623012656122446,0.017955781798809765
1761507873865169400,9.26716943359375,-0.0695604429602623,-0.012042393036559223,0.014445362525060772
1761507873885324300,9.28732421875,-0.042082653447985646,0.002426277298852801,0.014155366602540015
1761507873905479400,9.3074794921875,-0.08078618585169314,-0.0004684212293475866,0.00513641304038465
1761507873925634300,9.32763427734375,-0.017673603856563566,-0.00045431963875889773,0.007204378420859575
1761507873945790200,9.347790283203125,0.0035579847425222396,-0.02496054599434137,0.03354030442163348
1761507873965945300,9.3679453125,-0.03880290112495422,-0.011058642696216701,0.052357306159660215
1761507873986101500,9.3881015625,-0.03927577933371067,0.002581175599619746,0.03451682130359113
1761507874006257400,9.40825732421875,-0.044942719054222105,0.0035359921064227816,0.03303958835788071
1761507874026412300,9.428412353515625,-0.04523614904284477,-0.013834756346046924,0.01918298550620675
1761507874046568400,9.448568359375,-0.07060323001146317,-0.003871142344921827,0.019413652456924318
1761507874066723300,9.468723388671876,-0.07668985644876956,-0.01945924516431987,0.030300153456628322
1761507874086879200,9.488879150390625,-0.06255202550292015,-0.02175290905945003,0.039063086431100964
1761507874107034400,9.509034423828124,-0.05767009868025779,0.006449760661274194,0.04825410862453282
1761507874127190300,9.529190185546875,-0.05691548092067241,-0.009312383550778031,0.06883702405653894
1761507874147346200,9.54934619140625,-0.06319909123480319,-0.02653415198661387,0.03159866883456707
1761507874167501600,9.56950146484375,-0.06271627615392207,-0.030252661053091285,-0.0031090719312429427
1761507874187657500,9.589657470703125,-0.014198036700487136,-0.009295797742158173,0.0011981968086212872
1761507874207812400,9.609812255859374,-0.000398059406876564,-0.042056642223894596,0.05411028730683028
1761507874227968500,9.629968505859376,0.03202829242348671,-0.022192104194313285,0.10610146356783806
1761507874248123400,9.650123291015625,-0.022339257580041884,-0.023208514695242047,0.06420395742841065
1761507874268279300,9.670279296875,-0.04317103320658207,-0.003044993719086051,-0.025146423955261704
1761507874288435500,9.690435546875,-0.1051747771769762,0.008350260520353913,-0.03450688443146646
1761507874308590300,9.71059033203125,-0.08956278202533721,-0.014841668366268277,-0.020056845731288193
1761507874328746200,9.730746337890626,-0.022831425011157987,0.010552812065929174,0.014010624369606374
1761507874348901400,9.7509013671875,-0.05711480288505554,-0.005210574255138635,0.04461991684064269
1761507874369057500,9.7710576171875,-0.03585807984471321,0.01277531042098999,0.029397870854660866
1761507874389212400,9.79121240234375,-0.06129354987442493,0.0028507863212376833,-0.00018777765706181525
1761507874409368300,9.811368408203125,-0.026622633987665175,-0.006047098144516348,-0.004633724215254187
1761507874429524500,9.8315244140625,-0.059569210299849504,0.011219678476825356,-0.018824235196411607
1761507874449680400,9.851680419921875,-0.047319969579577445,0.023194120843708515,-0.032411446522176264
1761507874469835300,9.871835205078124,-0.07388941207528114,0.06791852097213268,-0.03674005031101405
1761507874489991400,9.891991455078125,-0.15439035124480724,0.06633833910860121,-0.011113076297193766
1761507874510147300,9.912147216796875,-0.09436346030533313,0.009639204352349042,-0.019816241908445952
1761507874530302200,9.93230224609375,0.027573066580295562,0.0828401957720518,-0.06764503779299556
1761507874550458400,9.952458251953125,-0.054962593287229536,0.06791223736181855,-0.059853945525363085
1761507874570613500,9.972613525390624,-0.02314239065647125,0.03767353176884353,-0.03397847664318979
1761507874590769400,9.992769287109375,-0.03739420337080955,0.0273877000760287,0.010782821429520844
1761507874610925300,10.01292529296875,0.010702595800161361,0.03146203684285283,-0.0076813482828438275
1761507874631080400,10.03308056640625,-0.03196107240617275,0.007146072362363338,0.001382540399581194
1761507874651236400,10.053236328125,-0.025953940945863722,0.0009100275170058011,0.008946399782598018
1761507874671391200,10.07339111328125,-0.05879997949302196,0.01571289824284613,0.0034316549491137265
1761507874691547400,10.09354736328125,-0.02381517535150051,0.004622252973169088,0.009005509558692573
1761507874711702300,10.113702392578125,-0.04306815735399723,-0.0020762217521667478,-0.00021218144595623015
1761507874731858200,10.133858154296876,-0.04184650660455227,-0.0038032647404819724,0.01487564370110631
1761507874752014300,10.154014404296875,-0.0662923810750246,0.01551942149735987,0.03051474605537951
1761507874772169500,10.17416943359375,-0.08028817320168018,-0.031150194414705037,0.014570231013745069
1761507874792325400,10.194325439453126,-0.050880292409658426,-0.02461260933950543,-0.0015865385390818117
1761507874812480500,10.21448046875,-0.025361235749721527,-0.012127587101981044,-0.003565729657560587
1761507874832636400,10.234636474609376,-0.04011632181107998,-0.02376015722863376,-0.004456175691261887
1761507874852791300,10.254791259765625,-0.028343466430902478,-0.04023147262334823,0.007910700059309602
1761507874872947500,10.274947509765624,0.013475567644834518,-0.018344561920687556,0.07882321521565318
1761507874893103600,10.295103515625,-0.06614098990559578,-0.031092399812862274,0.015305705681443214
1761507874913258800,10.3152587890625,-0.03316343393325805,-0.02580905258245766,-0.04278875589072704
1761507874933414700,10.33541455078125,-0.08416413785219191,-0.031131416648998853,-0.024953677862137556
1761507874953569500,10.355569580078125,-0.10147007744014262,-0.03533741697147488,-0.0005609218183904885
1761507874973725700,10.3757255859375,-0.045208091992139814,-0.02507562374137342,0.01190985269807279
1761507874993881600,10.395881591796876,-0.058251697960495945,-0.010003069228678942,0.020977467707544564
1761507875014036700,10.41603662109375,-0.025562895801663398,-0.015233298032358287,0.022475962636992333
1761507875034193000,10.43619287109375,-0.051581134155392644,-0.004506371508538723,0.03052490212321281
1761507875054347800,10.45634765625,-0.03277648044228554,-0.04239814913794398,-0.031830285633355375
1761507875074503700,10.476503662109375,-0.05835457381308078,0.03249313345625996,-0.05700089418180287
1761507875094658600,10.496658447265625,-0.12598960166871548,0.03732303783074021,-0.015878464068099854
1761507875114814700,10.516814697265625,-0.12791443225145338,0.034156098232418296,0.006824366127327084
1761507875134970600,10.536970703125,-0.03315875775814056,-0.0012129559863358736,0.03159808431267738
1761507875155125500,10.55712548828125,-0.014298574465513228,0.022692966388538478,0.0673934011194855
1761507875175281700,10.57728173828125,-0.020487492233514783,-0.02001929019987583,0.03354848772808909
1761507875195436800,10.597436767578126,0.046124622315168375,-0.046338776522502304,-0.03032404578886926
1761507875215592700,10.6175927734375,-0.03294073109328747,-0.0008726181160658597,-0.09356960651390255
1761507875235748900,10.637748779296874,-0.12147592363655567,0.04363989282734692,-0.1283957129623741
1761507875255903700,10.65790380859375,-0.3066583035081625,0.0176623518101871,-0.011665522548183798
1761507875276059600,10.6780595703125,-0.30246377442777156,-0.0490843489035964,-0.02893032640814781
1761507875296214800,10.69821484375,-0.33577041622400283,-0.07948752434328198,-0.014462752051278949
1761507875316370700,10.71837060546875,-0.3235106541097164,0.09726897248849273,0.03349595382325351
1761507875336525600,10.738525634765624,0.6067191084474325,0.23858188856057821,-0.0328707345969975
