time,seconds_elapsed,z,y,x
1761507864674243300,0.076243408203125,0.028633087873458862,0.003267989493906498,-0.07062152773141861
1761507864694399200,0.096399169921875,0.05836247280240059,-0.03832102566957474,-0.0266430526971817
1761507864714554400,0.116554443359375,0.13164710998535156,-0.041939910501241684,0.028906187042593956
1761507864734710300,0.136710205078125,0.12998954951763153,-0.003195018507540226,0.08480601012706757
1761507864754865200,0.156865234375,0.12393433600664139,0.06196092069149017,0.1549200415611267
1761507864775021300,0.177021240234375,0.12138516455888748,0.12292656302452087,0.2244388312101364
1761507864795176200,0.19717626953125,0.11879334598779678,0.1463155746459961,0.25406354665756226
1761507864815332000,0.21733203125,0.12231169641017914,0.15897232294082642,0.24449093639850616
1761507864835487200,0.2374873046875,0.1458076685667038,0.23065437376499176,0.2668420672416687
1761507864855643400,0.257643310546875,0.18898257613182068,0.334625780582428,0.3021956980228424
1761507864875798300,0.27779833984375,0.19728173315525055,0.3617814779281616,0.2993079423904419
1761507864895954400,0.297954345703125,0.2091570645570755,0.3384014368057251,0.2860044836997986
1761507864916109600,0.318109619140625,0.24360370635986328,0.20670169591903687,0.3403266668319702
1761507864936265500,0.338265380859375,0.2850339412689209,0.047566577792167664,0.4567541480064392
1761507864956420400,0.35842041015625,0.25664255023002625,-0.12679287791252136,0.5217490792274475
1761507864976576500,0.378576416015625,0.22095993161201477,-0.26678666472435,0.48100942373275757
1761507864996731400,0.3987314453125,0.1910443902015686,-0.24925671517848969,0.3823138475418091
1761507865016887600,0.418887451171875,0.14806494116783142,-0.11323964595794678,0.2880321443080902
1761507865037042400,0.43904248046875,0.120943583548069,-0.009658846072852612,0.23580598831176758
1761507865057198600,0.459198486328125,0.10554248094558716,-0.041116535663604736,0.1585647314786911
1761507865077353500,0.479353515625,0.11875394731760025,-0.025646571069955826,0.07757577300071716
1761507865097509400,0.49950927734375,0.13538402318954468,-0.04616544395685196,0.01901254989206791
1761507865117664500,0.51966455078125,0.15873168408870697,-0.08702552318572998,-0.0724882185459137
1761507865137820400,0.5398203125,0.16256320476531982,-0.15417639911174774,-0.17270255088806152
1761507865157975600,0.5599755859375,0.13015572726726532,-0.1830752193927765,-0.18716448545455933
1761507865178131500,0.58013134765625,0.1111186072230339,-0.12837816774845123,-0.1463562548160553
1761507865198286600,0.60028662109375,0.10044258087873459,-0.19679176807403564,-0.18827857077121735
1761507865218442500,0.6204423828125,0.09050977975130081,-0.20064117014408112,-0.14845091104507446
1761507865238597400,0.640597412109375,0.05425295978784561,-0.07784493267536163,-0.0970912054181099
1761507865258753500,0.66075341796875,0.02031710557639599,-0.07804588973522186,-0.0750030130147934
1761507865278908400,0.680908447265625,0.044907163828611374,-0.022874724119901657,-0.08661060035228729
1761507865299064300,0.701064208984375,0.041119083762168884,-0.0427403524518013,-0.1626470685005188
1761507865319219500,0.721219482421875,0.04598494991660118,-0.0277840755879879,-0.21037732064723969
1761507865339375600,0.741375732421875,0.06053353473544121,-0.015789542347192764,-0.24490976333618164
1761507865359530500,0.761530517578125,0.09471867978572845,-0.018009979277849197,-0.27226874232292175
1761507865379686400,0.781686279296875,0.105013906955719,-0.0561831071972847,-0.30851662158966064
1761507865399841500,0.801841552734375,0.0927436351776123,-0.06676797568798065,-0.27473053336143494
1761507865419997400,0.82199755859375,0.06056652218103409,-0.008424924686551094,-0.17993631958961487
1761507865440152300,0.84215234375,0.04668695479631424,0.0827171728014946,-0.05446973070502281
1761507865460308500,0.86230859375,0.04578648507595062,0.07386589050292969,0.004391649272292852
1761507865480463600,0.882463623046875,0.07025989145040512,0.0363740548491478,0.003582409815862775
1761507865500619500,0.90261962890625,0.09626857936382294,0.023697029799222946,-0.005640848074108362
1761507865520774400,0.9227744140625,0.12904676795005798,0.01748824492096901,-0.0027734905015677214
1761507865540930600,0.9429306640625,0.129968523979187,-0.009434391744434834,0.02579536661505699
1761507865561085400,0.96308544921875,0.12557806074619293,0.01630333438515663,0.12044180929660797
1761507865581241300,0.983241455078125,0.10971808433532715,0.05736265331506729,0.18976610898971558
1761507865601396500,1.003396484375,0.08695050328969955,0.0572148822247982,0.20324793457984924
1761507865621552400,1.023552490234375,0.04922176152467728,0.0033438969403505325,0.17089754343032837
1761507865641708300,1.043708251953125,0.021619902923703194,-0.05420035123825073,0.11801348626613617
1761507865661863700,1.06386376953125,-0.004606596194207668,-0.099879190325737,0.06850416213274002
1761507865682019600,1.08401953125,-0.03092047944664955,-0.10274764895439148,0.040193863213062286
1761507865702174500,1.104174560546875,-0.03719145804643631,-0.09282700717449188,0.03860368952155113
1761507865722330600,1.12433056640625,-0.033555421978235245,-0.06853786110877991,0.019056418910622597
1761507865742485500,1.144485595703125,-0.047337792813777924,-0.0018028207123279572,0.008302174508571625
1761507865762641400,1.164641357421875,-0.026914050802588463,0.02305108681321144,0.00367525196634233
1761507865782796300,1.18479638671875,-0.015253935009241104,0.07519368827342987,-0.010438418947160244
1761507865802952400,1.204952392578125,0.004925654269754887,0.10346438735723495,-0.04796197637915611
1761507865823107600,1.225107666015625,-0.00018073583487421274,0.041680410504341125,-0.10815039277076721
1761507865843263500,1.245263427734375,-0.031323183327913284,-0.0032758209854364395,-0.10901106148958206
1761507865863418600,1.265418701171875,-0.06288402527570724,-0.010429802350699902,-0.06702908128499985
1761507865883574500,1.285574462890625,-0.08586256206035614,0.013912505470216274,0.0035573376808315516
1761507865903729400,1.3057294921875,-0.09188900887966156,0.02130553498864174,0.05220964550971985
1761507865923885600,1.325885498046875,-0.09795862436294556,0.019266778603196144,0.08757276833057404
1761507865944040400,1.34604052734375,-0.10199017077684402,0.039854004979133606,0.13490980863571167
1761507865964196400,1.3661962890625,-0.09840423613786697,0.05839105695486069,0.15630702674388885
1761507865984351500,1.3863515625,-0.08980616182088852,0.11721446365118027,0.15512974560260773
1761507866004507600,1.406507568359375,-0.0694546028971672,0.1469801515340805,0.11911831051111221
1761507866024662500,1.42666259765625,-0.05868714302778244,0.08234147727489471,0.05219762772321701
1761507866044818400,1.446818359375,-0.04404456168413162,0.05950405076146126,0.040799397975206375
1761507866064973600,1.4669736328125,-0.0328635536134243,0.046607811003923416,0.05432005226612091
1761507866085129500,1.48712939453125,-0.022036727517843246,0.07164638489484787,0.06973354518413544
1761507866105284400,1.507284423828125,-0.017428124323487282,0.1055864691734314,0.09192725270986557
1761507866125440500,1.5274404296875,-0.007588541600853205,0.1387784630060196,0.12086167931556702
1761507866145595600,1.547595703125,0.0018725879490375519,0.14983730018138885,0.14709101617336273
1761507866165751600,1.56775146484375,0.010269833728671074,0.19181367754936218,0.18998122215270996
1761507866185906400,1.587906494140625,0.01653490960597992,0.20470468699932098,0.22656969726085663
1761507866206062600,1.6080625,0.02407110668718815,0.17960385978221893,0.2497723400592804
1761507866226217500,1.628217529296875,0.025857573375105858,0.17128431797027588,0.2887877821922302
1761507866246373400,1.648373291015625,0.02936071902513504,0.1529306322336197,0.2724365293979645
1761507866266528500,1.668528564453125,0.045083463191986084,0.1218227669596672,0.2170555144548416
1761507866286684400,1.688684326171875,0.057976603507995605,0.09741643816232681,0.16029924154281616
1761507866306839600,1.708839599609375,0.06335783004760742,0.07812001556158066,0.12071715295314789
1761507866326995700,1.72899560546875,0.05086970329284668,0.09399297088384628,0.11721957474946976
1761507866347150600,1.749150634765625,0.04853440076112747,0.10089096426963806,0.09085677564144135
1761507866367306500,1.769306396484375,0.0648563802242279,0.06165296956896782,0.02986903488636017
1761507866387461400,1.78946142578125,0.060126326978206635,0.06762538105249405,-0.0003918129950761795
1761507866407617500,1.809617431640625,0.045227281749248505,0.07093843072652817,-0.014600127935409546
1761507866427772400,1.8297724609375,0.03466011956334114,0.05046074092388153,-0.019129564985632896
1761507866447928300,1.84992822265625,0.02050272561609745,0.061289671808481216,0.00026885373517870903
1761507866468084500,1.87008447265625,0.01220648642629385,0.05071856454014778,0.02043265663087368
1761507866488239600,1.890239501953125,0.010651417076587677,0.03275356441736221,0.03546394407749176
1761507866508395500,1.9103955078125,0.000281875254586339,0.033753685653209686,0.04581797868013382
1761507866528550700,1.930550537109375,-0.0040555777959525585,0.037940531969070435,0.04212014377117157
1761507866548706600,1.95070654296875,-0.01709309034049511,0.01621408760547638,0.021253542974591255
1761507866568861400,1.970861328125,-0.018069911748170853,0.008983314968645573,-0.00018726731650531292
1761507866589017300,1.991017333984375,-0.027453873306512833,0.0037503568455576897,-0.0005160309374332428
1761507866609172500,2.01117236328125,-0.03733950853347778,0.03416569530963898,0.031292613595724106
1761507866629328400,2.031328369140625,-0.047213416546583176,0.029414288699626923,0.030883299186825752
1761507866649483500,2.0514833984375,-0.045985471457242966,0.014848883263766766,0.0067503200843930244
1761507866669639700,2.0716396484375,-0.049586329609155655,-0.018410762771964073,-0.019843988120555878
1761507866689794600,2.091794677734375,-0.05770603194832802,-0.029088187962770462,-0.023080646991729736
1761507866709950500,2.111950439453125,-0.05372406914830208,-0.03808891028165817,-0.03706918656826019
1761507866730105300,2.132105224609375,-0.05405484139919281,-0.04336744546890259,-0.03172816336154938
1761507866750261500,2.152261474609375,-0.06501373648643494,-0.02538704313337803,-0.0017538373358547688
1761507866770416400,2.17241650390625,-0.07410869747400284,-0.007397922687232494,0.04059601575136185
1761507866790572300,2.192572265625,-0.06575728207826614,-0.0001679854467511177,0.0311797596514225
1761507866810727700,2.212727783203125,-0.062041617929935455,-0.024277102202177048,-0.015583882108330727
1761507866830883600,2.232883544921875,-0.04638199508190155,-0.010395272634923458,-0.036334700882434845
1761507866851038500,2.25303857421875,-0.04331376403570175,-0.014866570942103863,-0.048435889184474945
1761507866871194600,2.273194580078125,-0.03307526186108589,0.011703915894031525,-0.016000017523765564
1761507866891348500,2.293348388671875,-0.029272522777318954,0.002162143588066101,-0.0012224868405610323
1761507866911504400,2.31350439453125,-0.020789019763469696,-0.002612982876598835,0.0209759920835495
1761507866931659800,2.33365966796875,-0.006760529242455959,-0.0004102252423763275,0.024403013288974762
1761507866951815700,2.353815673828125,0.0017761958297342062,-0.013585194945335388,0.01687430962920189
1761507866971971600,2.3739716796875,0.006317916326224804,0.008606228046119213,0.016458595171570778
1761507866992126700,2.394126708984375,0.005328070372343063,0.0009420327842235565,0.005882244557142258
1761507867012282600,2.41428271484375,0.002170872176066041,0.005912418477237225,-0.005475437268614769
1761507867032437500,2.4344375,-0.0039138710126280785,0.0075969817116856575,-0.0029072200413793325
1761507867052593700,2.45459375,-0.009439434856176376,0.026212964206933975,0.0020146192982792854
1761507867072748500,2.47474853515625,-0.009136885404586792,-0.03781929239630699,-0.027972159907221794
1761507867092904400,2.494904541015625,-0.016960201784968376,-0.005721532739698887,0.034059371799230576
1761507867113059600,2.5150595703125,-0.03169067203998566,0.001653175801038742,0.06877069175243378
1761507867133215700,2.5352158203125,-0.01682516373693943,-0.026849504560232162,0.05877922847867012
1761507867153370600,2.55537060546875,-0.021715817973017693,-0.037742115557193756,0.028489720076322556
1761507867173526500,2.575526611328125,-0.021566107869148254,-0.021036939695477486,0.010316222906112671
1761507867193681400,2.595681396484375,-0.03379938006401062,-0.02610619366168976,-0.022420048713684082
1761507867213837600,2.615837646484375,-0.03709449991583824,-0.03750045970082283,-0.04776863008737564
1761507867233992700,2.63599267578125,-0.04398220032453537,-0.03079986199736595,-0.05898803472518921
1761507867254148600,2.656148681640625,-0.047092504799366,-0.001622496172785759,-0.05179055780172348
1761507867274303700,2.6763037109375,-0.04882625490427017,-0.003972368314862251,-0.05054100230336189
1761507867294459600,2.696459716796875,-0.046724993735551834,-0.00816820003092289,-0.05626250430941582
1761507867314614500,2.716614501953125,-0.04376997426152229,-0.016166795045137405,-0.0641162246465683
1761507867334770700,2.736770751953125,-0.031554289162158966,-0.0167173333466053,-0.06542675942182541
1761507867354926600,2.756926513671875,-0.02374963089823723,-0.02435607835650444,-0.05772436037659645
1761507867375081500,2.77708154296875,-0.019478488713502884,-0.034488387405872345,-0.015332113020122051
1761507867395237600,2.797237548828125,-0.02198028564453125,-0.042584531009197235,0.02628527395427227
1761507867415392500,2.817392578125,-0.011027446016669273,-0.03207414597272873,0.049456968903541565
1761507867435548400,2.83754833984375,-0.012735873460769653,-0.046044621616601944,0.04158874228596687
1761507867455703600,2.85770361328125,-0.00014230411034077406,-0.04335004836320877,0.01025813352316618
1761507867475859700,2.877859619140625,0.009969715029001236,-0.039860695600509644,-0.010276136919856071
1761507867496014600,2.8980146484375,0.021057788282632828,-0.0536213293671608,-0.03387684002518654
1761507867516170500,2.91817041015625,0.024268466979265213,-0.052002064883708954,-0.05233442038297653
1761507867536325600,2.93832568359375,0.031048353761434555,-0.018954070284962654,-0.04679488018155098
1761507867556481500,2.9584814453125,0.02420375682413578,-0.016263319179415703,-0.06945405155420303
1761507867576636700,2.97863671875,0.02236112765967846,-0.04885030537843704,-0.11469275504350662
1761507867596792600,2.99879248046875,0.011376108974218369,-0.08094697445631027,-0.12963803112506866
1761507867616947700,3.01894775390625,-0.005813274532556534,-0.1012461930513382,-0.12101143598556519
1761507867637103600,3.039103515625,-0.010076991282403469,-0.0734468623995781,-0.08674857020378113
1761507867657259800,3.059259765625,-0.027061261236667633,0.011361466720700264,-0.050492916256189346
1761507867677414700,3.07941455078125,-0.037624191492795944,0.02629292756319046,-0.07823342829942703
1761507867697570600,3.099570556640625,-0.04031582549214363,0.002815929241478443,-0.13105900585651398
1761507867717725400,3.119725341796875,-0.040646057575941086,-0.01203678734600544,-0.14589574933052063
1761507867737881600,3.139881591796875,-0.03987719863653183,-0.015065946616232395,-0.12340166419744492
1761507867758036700,3.16003662109375,-0.03065813146531582,-0.05873391777276993,-0.08066729456186295
1761507867778192600,3.180192626953125,-0.0300259068608284,-0.07421144098043442,-0.011438855901360512
1761507867798347800,3.20034765625,-0.028714817017316818,-0.026019234210252762,0.07296136021614075
1761507867818503700,3.220503662109375,-0.011421358212828636,-0.027057182043790817,0.08941557258367538
1761507867838658600,3.240658447265625,0.01966305635869503,-0.044081930071115494,0.057812921702861786
1761507867858814500,3.260814453125,0.042711153626441956,-0.05046335235238075,0.01429468672722578
1761507867878969600,3.280969482421875,0.04777327924966812,-0.06666821986436844,-0.02597701922059059
1761507867899126000,3.3011259765625,0.04626407101750374,-0.03878340870141983,-0.03216703608632088
1761507867919281000,3.321281005859375,0.029865099117159843,-0.03611201047897339,-0.02754969894886017
1761507867939437000,3.34143701171875,0.024495674297213554,-0.02228521555662155,-0.011103713884949684
1761507867959593000,3.361593017578125,0.016894731670618057,-0.0043631549924612045,-0.004545813426375389
1761507867979748000,3.381748046875,0.011820916086435318,-0.0030692024156451225,0.004374880343675613
1761507867999904300,3.401904296875,0.007132369559258223,0.008181145414710045,0.016521772369742393
1761507868020059100,3.42205908203125,0.009813383221626282,0.026053685694932938,0.02350715920329094
1761507868040215000,3.442215087890625,0.01520683616399765,-0.002132049761712551,-0.006206708960235119
1761507868060370200,3.4623701171875,0.01785852760076523,-0.003541531041264534,-0.014396828599274158
1761507868080526000,3.482526123046875,0.01225445605814457,0.01812794804573059,0.0034712175838649273
1761507868100681000,3.502680908203125,-0.005449163727462292,0.01654130220413208,0.021396605297923088
1761507868120837000,3.522837158203125,-0.005677931476384401,0.031526416540145874,0.023108769208192825
1761507868140992300,3.5429921875,-0.00029757595621049404,0.022514384239912033,0.004762517288327217
1761507868161148200,3.563148193359375,0.001382083399221301,0.018177080899477005,-0.011172274127602577
1761507868181303000,3.583302978515625,0.007284190505743027,0.013093705289065838,-0.017727993428707123
1761507868201459200,3.603459228515625,0.0011192404199391603,0.03821580111980438,0.008349396288394928
1761507868221614000,3.623614013671875,-0.003365796059370041,0.04045753926038742,0.01553946454077959
1761507868241770000,3.64377001953125,-0.0032123769633471966,0.07246346771717072,0.04300044849514961
1761507868261926100,3.663926025390625,-0.00544333178550005,0.09626922011375427,0.06610573083162308
1761507868282081000,3.6840810546875,-0.0005036809016019106,0.10100175440311432,0.076397605240345
1761507868302237000,3.70423681640625,0.005136887077242136,0.07624223083257675,0.06577831506729126
1761507868322392000,3.72439208984375,0.02042052149772644,0.052147604525089264,0.05125243961811066
1761507868342548200,3.74454833984375,0.02935728058218956,0.03142130374908447,0.025283539667725563
1761507868362703000,3.764703125,0.04550614580512047,0.016907047480344772,0.030675474554300308
1761507868382859000,3.78485888671875,0.05300663411617279,0.019410906359553337,0.039803508669137955
1761507868403014100,3.80501416015625,0.0626596063375473,0.03200656175613403,0.060390930622816086
1761507868423170000,3.825170166015625,0.06431923806667328,0.02980923280119896,0.05975622683763504
1761507868443325000,3.845324951171875,0.07027353346347809,0.04043387994170189,0.07163390517234802
1761507868463481000,3.865481201171875,0.06961092352867126,0.02423395961523056,0.04265913367271423
1761507868483637000,3.885636962890625,0.07710298150777817,0.02282901294529438,0.014523404650390148
1761507868503792000,3.905792236328125,0.0793280228972435,0.02145177125930786,-0.027446933090686798
1761507868523948300,3.9259482421875,0.07626058161258698,0.024864893406629562,-0.047304678708314896
1761507868544103200,3.946103271484375,0.06681277602910995,0.029960907995700836,-0.04281372204422951
1761507868564259000,3.966259033203125,0.06613735854625702,0.035969484597444534,-0.0397702120244503
1761507868584414000,3.9864140625,0.059522368013858795,0.028248228132724762,-0.040631264448165894
1761507868604568000,4.006568115234375,0.055262647569179535,0.012736259028315544,-0.043752271682024
1761507868624723200,4.02672314453125,0.04888412356376648,0.01856856793165207,-0.037250544875860214
1761507868644879000,4.046879150390625,0.051636502146720886,0.016433246433734894,-0.03483185917139053
1761507868665034000,4.067033935546875,0.05282263085246086,0.0033650435507297516,-0.026053668931126595
1761507868685190100,4.087190185546875,0.0417923778295517,0.008514082059264183,-0.01822267472743988
1761507868705345300,4.10734521484375,0.03836671635508537,-0.006680508144199848,0.010811472311615944
1761507868725501200,4.127501220703125,0.02660485729575157,-0.003715719096362591,0.03218314051628113
1761507868745657000,4.147656982421875,0.018592508509755135,-0.01317472942173481,0.03841034322977066
1761507868765812200,4.167812255859375,0.015782339498400688,-0.007856663316488266,0.05592168867588043
1761507868785968000,4.187968017578125,0.014150870032608509,-0.010391594842076302,0.03774099051952362
1761507868806123000,4.208123046875,0.012837143614888191,-0.01621057279407978,0.025112448260188103
1761507868826279200,4.228279052734375,0.0034857068676501513,-0.025214973837137222,0.005904780235141516
1761507868846434000,4.24843408203125,-0.006329342257231474,-0.01978679746389389,0.01024039089679718
1761507868866590000,4.26858984375,-0.010854320600628853,-0.004769723862409592,0.014777900651097298
1761507868886745300,4.288745361328125,-0.0165561530739069,-0.011490398086607456,-0.001135518541559577
1761507868906901500,4.308901611328125,-0.01622883975505829,-0.026057595387101173,-0.016779825091362
1761507868927056600,4.329056640625,-0.007180234882980585,-0.03848670423030853,-0.029585734009742737
1761507868947212500,4.349212646484375,-0.007076642941683531,-0.03190910816192627,-0.02003319188952446
1761507868967367400,4.369367431640625,-0.005710199940949678,-0.019172823056578636,-0.00331072136759758
1761507868987523600,4.389523681640625,-0.001471750671043992,-0.007734344340860844,0.004562930203974247
1761507869007679500,4.409679443359375,-0.006867572665214539,0.006847330369055271,0.011635670438408852
1761507869027834400,4.42983447265625,-0.019708769395947456,0.0003452245146036148,0.01147262193262577
1761507869047990500,4.449990478515625,-0.021972768008708954,-0.008529523387551308,-0.0007348798681050539
1761507869068145400,4.4701455078125,-0.03294123709201813,0.00036620907485485077,-0.0035082607064396143
1761507869088301300,4.49030126953125,-0.044527340680360794,0.004306339658796787,-0.018781008198857307
1761507869108456700,4.510456787109375,-0.05573389306664467,0.0626666247844696,0.010614650323987007
1761507869128612600,4.530612548828125,-0.06550879776477814,0.04817892238497734,-0.0309345293790102
1761507869148767500,4.550767578125,-0.04791564866900444,0.04479651153087616,-0.05077389255166054
1761507869168923600,4.570923583984375,-0.0473010279238224,0.06647281348705292,-0.02778034657239914
1761507869189078500,4.59107861328125,-0.049575597047805786,0.025942889973521233,-0.06061641871929169
1761507869209234400,4.611234375,-0.0344960056245327,0.021593254059553146,-0.04968734085559845
1761507869229390600,4.631390625,-0.040372829884290695,0.043374739587306976,-0.0027100129518657923
1761507869249545500,4.65154541015625,-0.03195478394627571,0.03659918159246445,-0.00018080486916005611
1761507869269701400,4.671701416015625,-0.024557119235396385,0.010618242435157299,-0.00006118277087807655
1761507869289856500,4.6918564453125,-0.025288930162787437,0.021638380363583565,0.009398132562637329
1761507869310012700,4.7120126953125,-0.02306278795003891,0.02113279327750206,0.02112637646496296
1761507869330167600,4.73216748046875,-0.016856808215379715,0.006781989708542824,0.010550017468631268
1761507869350323500,4.752323486328125,-0.012512154877185822,0.02253761887550354,0.0067848386242985725
1761507869370478300,4.772478271484375,-0.0018744117114692926,0.01933329552412033,-0.00696784071624279
1761507869390634500,4.792634521484375,0.017706220969557762,0.024424567818641663,-0.01350383646786213
1761507869410790400,4.812790283203125,0.02937617152929306,0.03256450220942497,-0.02157486230134964
1761507869430945300,4.8329453125,0.046614568680524826,0.036283623427152634,-0.012864945456385612
1761507869451101400,4.853101318359375,0.059570297598838806,0.04328010603785515,-0.0017815185710787773
1761507869471256600,4.873256591796875,0.0710512101650238,0.03182738274335861,0.00848179031163454
1761507869491412500,4.89341259765625,0.061519987881183624,0.016758454963564873,0.01864289678633213
1761507869511567600,4.913567626953125,0.053315602242946625,0.011562041938304901,0.05350300669670105
1761507869531723500,4.9337236328125,0.041667740792036057,0.030866339802742004,0.08641455322504044
1761507869551878400,4.95387841796875,0.02879107929766178,0.015234620310366154,0.07802142947912216
1761507869572034600,4.97403466796875,0.023639725521206856,0.0075596971437335014,0.07133025676012039
1761507869592189400,4.994189453125,0.02210148051381111,-0.002288326621055603,0.034790124744176865
1761507869612345300,5.014345458984375,0.02588052488863468,0.01084541343152523,0.006868829019367695
1761507869632501500,5.03450146484375,0.03446946293115616,0.013449170626699924,-0.047386202961206436
1761507869652656600,5.05465673828125,0.04088849946856499,0.02649480104446411,-0.05043062940239906
1761507869672812500,5.0748125,0.036262594163417816,0.03241187706589699,-0.05532746762037277
1761507869692967400,5.094967529296875,0.04485391825437546,0.039062321186065674,-0.03672841563820839
1761507869713123600,5.11512353515625,0.03500983864068985,0.015233850106596947,-0.029682490974664688
1761507869733278500,5.135278564453125,0.030579950660467148,0.0240185409784317,-0.003569779684767127
1761507869753434400,5.155434326171875,0.017033755779266357,0.03282826393842697,0.03880052641034126
1761507869773589500,5.175589599609375,0.009588395245373249,0.010637928731739521,0.040815647691488266
1761507869793745400,5.195745361328125,0.00860673189163208,0.010132180526852608,0.04556587338447571
1761507869813901300,5.2159013671875,-0.003707432420924306,0.00006266310811042786,0.013123515993356705
1761507869834056700,5.236056640625,0.003421567380428314,0.006604851223528385,-0.003913094289600849
1761507869854212600,5.256212646484375,0.008591574616730213,-0.008382141590118408,-0.03907360881567001
1761507869874367500,5.276367431640625,0.0166324470192194,-0.0005977479740977287,-0.039021048694849014
1761507869894523000,5.29652294921875,0.013440651819109917,-0.0030375495553016663,-0.04372582212090492
1761507869914678000,5.316677978515625,0.009267181158065796,0.005185410380363464,0.0014978812541812658
1761507869934834000,5.336833984375,-0.00019899196922779083,0.014787479303777218,0.02383190207183361
1761507869954989000,5.356989013671875,0.013387903571128845,0.00814124010503292,0.01752227172255516
1761507869975145200,5.377145263671875,0.024167589843273163,-0.03084048628807068,-0.019714942201972008
1761507869995300000,5.397300048828125,0.027354586869478226,-0.01632206328213215,-0.010915776714682579
1761507870015456000,5.4174560546875,0.017535772174596786,-0.008840326219797134,-0.004500438459217548
1761507870035612200,5.437612060546875,0.009320711717009544,-0.003499690443277359,0.013688234612345695
1761507870055767000,5.45776708984375,0.0033443239517509937,-0.013167777098715305,-0.00029134610667824745
1761507870075923000,5.4779228515625,-0.005745319649577141,-0.005837493110448122,0.015453878790140152
1761507870096077800,5.498077880859375,-0.02303110808134079,-0.010425161570310593,-0.0006203639786690474
1761507870116234000,5.51823388671875,-0.027055904269218445,0.005188302136957645,-0.008588388562202454
1761507870136389000,5.53838916015625,-0.029099885374307632,-0.019527537748217583,-0.02459392137825489
1761507870156545000,5.558544921875,-0.022814851254224777,-0.0142927635461092,-0.012984421104192734
1761507870176700200,5.5787001953125,-0.012202397920191288,-0.0156999621540308,0.015000393614172935
1761507870196856000,5.59885595703125,-0.00429280661046505,-0.007122799754142761,0.02703891322016716
1761507870217012000,5.619011962890625,-0.0006666593253612518,0.005336851812899113,0.05244080722332001
1761507870237167000,5.6391669921875,0.010446690954267979,-0.0019568027928471565,0.05283941328525543
1761507870257323000,5.659322998046875,0.01825856976211071,-0.0010549332946538925,0.051439911127090454
1761507870277478000,5.679477783203125,0.02634422481060028,-0.012014107778668404,0.03848063945770264
1761507870297634000,5.699634033203125,0.01962876319885254,-0.013252624310553074,0.019390946254134178
1761507870317789200,5.7197890625,0.01997709646821022,-0.010717934928834438,0.012327509932219982
1761507870337945000,5.739945068359375,0.01831849291920662,-0.007459609769284725,0.00954916886985302
1761507870358100000,5.760099853515625,0.009618978016078472,0.01084638386964798,0.012779364362359047
1761507870378256100,5.780256103515625,0.0142947006970644,0.006004253402352333,-0.0011104512959718704
1761507870398412000,5.800412109375,0.013845176436007023,-0.00436036940664053,-0.020736783742904663
1761507870418567000,5.82056689453125,0.005651132669299841,0.006981379352509975,-0.01623442769050598
1761507870438723000,5.84072314453125,-0.0005825033877044916,0.013002228923141956,-0.009026280604302883
1761507870458878000,5.8608779296875,-0.00046692765317857265,0.004574509337544441,-0.010310407727956772
1761507870479033900,5.881033935546875,-0.008037207648158073,0.0073202429339289665,-0.0022220686078071594
1761507870499189000,5.90118896484375,-0.01381125021725893,0.003409585915505886,0.0140883419662714
1761507870519345200,5.92134521484375,-0.02158181741833687,0.00220358744263649,0.012204371392726898
1761507870539500000,5.9415,-0.029151055961847305,0.009599225595593452,0.018911292776465416
1761507870559656000,5.961656005859375,-0.029173128306865692,0.028222262859344482,0.030870186164975166
1761507870579812000,5.98181201171875,-0.023460133001208305,0.028464514762163162,0.024684377014636993
1761507870599967000,6.001967041015625,-0.017374515533447266,0.028316602110862732,0.009595442563295364
1761507870620123000,6.022122802734375,-0.01933649554848671,0.027076207101345062,-0.015341069549322128
1761507870640278000,6.042278076171875,-0.02026112750172615,0.022016601637005806,-0.03196175768971443
1761507870660434000,6.062433837890625,-0.02007204107940197,0.019327569752931595,-0.0392170213162899
1761507870680589000,6.082589111328125,-0.0130378482863307,0.014789368957281113,-0.03921660780906677
1761507870700745200,6.1027451171875,-0.004043274559080601,0.01896781660616398,-0.02261432632803917
1761507870720901000,6.122901123046875,0.0020090348552912474,0.016079112887382507,0.0024933242239058018
1761507870741056000,6.143055908203125,0.01573202759027481,0.00959428958594799,0.011374798603355885
1761507870761212200,6.163212158203125,0.02554497681558132,0.013123510405421257,0.030621996149420738
1761507870781367000,6.183366943359375,0.025989720597863197,-0.006642885040491819,0.018339546397328377
1761507870801523000,6.20352294921875,0.03326493874192238,-0.0054643964394927025,0.01967034488916397
1761507870821677800,6.223677734375,0.025278929620981216,0.00043510552495718,0.024788592010736465
1761507870841834000,6.243833984375,0.020002400502562523,-0.00764685682952404,0.006370784714818001
1761507870861989000,6.263989013671875,0.02018270269036293,-0.012991141527891159,0.010401163250207901
1761507870882145000,6.28414501953125,0.00416884571313858,-0.021010946482419968,0.006661569233983755
1761507870902301000,6.304301025390625,-0.0028736351523548365,0.0014361720532178879,0.01861506700515747
1761507870922455800,6.324455810546875,-0.013425307348370552,-0.012935959734022617,-0.010121885687112808
1761507870942612000,6.344612060546875,-0.017307119444012642,0.0022242963314056396,-0.011964123696088791
1761507870962766800,6.364766845703125,-0.029113998636603355,-0.006572097074240446,-0.036814384162425995
1761507870982922800,6.3849228515625,-0.029637590050697327,0.0020755454897880554,-0.030772589147090912
1761507871003077600,6.40507763671875,-0.046000853180885315,0.0009375764057040215,-0.035794246941804886
1761507871023233800,6.42523388671875,-0.04346150532364845,0.013790804892778397,-0.021587559953331947
1761507871043389000,6.445388916015625,-0.043302539736032486,0.012357744388282299,-0.03286956250667572
1761507871063544800,6.465544921875,-0.033567875623703,-0.013840769417583942,-0.06020912528038025
1761507871083701000,6.485700927734375,-0.03410663083195686,-0.009456181898713112,-0.043246664106845856
1761507871103855900,6.50585595703125,-0.03815516456961632,-0.0030018240213394165,-0.007908150553703308
1761507871124011800,6.52601171875,-0.04187534376978874,0.0041784849017858505,0.010161462239921093
1761507871144167000,6.5461669921875,-0.03458201512694359,-0.0019410746172070503,-0.0035827963147312403
1761507871164322800,6.56632275390625,-0.02429794706404209,-0.008227545768022537,-0.0263773575425148
1761507871184477700,6.586477783203125,-0.011573104187846184,-0.013130265288054943,-0.04071655124425888
1761507871204633900,6.6066337890625,-0.002699183765798807,-0.011449318379163742,-0.036817166954278946
1761507871224789000,6.6267890625,-0.000410446897149086,-0.019542530179023743,-0.024297276511788368
1761507871244945000,6.64694482421875,-0.004350064322352409,-0.010492231696844101,-0.013377752155065536
1761507871265101000,6.66710107421875,-0.006318938918411732,-0.011099431663751602,-0.00450702803209424
1761507871285256000,6.687255859375,-0.009953607805073261,-0.01565060019493103,0.003230905160307884
1761507871305411800,6.707411865234375,-0.015882626175880432,-0.001334712840616703,0.020573388785123825
1761507871325566700,6.727566650390625,-0.01792178861796856,-0.0020636050030589104,0.026049435138702393
1761507871345723000,6.747722900390625,-0.021925335749983788,-0.018201429396867752,0.010692213661968708
1761507871365877800,6.767877685546875,-0.021180715411901474,-0.011499318294227123,0.0031567998230457306
1761507871386033700,6.78803369140625,-0.02061159908771515,0.002140367403626442,0.003684920957311988
1761507871406189800,6.80818994140625,-0.01810391992330551,0.0017465772107243538,-0.00675704050809145
1761507871426345000,6.828344970703125,-0.01946776919066906,0.004533444531261921,-0.010797098278999329
1761507871446500900,6.8485009765625,-0.022744785994291306,0.016778845340013504,0.000928766094148159
1761507871466655700,6.86865576171875,-0.020811844617128372,0.01827879063785076,0.011160435155034065
1761507871486812000,6.88881201171875,-0.02492084912955761,0.03221040964126587,0.029152099043130875
1761507871506966800,6.908966796875,-0.02410164661705494,0.036611419171094894,0.025933772325515747
1761507871527122700,6.929122802734375,-0.020007047802209854,0.024925746023654938,-0.003756897756829858
1761507871547277800,6.94927783203125,-0.008894737809896469,0.011953410692512989,-0.031216785311698914
1761507871567433700,6.969433837890625,-0.00296202814206481,0.011005418375134468,-0.03497488796710968
1761507871587589600,6.989589599609375,0.0005640145391225815,0.009064333513379097,-0.02771822363138199
1761507871607745000,7.0097451171875,0.006031753495335579,0.011809704825282097,0.0057033514603972435
1761507871627901000,7.02990087890625,0.004947034642100334,0.024133309721946716,0.050886157900094986
1761507871648055800,7.050055908203125,0.012886988930404186,0.011535867117345333,0.049441590905189514
1761507871668212000,7.0702119140625,0.0226178839802742,-0.013389005325734615,0.023151960223913193
1761507871688366800,7.090366943359375,0.018080929294228554,-0.02574889548122883,0.01695152372121811
1761507871708522800,7.110522705078125,0.002419443568214774,-0.0020081447437405586,0.04326615855097771
1761507871728677600,7.130677734375,-0.01569618657231331,0.01260326150804758,0.05897251144051552
1761507871748833800,7.150833740234375,-0.024938978254795074,0.008999310433864594,0.03467382863163948
1761507871768989700,7.17098974609375,-0.017532456666231155,0.0010925326496362686,-0.015802711248397827
1761507871789144800,7.191144775390625,-0.009628183208405972,0.0009250063449144363,-0.05812098830938339
1761507871809301000,7.211301025390625,-0.0036818869411945343,0.0031404634937644005,-0.08207335323095322
1761507871829456000,7.231455810546875,0.002498788759112358,0.004710383713245392,-0.07753784954547882
1761507871849611800,7.25161181640625,-0.00041311990935355425,0.02619936503469944,-0.04213450103998184
1761507871869767000,7.271766845703125,-0.005750898737460375,0.03672775626182556,-0.011280130594968796
1761507871889926700,7.2919267578125,0.0007781328167766333,0.02869689092040062,-0.006897362880408764
1761507871910082800,7.312082763671875,0.007263201288878918,0.021223142743110657,-0.008535522036254406
1761507871930237700,7.33223779296875,0.005878874100744724,0.012448159046471119,0.0027732225134968758
1761507871950393600,7.3523935546875,0.011587660759687424,0.0213302131742239,0.001280944561585784
1761507871970548700,7.372548828125,0.018592551350593567,0.011169789358973503,-0.001337231369689107
1761507871990705000,7.392704833984375,0.02606135606765747,0.007151570171117783,-0.006438737269490957
1761507872010859800,7.41285986328125,0.034072697162628174,-0.0015374710783362389,-0.005071400664746761
1761507872031015700,7.433015625,0.04135565087199211,-0.013273688964545727,-0.0024956734851002693
1761507872051170800,7.4531708984375,0.03778064250946045,-0.01527317799627781,0.009389536455273628
1761507872071326700,7.47332666015625,0.03306363895535469,-0.0025559570640325546,0.03138606250286102
1761507872091482600,7.493482666015625,0.025187848135828972,-0.002350827679038048,0.039655689150094986
1761507872111637800,7.5136376953125,0.011710106395184994,0.002002241089940071,0.041624728590250015
1761507872131793700,7.533793701171875,0.0006039722356945276,-0.006185739766806364,0.023311825469136238
1761507872151948800,7.55394873046875,-0.013144606724381447,-0.009311478585004807,0.006134283263236284
1761507872172105000,7.57410498046875,-0.02007123827934265,-0.0065323361195623875,-0.006782417185604572
1761507872192259800,7.594259765625,-0.02639544941484928,-0.011138234287500381,-0.022319281473755836
1761507872212415700,7.614415771484375,-0.02793978713452816,-0.010069694370031357,-0.02908693440258503
1761507872232571600,7.634571533203125,-0.02119399420917034,-0.0020929276943206787,-0.014726717956364155
1761507872252726800,7.654726806640625,-0.015833064913749695,0.0019586728885769844,0.004174963105469942
1761507872272882700,7.674882568359375,-0.0033473686780780554,0.005261033773422241,0.011427566409111023
1761507872293037600,7.69503759765625,0.011893616989254951,-0.02207770198583603,0.0014132116921246052
1761507872313193700,7.71519384765625,0.010594550520181656,-0.03416159376502037,0.015515202656388283
1761507872333348900,7.735348876953125,0.00366977252997458,-0.005193179473280907,0.05420828238129616
1761507872353504800,7.7555048828125,-0.002699425909668207,0.0028941361233592033,0.07051676511764526
1761507872373659600,7.77565966796875,0.0029038554057478905,-0.0002867709845304489,0.046576645225286484
1761507872393815800,7.79581591796875,0.019941970705986023,-0.011131934821605682,0.002009345917031169
1761507872413971700,7.8159716796875,0.03429215028882027,-0.008381502702832222,-0.02507689967751503
1761507872434126600,7.836126708984375,0.03713240846991539,-0.0012018056586384773,-0.04040655493736267
1761507872454282800,7.85628271484375,0.03174509480595589,0.006852590478956699,-0.041428860276937485
1761507872474437600,7.876437744140625,0.02476200833916664,0.014612709172070026,-0.03433091938495636
1761507872494593500,7.896593505859375,0.02430635131895542,0.007273637689650059,-0.017183175310492516
1761507872514749000,7.9167490234375,0.025492796674370766,-0.00607832008972764,-0.004386768210679293
1761507872534904800,7.93690478515625,0.021740686148405075,-0.008455898612737656,0.029949454590678215
1761507872555060700,7.957060791015625,0.022028828039765358,-0.009650537744164467,0.04206084460020065
1761507872575215900,7.9772158203125,0.02034650556743145,-0.006923607550561428,0.04554057866334915
1761507872595371800,7.997371826171875,0.02544538676738739,-0.0041423095390200615,0.03162269666790962
1761507872615526700,8.017526611328124,0.026426514610648155,-0.001904441975057125,0.021559996530413628
1761507872635682800,8.037682861328125,0.02544856071472168,-0.0028368420898914337,0.021635791286826134
1761507872655837700,8.057837646484375,0.01963278464972973,0.00427372008562088,0.019671881571412086
1761507872675993600,8.07799365234375,0.015506193041801453,-0.007562634069472551,0.009813104756176472
1761507872696149800,8.098149658203125,0.012436619959771633,-0.022230207920074463,0.0033145907800644636
1761507872716305000,8.118304931640624,0.002335786586627364,-0.005416152998805046,0.013375448063015938
1761507872736460800,8.138460693359375,-0.009473179467022419,-0.008098781108856201,0.025424422696232796
1761507872756615700,8.15861572265625,-0.015048503875732422,0.000334838405251503,0.02513730153441429
1761507872776771800,8.178771728515626,-0.014374240301549435,0.012349511496722698,0.024786241352558136
1761507872796926700,8.1989267578125,-0.01547061838209629,0.016318410634994507,0.01549083273857832
1761507872817082600,8.21908251953125,-0.008957332000136375,0.0030776001513004303,-0.007630400359630585
1761507872837238800,8.23923876953125,-0.0053207785822451115,0.005304642021656036,-0.021327368915081024
1761507872857393700,8.2593935546875,-0.0013673054054379463,0.00914756953716278,-0.021484876051545143
1761507872877549600,8.279549560546876,0.008334603160619736,0.00905879307538271,-0.019212281331419945
1761507872897701400,8.299701416015624,0.019848238676786423,-0.008839499205350876,-0.020834829658269882
1761507872917857300,8.319857177734375,0.016862306743860245,-0.010771210305392742,-0.006604812107980251
1761507872938012400,8.340012451171875,0.01918586902320385,-0.0096012307330966,0.013873757794499397
1761507872958168300,8.360168212890626,0.011048062704503536,0.005974706262350082,0.0421433299779892
1761507872978323200,8.3803232421875,0.005880240350961685,0.010116134770214558,0.054659731686115265
1761507872998479400,8.400479248046874,0.00959267932921648,-0.008305775932967663,0.03662863001227379
1761507873018635300,8.42063525390625,0.018350720405578613,-0.020743537694215775,-0.0047632246278226376
1761507873038790100,8.4407900390625,0.026942888274788857,-0.013836374506354332,-0.028988249599933624
1761507873058946300,8.4609462890625,0.02146771550178528,-0.0037824371829628944,-0.0322500504553318
1761507873079101400,8.481101318359375,0.009791070595383644,0.0060027241706848145,-0.03202803060412407
1761507873099257300,8.50125732421875,0.0009946508798748255,0.005998155102133751,-0.02683674730360508
1761507873119412200,8.521412109375,-0.004774589091539383,0.005028272047638893,-0.016495881602168083
1761507873139568400,8.541568359375,-0.011453231796622276,0.005418958142399788,-0.009118721820414066
1761507873159724300,8.561724365234374,-0.0071871038526296616,-0.005477911327034235,0.0015798811800777912
1761507873179879200,8.581879150390625,-0.0030525275506079197,0.004258044995367527,0.017202289775013924
1761507873200035300,8.602035400390625,-0.0019966321997344494,0.0070463623851537704,0.02610364370048046
1761507873220190200,8.622190185546875,0.0028498040046542883,0.004052570089697838,0.017733432352542877
1761507873240346000,8.64234619140625,0.004514016676694155,0.008128458634018898,0.0024710888974368572
1761507873260501200,8.662501220703126,0.010346883907914162,0.0172145776450634,0.0005058120004832745
1761507873280657400,8.682657470703125,0.006899392232298851,0.021378925070166588,0.0030696813482791185
1761507873300813300,8.702813232421875,0.008600633591413498,0.007938388735055923,-0.004754832945764065
1761507873320968200,8.72296826171875,0.008283717557787895,-0.004725208505988121,-0.017437338829040527
1761507873341124400,8.743124267578125,0.005427214317023754,0.00717717781662941,-0.00026610796339809895
1761507873361279200,8.763279296875,-0.0016330857761204243,0.022535469383001328,0.024520132690668106
1761507873381435100,8.78343505859375,-0.007539447396993637,0.01631200686097145,0.02299337647855282
1761507873401590300,8.80359033203125,-0.009983949363231659,0.009284895844757557,0.01373341865837574
1761507873421746200,8.82374609375,-0.003692764788866043,-0.008077050559222698,-0.012991403229534626
1761507873441902000,8.843902099609375,-0.0041806744411587715,-0.012099500745534897,-0.026816459372639656
1761507873462057500,8.864057373046874,-0.005330643616616726,0.004501711577177048,-0.017862481996417046
1761507873482213400,8.88421337890625,-0.004802247509360313,-0.01698131486773491,-0.01138087548315525
1761507873502368300,8.9043681640625,0.0015704245306551456,-0.02358100190758705,-0.0017217916902154684
1761507873522524400,8.9245244140625,-0.006326909177005291,-0.0499299056828022,0.006135283503681421
1761507873542679300,8.94467919921875,-0.02398979291319847,-0.042279668152332306,0.028255248442292213
1761507873562835200,8.964835205078124,-0.04658059775829315,-0.030919715762138367,0.05924282222986221
1761507873582991400,8.984991455078125,-0.057716045528650284,-0.00999175664037466,0.07411893457174301
1761507873603146200,9.005146240234374,-0.05499724671244621,-0.005568672437220812,0.046991702169179916
1761507873623302100,9.02530224609375,-0.05244593694806099,0.009820817038416862,0.009654933586716652
1761507873643457300,9.045457275390625,-0.053537823259830475,0.011599608696997166,-0.03246437385678291
1761507873663613400,9.065613525390624,-0.05586356669664383,0.010696119628846645,-0.04833250120282173
1761507873683768300,9.085768310546875,-0.05295166000723839,-0.005002617835998535,-0.06178953871130943
1761507873703924200,9.10592431640625,-0.05287228152155876,0.005438889376819134,-0.048019059002399445
1761507873724079400,9.126079345703126,-0.04946848750114441,0.017211992293596268,-0.03199277073144913
1761507873744235300,9.1462353515625,-0.04702986404299736,0.013998211361467838,-0.0201242845505476
1761507873764391200,9.16639111328125,-0.03453084081411362,0.013941432349383831,-0.021434156224131584
1761507873784546300,9.18654638671875,-0.02005232870578766,0.00515996478497982,-0.036795724183321
1761507873804702200,9.2067021484375,-0.015489788725972176,0.001161176711320877,-0.03362429887056351
1761507873824857300,9.226857421875,-0.010983449406921864,0.00418853759765625,-0.01704004406929016
1761507873845013200,9.24701318359375,-0.005199036560952663,-0.009934432804584503,-0.015057895332574844
1761507873865169400,9.26716943359375,-0.008396456018090248,-0.016935881227254868,-0.00658312626183033
1761507873885324300,9.28732421875,-0.010616435669362545,-0.01893497258424759,-0.004860433749854565
1761507873905479400,9.3074794921875,-0.009957609698176384,-0.02743062749505043,-0.010926110669970512
1761507873925634300,9.32763427734375,-0.00290978467091918,-0.02533864974975586,-0.011702563613653183
1761507873945790200,9.347790283203125,0.0013839711900800467,-0.03260219469666481,-0.02561774104833603
1761507873965945300,9.3679453125,0.009366276673972607,-0.035833463072776794,-0.03951425105333328
1761507873986101500,9.3881015625,0.010970075614750385,-0.022841589525341988,-0.034858979284763336
1761507874006257400,9.40825732421875,0.005810702219605446,-0.0057173827663064,-0.01722050830721855
1761507874026412300,9.428412353515625,-0.0013886243104934692,-0.009378883056342602,-0.013500573113560677
1761507874046568400,9.448568359375,-0.005074414424598217,-0.015259822830557823,-0.017429012805223465
1761507874066723300,9.468723388671876,-0.0059135677292943,-0.02124844491481781,-0.018132450059056282
1761507874086879200,9.488879150390625,-0.015303356572985649,-0.024686945602297783,-0.011823508888483047
1761507874107034400,9.509034423828124,-0.0170043483376503,-0.01654406450688839,-0.012527854181826115
1761507874127190300,9.529190185546875,-0.01032272633165121,-0.026050657033920288,-0.014920885674655437
1761507874147346200,9.54934619140625,-0.011368800885975361,-0.015298810787498951,-0.0008795319590717554
1761507874167501600,9.56950146484375,-0.01499390322715044,-0.006089400500059128,0.024736696854233742
1761507874187657500,9.589657470703125,-0.016175013035535812,0.0007764557376503944,0.03143133595585823
1761507874207812400,9.609812255859374,-0.0037857219576835632,-0.0037189600989222527,0.006844233255833387
1761507874227968500,9.629968505859376,0.013092605397105217,-0.007473005447536707,-0.03063855692744255
1761507874248123400,9.650123291015625,0.0215180441737175,-0.01281012687832117,-0.05324981361627579
1761507874268279300,9.670279296875,0.016584821045398712,0.007648023776710033,-0.025231704115867615
1761507874288435500,9.690435546875,0.007288757711648941,0.020709391683340073,0.003179821651428938
1761507874308590300,9.71059033203125,-0.00014010933227837086,0.01285889744758606,0.0036866592708975077
1761507874328746200,9.730746337890626,0.007475707679986954,0.005396068096160889,-0.002383472863584757
1761507874348901400,9.7509013671875,0.014063306152820587,0.0010968474671244621,-0.010250749066472054
1761507874369057500,9.7710576171875,0.0245953518897295,0.014934457838535309,0.004677894525229931
1761507874389212400,9.79121240234375,0.033113714307546616,0.015020971186459064,0.007629251107573509
1761507874409368300,9.811368408203125,0.04017747938632965,0.008611848577857018,0.0004467223770916462
1761507874429524500,9.8315244140625,0.041091207414865494,-0.0021395590156316757,-0.0087712612003088
1761507874449680400,9.851680419921875,0.03536651283502579,-0.0004122098907828331,-0.001255975104868412
1761507874469835300,9.871835205078124,0.02463633380830288,0.025262583047151566,0.013339666649699211
1761507874489991400,9.891991455078125,0.016034338623285294,-0.007416972424834967,0.0023022829554975033
1761507874510147300,9.912147216796875,0.014059075154364109,-0.03227659687399864,0.011581768281757832
1761507874530302200,9.93230224609375,-0.0026053893379867077,0.004618571139872074,0.025134064257144928
1761507874550458400,9.952458251953125,-0.01133575290441513,-0.004107104614377022,0.021669410169124603
1761507874570613500,9.972613525390624,-0.019105007871985435,-0.0013017812743782997,0.01308250892907381
1761507874590769400,9.992769287109375,-0.0253773033618927,-0.004692797549068928,0.0015890500508248806
1761507874610925300,10.01292529296875,-0.030183227732777596,0.00833760853856802,-0.004585134796798229
1761507874631080400,10.03308056640625,-0.03376437723636627,0.0077271731570363045,-0.01627483032643795
1761507874651236400,10.053236328125,-0.026963740587234497,0.0018083108589053154,-0.02364075370132923
1761507874671391200,10.07339111328125,-0.025843093171715736,0.0030040834099054337,-0.02232503890991211
1761507874691547400,10.09354736328125,-0.0298404973000288,0.020275481045246124,-0.007471257820725441
1761507874711702300,10.113702392578125,-0.029335547238588333,0.014224606566131115,-0.00472092442214489
1761507874731858200,10.133858154296876,-0.029086798429489136,0.007731008343398571,-0.014534254558384418
1761507874752014300,10.154014404296875,-0.020914625376462936,0.009216640144586563,-0.015692146494984627
1761507874772169500,10.17416943359375,-0.01671002060174942,0.003654426895081997,-0.007671320345252752
1761507874792325400,10.194325439453126,-0.016848526895046234,0.010896734893321991,0.005753935314714909
1761507874812480500,10.21448046875,-0.012724622152745724,0.01714078150689602,0.015572210773825645
1761507874832636400,10.234636474609376,-0.01112058013677597,0.027831748127937317,0.015306465327739716
1761507874852791300,10.254791259765625,-0.014209853485226631,0.05251652002334595,0.010075832717120647
1761507874872947500,10.274947509765624,-0.00564083456993103,0.010113119147717953,-0.028805425390601158
1761507874893103600,10.295103515625,-0.0020394744351506233,-0.012401491403579712,-0.052961453795433044
1761507874913258800,10.3152587890625,-0.009765846654772758,0.01732499524950981,-0.01242883037775755
1761507874933414700,10.33541455078125,-0.007785497233271599,0.019131802022457123,0.005901964381337166
1761507874953569500,10.355569580078125,-0.006720263510942459,0.0021212054416537285,0.008912226185202599
1761507874973725700,10.3757255859375,-0.0001158801605924964,0.004507118836045265,0.017215048894286156
1761507874993881600,10.395881591796876,0.004930831491947174,0.014480016194283962,0.023728616535663605
1761507875014036700,10.41603662109375,0.008489599451422691,0.01721818745136261,0.018409129232168198
1761507875034193000,10.43619287109375,0.014166928827762604,0.004157165065407753,-0.0030224246438592672
1761507875054347800,10.45634765625,0.011843070387840271,0.004963848739862442,-0.003908669110387564
1761507875074503700,10.476503662109375,0.003893003799021244,0.008019252680242062,0.020409969612956047
1761507875094658600,10.496658447265625,-0.0026381644420325756,0.01413003820925951,0.06159641221165657
1761507875114814700,10.516814697265625,-0.004922342021018267,0.03616006672382355,0.08641956001520157
1761507875134970600,10.536970703125,-0.0030674326699227095,0.037759795784950256,0.07855101674795151
1761507875155125500,10.55712548828125,0.01883675903081894,0.008510210551321507,0.035940416157245636
1761507875175281700,10.57728173828125,0.03508765622973442,-0.006200133822858334,-0.0058064935728907585
1761507875195436800,10.597436767578126,0.04702897369861603,0.022430218756198883,-0.009884249418973923
1761507875215592700,10.6175927734375,0.04265665262937546,0.06465375423431396,-0.006535474210977554
1761507875235748900,10.637748779296874,0.037408605217933655,0.15422138571739197,0.06183615326881409
1761507875255903700,10.65790380859375,0.023121559992432594,0.08966431021690369,0.10489130020141602
1761507875276059600,10.6780595703125,0.008679227903485298,0.033676695078611374,0.10184822231531143
1761507875296214800,10.69821484375,0.011760231107473373,-0.10058712959289551,-0.006538080051541328
1761507875316370700,10.71837060546875,-0.0038935563061386347,-0.17229826748371124,-0.08884475380182266
1761507875336525600,10.738525634765624,-0.041933078318834305,0.01913962885737419,0.04079197347164154
