time,seconds_elapsed,z,y,x
1761430247423135500,0.079135498046875,0.020934651479125023,-0.04758103166855871,-0.04249035746604204
1761430247443079700,0.09907958984375,-0.20898878739476204,0.08273775831088423,0.07836451166272163
1761430247463022600,0.119022705078125,-0.15478314995467662,0.17234050702042877,0.12860182999372483
1761430247482966800,0.138966796875,0.02173603098988533,0.15107282419465481,0.24330840562582015
1761430247502909700,0.15890966796875,0.09179097946882248,0.14136172364987432,0.22242241559401152
1761430247522853600,0.178853515625,0.05175941333174705,0.05026194131560623,0.1364887838512659
1761430247542796500,0.198796630859375,-0.0889800137013197,-0.011269289772212504,0.1491331613689661
1761430247562740500,0.218740478515625,-0.0942336964458227,0.02909735353812575,0.16897300334870816
1761430247582683600,0.23868359375,0.047021278893947596,0.04992671801187098,0.2123923122279346
1761430247602627600,0.258627685546875,0.2255775186240673,0.05736950829848647,0.15418956797569988
1761430247622570500,0.278570556640625,0.32657939403057096,-0.03202507755309343,-0.022009148842841386
1761430247642514700,0.2985146484375,0.22474340588748454,0.010063128852844237,-0.14172697676569224
1761430247662457600,0.31845751953125,0.013373860836029051,0.07324658412709832,-0.1858028498575091
1761430247682400800,0.33840087890625,0.016637831068038938,0.06834558727778493,-0.20936989566683767
1761430247702344700,0.3583447265625,0.1063251162558794,-0.05298026036359369,-0.2396829086050391
1761430247722287600,0.37828759765625,0.03156184395551681,-0.019298063253238795,-0.18833879807591436
1761430247742231600,0.3982314453125,-0.2509025140166283,0.10660400626249611,-0.18159049285948275
1761430247762174700,0.4181748046875,-0.4029635455310345,0.07210815468169748,0.09064385526031256
1761430247782118700,0.43811865234375,-0.23286475302278994,0.1838091918222606,-0.017907851003855467
1761430247802061600,0.4580615234375,-0.05272504349350929,0.09269771905019879,0.07629018960669637
1761430247822005500,0.478005615234375,-0.034145430707931516,0.045833311218395824,0.03804682206064462
1761430247841948400,0.497948486328125,-0.05162029712200165,0.01881393299810588,0.036501200053840874
1761430247861892600,0.517892578125,0.04979249717295169,0.03126761024929583,0.07253449033498764
1761430247881835800,0.537835693359375,0.15417524718940256,0.06474244821928442,0.03420388289690018
1761430247901779700,0.55777978515625,0.2555015322446823,-0.025892785343155263,-0.010560118589550256
1761430247921722600,0.57772265625,0.18489362605810164,-0.07360211956650019,0.0034746903732419013
1761430247941666600,0.59766650390625,0.08679507087767124,-0.13435242940969763,-0.0853083394512534
1761430247961609700,0.617609619140625,0.14754559991657734,-0.18387005516402422,-0.009736234986037016
1761430247981552600,0.637552734375,0.2328624149352312,-0.1674221206448972,0.008959697655588388
1761430248001496600,0.65749658203125,0.2398153028130531,-0.137727458800748,0.06648264295011759
1761430248021439500,0.677439453125,-0.029622984847426412,-0.08576960028745234,0.1290337916702032
1761430248041383400,0.697383544921875,-0.28251404233276844,-0.0652520782418549,0.1694998037017882
1761430248061326600,0.71732666015625,-0.2695972776144743,-0.11766995548233389,0.2221731170080602
1761430248081270800,0.737270751953125,-0.13314590316414832,-0.08680303498841821,0.3092174864716828
1761430248101213700,0.757213623046875,0.0739174691259861,0.06783953745178878,0.3281977890126407
1761430248121157600,0.77715771484375,0.0222732066065073,0.0720617582567036,0.2775345003545284
1761430248141100500,0.7971005859375,-0.08681377557814121,-0.014530775786191224,0.08660773161202669
1761430248161044500,0.81704443359375,0.05029927765130996,-0.0885467368505895,0.0407895448975265
1761430248180987600,0.836987548828125,0.25091186636686325,-0.12377499435916542,0.0639767976090312
1761430248200931600,0.856931640625,0.3245078484535217,-0.04854958443976939,0.09902487624511122
1761430248220874500,0.87687451171875,0.08752806132733822,0.068995429488644,0.06887684461027384
1761430248240819000,0.89681884765625,-0.11009586696624755,-0.03009162527248263,-0.041905104923993346
1761430248260761900,0.916761962890625,-0.029687282255291936,-0.10160071808248758,-0.10164061170145869
1761430248280706000,0.9367060546875,0.14289514376223086,-0.1894320001401007,-0.09463087906986474
1761430248300649000,0.95664892578125,0.2191635599285364,-0.0974517817094922,-0.04547770271375775
1761430248320592000,0.976591796875,0.17249299416840075,0.025958397925272582,0.0021541092939674853
1761430248340536000,0.9965361328125,-0.015882628786563872,0.06784187553934752,0.09105039023458956
1761430248360479200,1.016479248046875,-0.2614537186473608,0.10363178551867604,0.05931435875594616
1761430248380423200,1.036423095703125,-0.24719372262656686,0.04841828621029853,0.09917407545745373
1761430248400366000,1.056365966796875,0.05077917012274265,0.03096650841087103,0.08142872153893113
1761430248420310000,1.07631005859375,0.4401788852035999,-0.02491400343887508,0.1396035548709333
1761430248440253000,1.0962529296875,0.4154746520578861,-0.05413695611804723,0.09477394080236554
1761430248460196900,1.11619677734375,0.060009355282783505,-0.10463577492944895,0.047360739981383085
1761430248480140000,1.13614013671875,-0.14213877243697642,-0.051224137411266565,-0.026882015576213596
1761430248500084000,1.156083984375,-0.09315057738423346,0.0347353594250977,0.0886601340971887
1761430248520027000,1.17602685546875,0.062461424610018725,0.1502132847558707,0.1709386043332517
1761430248539971000,1.19597119140625,0.23117665380537508,0.13622253413051366,0.1594432507202029
1761430248559914200,1.215914306640625,0.09297054464221,-0.06704078828953206,0.04461319483891129
1761430248579858200,1.235858154296875,-0.07280044779479503,-0.20038301774337886,-0.12275924144536256
1761430248599801000,1.255801025390625,-0.01719897208213806,-0.14688625922501086,-0.09095365186184644
1761430248619744000,1.275743896484375,0.004986556240916252,0.032562326234951616,-0.003831833247840404
1761430248639688000,1.29568798828125,-0.13235212243795394,0.12021825172565877,0.03931055838614702
1761430248659631000,1.315631103515625,0.006242693781852722,0.03813727682307362,-0.017040712780505417
1761430248679575000,1.335574951171875,0.07806056028008461,0.008497633101791142,0.0233668470621109
1761430248699518000,1.35551806640625,0.12381518023908138,-0.05777933120839297,-0.07235124272257089
1761430248719462000,1.3754619140625,-0.11731354326009749,-0.10351794988065957,-0.1206295359402895
1761430248739404800,1.39540478515625,-0.17308102318942545,-0.06572970569096505,-0.18111819917261598
1761430248759349000,1.415348876953125,-0.09155074097216129,-0.06939224678650498,-0.1292531335093081
1761430248779292200,1.435292236328125,-0.0010410334855318068,-0.014762392584979533,-0.11539148915633558
1761430248799236000,1.455236083984375,0.010883797585964201,0.01423741886280477,-0.036786885127425194
1761430248819179000,1.475178955078125,-0.06191022046804428,-0.0005610679488629103,-0.007902297557145357
1761430248839123000,1.495123046875,-0.007713935378193855,-0.012585048545897006,0.06064560735970735
1761430248859066000,1.515066162109375,0.13414368202984334,-0.06099076753556728,0.02970277208536863
1761430248879010000,1.535010009765625,0.05149813204705715,-0.1496544087640941,-0.04979468913003802
1761430248898953000,1.554952880859375,0.012814473387598991,-0.11712291605882345,-0.00281944133490324
1761430248918897200,1.574897216796875,0.12086568278372287,-0.08637889129221439,0.07149754850268364
1761430248938840000,1.594840087890625,0.2036047562688589,0.03116371148340404,0.1547816886499524
1761430248958784000,1.614783935546875,0.06151157653927802,0.01932414754256606,0.21066738813146949
1761430248978727200,1.63472705078125,-0.06292670403420925,0.0392125048391521,0.22804668521657584
1761430248998670000,1.654670166015625,0.10514905821382999,0.020216931663826106,0.1686965244948864
1761430249018614000,1.674614013671875,0.16152560995221138,0.07123992047980428,0.2608725577585399
1761430249038557000,1.694556884765625,0.2046592337578535,0.13208886839188635,0.2637432908892631
1761430249058501000,1.714501220703125,0.031017654076218603,0.0665563657734543,0.27093320239335295
1761430249078444000,1.734444091796875,-0.016071429356932638,0.07816219402365386,0.10857888653203844
1761430249098388000,1.754387939453125,0.0323468568533659,0.05973769873455166,0.13357421157881616
1761430249118331000,1.774330810546875,0.08592413326203822,0.22937537653706966,0.18538301701024174
1761430249138275000,1.794275146484375,0.027755437409877775,0.14669811624176798,0.1856527738623321
1761430249158218200,1.81421826171875,0.07345803492069244,0.05544285108484327,0.0946514834664762
1761430249178162200,1.834162109375,0.22194471507966518,0.08605112064257264,-0.02652633400633931
1761430249198105000,1.85410498046875,0.4754834228187799,0.1271799804970622,0.0728252899751067
1761430249218049000,1.874049072265625,0.6196645147383213,0.10909319272972642,0.056289019585400814
1761430249237992000,1.893991943359375,0.6385147611588239,0.03887801218777895,0.11247209457829593
1761430249257936100,1.91393603515625,0.7440121944189071,0.05328596531189978,0.1456733763039112
1761430249277879000,1.933879150390625,0.7736562220543622,0.17915471707992256,0.34597646067887544
1761430249297823200,1.9538232421875,0.5246352840006351,0.13658501076735555,0.3666170976474881
1761430249317766100,1.97376611328125,0.19914777685999868,-0.08674363295137882,0.12482333436831831
1761430249337710000,1.9937099609375,0.21844635156989095,-0.17114355232082307,-0.012456745991110801
1761430249357653200,2.0136533203125,0.3738824124753475,-0.22593151969350872,0.012372428708523512
1761430249377597200,2.03359716796875,0.32262919510006904,-0.29424320470169185,0.09415946216583251
1761430249397540000,2.0535400390625,-0.044210313126444814,-0.17362042729575186,0.13838877225369214
1761430249417483000,2.07348291015625,-0.6968266648739576,0.03962214508596808,0.08113660672456026
1761430249437427000,2.093427001953125,-0.9484189147204161,0.0339846506556496,0.059551382382214066
1761430249457370000,2.1133701171875,-0.9397171373486518,-0.06909421368800103,-0.13969941646084189
1761430249477314300,2.133314208984375,-0.6697592097282409,-0.15683471218962222,-0.22065584431290625
1761430249497257200,2.15325732421875,-0.3518143730521202,-0.23656645708493887,-0.19550825131386518
1761430249517201200,2.173201171875,-0.30740941413640976,-0.22582005867566912,-0.164466485709697
1761430249537144000,2.19314404296875,-0.3517529982537031,-0.21249146175347267,-0.26286972292512656
1761430249557088300,2.213088134765625,-0.36095220375359055,-0.12543467119969426,-0.20034940773472187
1761430249577031200,2.23303125,-0.2951695257663727,-0.004087744237668812,-0.19334362062588334
1761430249596975000,2.25297509765625,-0.012383096233010291,-0.10248897215910255,-0.16833324414044618
1761430249616918000,2.27291796875,0.0749503193050623,0.08425156040731817,-0.03786839675381779
1761430249636862000,2.292862060546875,0.0847708715736866,0.21211210704706607,0.10172025280892848
1761430249656805000,2.31280517578125,0.18505320053398608,0.24048808750808237,0.24918606548756358
1761430249676749300,2.332749267578125,0.3004582798242569,-0.0021793533330783247,0.3073347414650023
1761430249696692200,2.352692138671875,0.4412736947029829,-0.09471439263485372,0.25172289048880336
1761430249716636200,2.37263623046875,0.3448170615106821,-0.1695896374097094,0.21401523725464938
1761430249736579000,2.3925791015625,0.29473873313367366,-0.12853943228200077,0.13176891572251914
1761430249756523000,2.41252294921875,0.2671130595833063,-0.10179003010950982,0.03575315816551447
1761430249776466200,2.432466064453125,0.08026245423853397,0.03555745293032378,-0.020381693771481513
1761430249796410000,2.45241015625,-0.07169336333572864,0.21328272172901777,-0.03814969791322946
1761430249816353000,2.47235302734375,-0.13443769654035567,0.2809638537487015,-0.06404109501689673
1761430249836297000,2.492296875,-0.19563713839054106,0.21969196771681307,-0.2069875305749476
1761430249856240000,2.512240234375,-0.08098609233796596,0.19960838010907173,-0.26072028980627654
1761430249876183000,2.53218310546875,0.12769114488959313,0.12779873344991355,-0.21622852938994763
1761430249896127200,2.552127197265625,0.2601473122239113,0.07822437253966927,-0.23172551985979079
1761430249916070100,2.572070068359375,0.2184890216678381,0.061318428587354715,-0.23549627057015896
1761430249936014000,2.59201416015625,0.1969511435985565,0.0646275531353429,-0.22667627364620566
1761430249955957200,2.611957275390625,0.09705576812922954,-0.010765906827338039,-0.21906638316437602
1761430249975901200,2.631901123046875,0.028968904852867124,-0.13382844206821173,-0.2711069515250623
1761430249995844000,2.651843994140625,-0.025090017592906952,-0.1003073172710836,-0.11638517636880277
1761430250015788000,2.6717880859375,0.0194803610175848,-0.010039273053221404,0.0025587445721030233
1761430250035731200,2.691731201171875,0.12662263887524605,-0.0006248539000749588,0.02394303951486945
1761430250055675100,2.711675048828125,0.15897241833806036,-0.020723967870511114,0.06291501359641552
1761430250075618000,2.7316181640625,0.037600539597868916,-0.09943491835072636,0.06404241019114852
1761430250095562200,2.751562255859375,-0.04483224441707134,-0.20892635315041988,0.12501871080994606
1761430250115505200,2.771505126953125,-0.07001987716555595,-0.25554840359371156,0.0943997006624937
1761430250135449000,2.791448974609375,0.0695037443369627,-0.3298010229581967,0.0806062992401421
1761430250155392300,2.811392333984375,0.04593348365724086,-0.26212116958014664,0.13097425821349024
1761430250175336200,2.831336181640625,-0.18643208767175673,-0.14058219064474106,0.14852204373329878
1761430250195279000,2.851279052734375,-0.303874810269475,-0.09403543392736465,0.201191265386343
1761430250215223000,2.87122314453125,-0.22489362801313398,-0.021516762216016647,0.2639624865978956
1761430250235166200,2.891166259765625,0.03831424082517624,-0.006366868150793016,0.3232081640318036
1761430250255110100,2.911110107421875,0.1386591136276722,0.07677976322192698,0.40115722676143045
1761430250275053300,2.93105322265625,0.037655484655499456,0.23911668955702334,0.49208705935627217
1761430250294997200,2.950997314453125,-0.14152677801847457,0.29229367806911466,0.45328547340556974
1761430250314940200,2.970940185546875,-0.08545242409706115,0.2793384445039555,0.3109510322660208
1761430250334884000,2.990884033203125,0.023425883772969246,0.1765714956536889,0.2153371335081756
1761430250354827300,3.0108271484375,0.07705752071738242,0.12300682299826293,0.09565276946350931
1761430250374771500,3.030771484375,0.0941208837211132,0.11483699707873164,0.05784487072527408
1761430250394714400,3.05071435546875,0.1346411101579666,0.10951408502291887,-0.09928075070232152
1761430250414658300,3.070658203125,0.3539402791649103,-0.0013052008470520377,-0.1847759910278022
1761430250434601200,3.090601318359375,0.5226800582796335,-0.17599482827689497,-0.3761965346366167
1761430250454545200,3.110545166015625,0.514047839012742,-0.2577010515829548,-0.5902126486741006
1761430250474488300,3.13048828125,0.37160219258368016,-0.23977979310825465,-0.6503826013460755
1761430250494432300,3.150432373046875,-0.02092763721644878,-0.2885984768129885,-0.6234766203723847
1761430250514375200,3.170375244140625,-0.32855566253960133,-0.13294206942142917,-0.47486003022342915
1761430250534319000,3.190319091796875,-0.5261182160347699,0.09445037140380591,-0.12704846307188272
1761430250554262300,3.21026220703125,-0.4661240583211183,0.2915116791122593,0.20859072798788547
1761430250574206500,3.23020654296875,-0.1442874749034643,0.2656093587557785,0.3978665146529674
1761430250594149400,3.2501494140625,0.18021394380927086,0.15912008318044243,0.4654734854578972
1761430250614093300,3.27009326171875,0.2918774984836578,0.02772602865230292,0.4014002417370677
1761430250634036200,3.2900361328125,0.1312736795514822,-0.042179136092402036,0.17644567731693386
1761430250653980200,3.309980224609375,-0.005459434449672698,-0.0647396352076903,0.05387187544107437
1761430250673923300,3.32992333984375,-0.07588380076289176,-0.037497846408374606,-0.02658405554294586
1761430250693867300,3.3498671875,0.026356676527857777,0.03557897064238787,-0.08790858507752418
1761430250713810200,3.36981005859375,0.060546530899405475,0.037161837653350085,-0.10327098938226699
1761430250733754000,3.389754150390625,0.10702829608917236,0.05181030326876789,-0.09043927259892225
1761430250753697300,3.409697265625,0.0728846189469099,-0.07789009908400475,-0.1426274327367544
1761430250773641500,3.429641357421875,-0.0007347440153360367,-0.0448670600021258,-0.06813260211423039
1761430250793584400,3.44958447265625,-0.09062719638645649,0.03300413345200941,0.042625674283504486
1761430250813528300,3.4695283203125,-0.11762860055863857,0.1313682624997571,0.06967106372788548
1761430250833471200,3.48947119140625,0.02893909423649311,0.14210503456415607,0.14501929630935192
1761430250853415200,3.509415283203125,0.10925532448887824,0.0766971081734635,0.10012319287583231
1761430250873358300,3.5293583984375,0.0660047963052988,0.12469167081266641,0.05062105695158243
1761430250893301200,3.54930126953125,0.020756372302770613,0.06651707494268193,0.017666297332942484
1761430250913245200,3.5692451171875,-0.033095044872164726,0.06407715271096676,-0.03436331124231219
1761430250933188000,3.58918798828125,0.14769640656411648,0.10170932955611496,-0.020665917540341614
1761430250953132000,3.609132080078125,0.33836686245799064,0.02439472880512476,-0.04940642046481371
1761430250973075200,3.6290751953125,0.40140521017313,-0.09699620169540867,-0.13305983231589197
1761430250993019400,3.649019287109375,0.2854641243100166,-0.21752600358827037,-0.15280322818383574
1761430251012962300,3.66896240234375,0.2838876687735319,-0.11747172949649393,-0.03423135542571545
1761430251032906200,3.68890625,0.25630992601811886,-0.021062625240348277,0.09238017753362655
1761430251052849400,3.708849365234375,0.04571721055805683,0.003557117092842236,0.1467149943113327
1761430251072793300,3.72879345703125,-0.12524492078125476,0.07767041931818239,0.2545356098219752
1761430251092736300,3.748736328125,-0.19844459702670572,0.1827497824298218,0.29652824689894913
1761430251112680200,3.76868017578125,-0.3910410525470972,0.08955601435783318,0.23905615500882266
1761430251132623000,3.788623046875,-0.3335778746157884,-0.019212248133309184,0.1640545439079404
1761430251152567000,3.808567138671875,-0.14061726195812224,-0.10107926975795999,0.17230521651133893
1761430251172510200,3.82851025390625,-0.13610183036029339,-0.019247008919436485,0.18258681042045355
1761430251192454400,3.848454345703125,-0.15773498549759388,0.03714640262220054,0.14843860323354602
1761430251212397300,3.868397216796875,-0.19800445204377173,0.051491026452835646,0.25660394052863117
1761430251232341200,3.88834130859375,-0.13980653009712696,0.09911775129348971,0.1878866703942418
1761430251252284400,3.908284423828125,0.025024551141262053,0.1062293916632887,0.13498553968146443
1761430251272228400,3.928228271484375,0.15032032532691955,0.09025418008929117,0.0691001319721341
1761430251292171500,3.948171630859375,0.17856091590523718,0.05644914205055684,-0.007312953361868858
1761430251312115500,3.968115478515625,0.14671324074566364,-0.0005836999057792127,-0.019886603730916975
1761430251332058400,3.988058349609375,0.062246320554614064,0.02123210005573928,-0.12168576699495315
1761430251352002300,4.008002197265625,0.13546236341297627,-0.046609117896482345,-0.09438026530966162
1761430251371945500,4.027945556640625,0.20717501597106455,-0.00531989811481908,-0.06338146206438541
1761430251391889700,4.0478896484375,0.2961211274027824,0.007674991607293486,-0.01747325897887349
1761430251411832600,4.06783251953125,0.15778759246766566,-0.00797022996051237,-0.0757969992622733
1761430251431776500,4.087776611328125,-0.05552081169188022,-0.0657461819017306,-0.11849690782576798
1761430251451719400,4.107719482421875,-0.1131178451359272,-0.07679521651938558,-0.014149229122698306
1761430251471663400,4.127663330078125,-0.010804887130856514,0.028079335602000353,0.10564692473337053
1761430251491606500,4.1476064453125,0.009869067585468292,0.08125214112931863,0.13035802601128815
1761430251511550500,4.167550537109375,0.01460135680437088,0.052111094579938795,0.16547756244838238
1761430251531493400,4.187493408203125,0.0762397745937109,-0.021405228132940827,0.09505641100555658
1761430251551437300,4.207437255859375,0.04147124355137348,-0.07619569798996671,0.11774039037004112
1761430251571380500,4.22738037109375,-0.005599719703197479,-0.05243689246820286,0.10279022012799978
1761430251591324700,4.24732470703125,-0.013704700225591658,-0.049372116336412725,0.03898877908587456
1761430251611267600,4.267267578125,0.09917875163257121,0.02789681864194572,0.10111308069601654
1761430251631211500,4.28721142578125,0.10036533106863497,0.011564053201396017,0.14724194079488515
1761430251651154400,4.307154541015625,0.057660746330022807,0.007026300173904747,0.10417524474561214
1761430251671098400,4.327098388671875,0.10853753160834312,-0.0516733424834907,0.07512070743590593
1761430251691041500,4.34704150390625,0.16422668560445308,-0.15443380679404362,0.04091010253727436
1761430251710985500,4.3669853515625,0.18091829268634319,-0.18261738822180776,-0.0017335457943379877
1761430251730928400,4.386928466796875,0.12020341948270798,-0.16722630581185222,0.029671207903325555
1761430251750872300,4.406872314453125,-0.007923194214701652,-0.029897070814762262,0.07415726923123002
1761430251770815500,4.4268154296875,-0.11825637706816196,0.014631587545853107,0.17383023412153123
1761430251790759700,4.446759765625,-0.09873568404018879,0.009939484206866472,0.1236769408121705
1761430251810702600,4.46670263671875,0.05435644408762454,-0.013872585872095078,0.15227730461359024
1761430251830646500,4.486646484375,0.16497838075459004,-0.0367096003738232,0.15953136739507318
1761430251850589400,4.50658935546875,-0.050697921580076216,0.0034543599712662395,0.0962460591815412
1761430251870533400,4.526533447265625,-0.15671148766875267,0.05739586658244952,0.09413608129024505
1761430251890476500,4.5464765625,-0.14306991580724715,0.08528053812887519,0.036199440628290176
1761430251910420500,4.56642041015625,-0.12458148843646048,0.0607947883057408,0.049735360158234834
1761430251930363400,4.58636328125,0.06417874992191791,0.0024140754044055935,0.09497472407147288
1761430251950307600,4.6063076171875,0.21272563583552836,-0.02478845909675583,-0.003288227890431881
1761430251970250500,4.62625048828125,0.2899801404297352,-0.04148074203208089,0.011789221993088721
1761430251990194400,4.6461943359375,0.27389292898178097,-0.13523712155604733,-0.06836173469498753
1761430252010137600,4.6661376953125,0.12162848384976387,-0.21135904192375018,-0.15711626907736062
1761430252030081500,4.68608154296875,-0.08710545200109482,-0.1875401037125848,-0.10458835559114814
1761430252050024400,4.7060244140625,-0.08341478078961372,-0.031777550799120216,-0.04199307546839118
1761430252069968400,4.725968505859375,0.009796586871147156,0.00766421448495239,0.05348462968915701
1761430252089911600,4.74591162109375,0.059201546031236646,-0.013758622369915246,-0.000398059406876564
1761430252109855500,4.76585546875,-0.03323708369135856,-0.06731193338111043,-0.0030789690539240835
1761430252129798400,4.78579833984375,-0.11824293306469917,-0.07600929030608386,-0.008154080361127853
1761430252149742600,4.80574267578125,-0.10213117169737815,-0.028147852527257055,0.0006925123088061809
1761430252169685500,4.825685546875,-0.038003859701752664,0.08364405950084328,0.0454199811771512
1761430252189629400,4.84562939453125,-0.013726912057399749,0.10043240495547652,0.04627250635325909
1761430252209572600,4.865572509765625,0.12356325130462646,0.03558218551278114,0.020264935524016616
1761430252229516500,4.8855166015625,0.27965514577031136,-0.019976510504074393,-0.02336699319258332
1761430252249459000,4.905458984375,0.20650398484170435,-0.044896322629228234,-0.01336582366004586
1761430252269403100,4.925403076171875,0.1389104580402374,-0.01950337656699121,0.017934300619363783
1761430252289346300,4.94534619140625,0.04158873245120048,0.030388270131498574,0.0774037038065493
1761430252309290200,4.965290283203125,-0.06023264264464378,0.05429718818105757,0.034076895516365766
1761430252329233200,4.985233154296875,-0.043217210435867306,0.08734682300891727,0.044828445024788374
1761430252349176000,5.005176025390625,0.05485796386897564,0.09470913193784654,0.05497457598596811
1761430252369120000,5.0251201171875,0.09954057068228721,0.059463740631379186,0.029931174013763665
1761430252389064200,5.045064208984375,0.06291326003074646,0.037241935418546195,0.019572277084738014
1761430252409007000,5.065007080078125,0.0022118308305740355,0.016520597896538675,-0.03735314070805907
1761430252428950000,5.084949951171875,0.12033142977654933,-0.026206710130535063,-0.017261223663389683
1761430252448894000,5.10489404296875,0.20014146407246589,-0.015299239408038555,-0.01754603195413947
1761430252468837000,5.124837158203125,0.0931143370270729,-0.015770765909925103,-0.006042348904162645
1761430252488781300,5.14478125,-0.03498948031663895,-0.012243651229701936,-0.04291515874937177
1761430252508724200,5.16472412109375,-0.03978372885584831,-0.04458711054958403,-0.09125745711401105
1761430252528668200,5.184668212890625,0.09309037162959576,-0.004494571472890675,-0.06275207811966538
1761430252548611000,5.204611083984375,0.1439525438606739,0.02659991069920361,0.006320435193181037
1761430252568555000,5.224554931640625,-0.00709025052189827,0.03647796530872583,-0.023360125060379502
1761430252588498200,5.244498291015625,-0.07520809345841407,0.03129818805065006,-0.01652165734246373
1761430252608442000,5.264442138671875,-0.09595394436717034,0.08170509079489857,0.03905497618988156
1761430252628385000,5.284385009765625,0.05874971061050892,0.05903879321757704,0.10796645372211933
1761430252648329000,5.304328857421875,0.28861352825164793,-0.044516675661876795,0.3025727877601981
1761430252668272000,5.324272216796875,0.28272330116927624,-0.029560733266174793,0.2077194981113076
1761430252688216300,5.34421630859375,0.09431202237904071,-0.036714587076194585,0.21309753788784144
1761430252708159200,5.3641591796875,-0.12533318358659742,0.06429813851788639,0.16042963140904903
1761430252728103200,5.384103271484375,-0.12900281201004982,0.13476897432133556,0.19633871078863738
1761430252748046000,5.404046142578125,-0.0014735796838998795,0.05176233594119548,0.12236775790974497
1761430252767990000,5.423989990234375,0.09770108029544353,-0.08268657611291855,0.042068186531215905
1761430252787934000,5.443933837890625,0.10101531940996647,-0.21039427027851343,-0.05116466230899095
1761430252807877000,5.463877197265625,0.08206395070254802,-0.21091248546633867,-0.07875877167731524
1761430252827820000,5.483820068359375,0.0780389329701662,-0.1774901814011857,-0.0956695744678378
1761430252847764000,5.503763916015625,0.11394377456605434,-0.1517161635994911,-0.08499109019562602
1761430252867707100,5.52370703125,0.10210545273423194,-0.1147063564363867,-0.06777969702333211
1761430252887651300,5.5436513671875,-0.021989713490009305,-0.04868754987204447,-0.04773293429464102
1761430252907595300,5.56359521484375,-0.2047638631761074,-0.13520656202100217,-0.10207958764061331
1761430252927538200,5.5835380859375,-0.05243979681134223,-0.16584707161420956,-0.17945976444110273
1761430252947481000,5.603481201171875,0.15184885006844998,-0.190472850962542,-0.12681436205506325
1761430252967425000,5.623425048828125,0.19125497778356074,-0.0666370480605401,0.018673136287927626
1761430252987369000,5.643368896484375,-0.03809095346331596,0.07966372116040438,0.09259776580706239
1761430253007312100,5.66331201171875,-0.18137538880407808,0.11968133183736353,0.03717193892225623
1761430253027256000,5.683256103515625,-0.15435586445331573,0.08061181566547602,-0.003791062846034765
1761430253047199000,5.703198974609375,-0.03819733644723892,0.15319704980701207,0.06724705145135522
1761430253067143200,5.72314306640625,-0.049209144327044485,0.190065293074958,0.08570683724954724
1761430253087086000,5.743086181640625,0.03369417980909347,0.2512734662208706,0.0666407561212778
1761430253107030300,5.7630302734375,0.1648001015782356,0.18477628328874707,0.17962708383202552
1761430253126973200,5.78297314453125,0.3792348794192075,0.05167882237620652,0.14438552845045924
1761430253146917000,5.802917236328125,0.39737434722185133,-0.08275430758688598,0.08840572094470261
1761430253166860000,5.822860107421875,0.14423603697717188,-0.027585907795559615,0.11549392661750316
1761430253186804000,5.842803955078125,0.029134909069538115,0.020404928516596553,0.07455328281149268
1761430253206747100,5.8627470703125,0.1094184060961008,-0.03397712493631989,0.10212518034800887
1761430253226691000,5.882691162109375,0.11115443610846995,-0.050388508571032435,0.13151231061294674
1761430253246633700,5.9026337890625,0.06127835230529308,-0.05928712368914857,0.16338059016913176
1761430253266578000,5.922577880859375,-0.14758768549263476,-0.0919025866171345,0.17692220878750084
1761430253286520800,5.942520751953125,-0.15785422796308993,-0.13886488359915092,0.15441870055645704
1761430253306465000,5.962465087890625,-0.033716391640901566,-0.2080557443283498,0.1520280060276389
1761430253326408000,5.982407958984375,-0.045907764694094653,-0.21697213256517425,0.049949879691749806
1761430253346351900,6.002351806640625,-0.13179448855519293,-0.1616503871093504,0.06876067088469863
1761430253366294800,6.022294677734375,-0.1745043339908123,-0.130890653316956,0.020613456700742244
1761430253386238700,6.04223876953125,-0.09768179107308388,-0.07573063776148482,0.043982787980884314
1761430253406182000,6.062181884765625,-0.07430792974829674,0.05105692761819809,0.05186331209763884
1761430253426125800,6.082125732421875,-0.11484686088562011,0.059059032288007435,0.06669248630851507
1761430253446068700,6.10206884765625,-0.2689952200680971,0.01910001993048936,0.04566854911074042
1761430253466013000,6.122012939453125,-0.2292851409703493,0.046123435005079955,-0.010694412493705749
1761430253485955800,6.141955810546875,-0.15440204168260097,0.03133134140158072,0.039934097111970185
1761430253505900000,6.161900146484375,-0.30179215877652166,0.09998710887338966,-0.0032709844946861265
1761430253525843000,6.181843017578125,-0.49415714362859725,0.25287492833444847,-0.0053336161129176616
1761430253545787000,6.201786865234375,-0.3890747209101915,0.34562077910900113,0.003866904561221599
1761430253565729800,6.221729736328125,-0.00570727173089981,0.29092794267386196,-0.07835735126957297
1761430253585673700,6.241673828125,0.3731295482814312,0.11582794434484094,-0.1038543422281742
1761430253605617000,6.261616943359375,0.5536024352878332,-0.056636152522638435,-0.17791531147807835
1761430253625560800,6.281560791015625,0.519838697373867,-0.09116619863398373,-0.13751871142089367
1761430253645503700,6.301503662109375,0.4600555520623922,-0.04835015287753194,-0.09631605567783116
1761430253665448000,6.321447998046875,0.46386078956425186,0.050773909425735474,-0.013941285460442304
1761430253685390800,6.341390869140625,0.5672568666309118,0.11374014175273478,0.0895849938571453
1761430253705334800,6.361334716796875,0.5372036736726761,0.01553264630511403,0.09661036244928836
1761430253725279000,6.381279052734375,0.46749125502109523,-0.13577763990722597,0.08951704318746924
1761430253745222000,6.401221923828125,0.29161797076463697,-0.20107078081183136,0.106306265424937
1761430253765165800,6.421165771484375,0.0638350510507822,-0.21205471430402248,0.14309227376952766
1761430253785108700,6.441108642578125,-0.04220481852293014,-0.20787081621550021,0.1322263041011989
1761430253805052700,6.461052734375,-0.1793535275876522,-0.08508209294732659,0.22883242876678703
1761430253824995800,6.480995849609375,-0.20592180103957652,0.04771565436627716,0.3203220872014761
1761430253844940000,6.50093994140625,-0.12768120801746843,0.05627029661862179,0.38783217350319027
1761430253864883000,6.520883056640625,-0.21833061623573302,0.00691608126508072,0.34798239367380734
1761430253884827000,6.540826904296875,-0.29199381833970545,-0.10023034304473548,0.24540377046987413
1761430253904769800,6.560769775390625,-0.2286708084642887,-0.12274243644103407,0.1840744186297059
1761430253924713700,6.580713623046875,0.02343815873265266,-0.0697563308585435,0.18501228400170802
1761430253944657000,6.600656982421875,0.2444827101022005,0.023446926560997963,0.1979638277724385
1761430253964600800,6.620600830078125,0.2960843025237322,0.07878982440270484,0.14146715678572655
1761430253984543700,6.640543701171875,0.20587211667895317,0.06106533060912042,0.07255640990585088
1761430254004487700,6.66048779296875,-0.04818623102009296,0.017978066695854066,-0.04437880156114697
1761430254024430800,6.680430908203125,-0.09055062401890754,0.030714141084998845,-0.10611001220047474
1761430254044375000,6.700375,0.06323650063574314,0.03657097735442221,-0.15494988482370972
1761430254064318000,6.72031787109375,0.1048649805754423,0.1201253127451986,-0.10836071373671292
1761430254084262000,6.740261962890625,0.06204758311212062,0.22322094556055963,-0.023804800087958572
1761430254104204800,6.760204833984375,-0.022902736681699752,0.14457491354271768,0.006465396621823311
1761430254124148700,6.780148681640625,-0.10527356137633323,0.033859855232201516,-0.035610973215848205
1761430254144092000,6.800091796875,-0.006548983252048492,-0.14218169826325028,-0.06660670772120356
1761430254164035800,6.820035888671875,0.12153145321607589,-0.20303451863285152,-0.0737878513969481
1761430254183978800,6.839978759765625,0.1463701263964176,-0.17950915654078126,-0.05892872043922543
1761430254203922700,6.859922607421875,0.03951134165525436,-0.14328856352660804,-0.029381431176513432
1761430254223865900,6.879865966796875,-0.16424071412980557,-0.021273637642525135,-0.0361645154453814
1761430254243810000,6.89981005859375,-0.17959493512809274,0.08914517766777426,0.027563860360533
1761430254263753000,6.9197529296875,-0.04998538939654827,0.06918408392854035,0.026965456075966357
1761430254283697000,6.93969677734375,0.03763853352069855,0.018777546510472892,0.04259191814437508
1761430254303639800,6.959639892578125,0.13848083445131779,0.06794584737047553,0.048587213036417956
1761430254323583700,6.979583740234375,0.19963234550654888,0.11543510910235345,0.02077303117662668
1761430254343527000,6.99952685546875,0.27288696680963037,0.15932177976500242,0.028852731127291916
1761430254363470800,7.019470947265625,0.25921967598497864,0.11136216057501733,0.029236177486926314
1761430254383413800,7.039413818359375,0.22534078725874424,0.02985357873290777,0.0373114935234189
1761430254403358000,7.05935791015625,0.12833587253391743,-0.04036379376612603,-0.02588189862295985
1761430254423300900,7.07930078125,0.09017068479061126,-0.013991737006045878,0.03132423580735922
1761430254443245000,7.0992451171875,0.039838673913478846,0.023359796266816554,-0.014856354478746652
1761430254463188000,7.11918798828125,-0.008969488397240637,0.05494162356443703,0.07470905789509415
1761430254483132000,7.1391318359375,0.053344052174687386,0.026074863911792635,0.040425095499306916
1761430254503074800,7.15907470703125,-0.12330547715127467,-0.031023608892969786,0.0212733819141984
1761430254523018800,7.179018798828125,-0.10468494783341883,-0.026163236314989624,0.0621595190539956
1761430254542962700,7.198962646484375,0.035223289072513576,-0.04388564774934202,0.056861851037293666
1761430254562905900,7.21890576171875,0.09609072248935699,0.026691278777085242,0.10361921829804778
1761430254582850000,7.23885009765625,0.08047638925015926,-0.04989730925429612,0.008418138124793768
1761430254602793000,7.25879296875,0.08545300861895083,-0.04811210633795708,-0.0016647183418273925
1761430254622737000,7.27873681640625,0.13241700436770915,-0.008647709096968173,0.06682429599463939
1761430254642679800,7.2986796875,0.13473580270409583,0.051015024705231185,0.08104819778874515
1761430254662624000,7.3186240234375,0.08948270252645016,0.11968567921891808,0.05893500404953956
1761430254682567000,7.33856689453125,-0.06249824948906898,0.05461924147596582,-0.006327887847274541
1761430254702510800,7.3585107421875,-0.21525193944275378,-0.047596704161725935,-0.029895225917547938
1761430254722453800,7.378453857421875,-0.1641214716643095,-0.030551187341939658,-0.024003099139034745
1761430254742397700,7.398397705078125,0.0830757580935955,-0.021412370259780437,-0.005691928031295538
1761430254762340900,7.4183408203125,0.23904198035299776,-0.07577617566995322,-0.052731034842878576
1761430254782285000,7.43828515625,0.1643961969524622,-0.15997533003659917,-0.09326134428232907
1761430254802228000,7.45822802734375,-0.03213409088551998,-0.08120612829681485,-0.025857640964537857
1761430254822172000,7.478171875,-0.15083938076496123,0.050959714321419596,-0.08076353562846779
1761430254842114800,7.49811474609375,-0.12926760042607782,0.021924374902527778,-0.09194733907431364
1761430254862058800,7.518058837890625,0.004748071309924125,0.10342267281264066,0.004745440961420536
1761430254882002000,7.538001953125,0.22402444396317003,0.09672017949931323,0.10093670121580361
1761430254901945900,7.55794580078125,0.39144028099775313,0.04846482876576483,0.13205869244933127
1761430254921888800,7.577888671875,0.26792963666319847,0.017751381800509988,0.08632540753930806
1761430254941832700,7.597832763671875,-0.071782210662961,0.07952763715796173,0.14018062410652637
1761430254961775900,7.61777587890625,-0.23327742547690866,0.20751677861344067,0.15365312301144002
1761430254981720000,7.637719970703125,-0.08851239618957042,0.24314547014907,0.14494886142164468
1761430255001663000,7.6576630859375,0.15100363141596315,0.025533925435505807,0.0641705666154623
1761430255021607000,7.67760693359375,0.11640636528730391,-0.11630743495747446,0.07067395716011524
1761430255041549800,7.6975498046875,-0.02523030284643173,-0.07880239162333309,0.048492666620761155
1761430255061493800,7.71749365234375,-0.07081716502308845,-0.03232442582584917,0.030699235776811835
1761430255081437000,7.73743701171875,0.026982114949822424,0.006335486631840467,-0.0128118430390954
1761430255101380900,7.757380859375,0.1572708751171827,-0.04846362318936735,-0.06771247700601815
1761430255121323800,7.77732373046875,0.13333178112506866,-0.11816197678297757,-0.07097527819424868
1761430255141267700,7.797267822265625,-0.04246025458872318,-0.08315410229312256,-0.025344138484448192
1761430255161211000,7.8172109375,-0.11535773301720618,-0.014394509120658039,0.004236468525975943
1761430255181155000,7.837155029296875,-0.038406595283746715,0.10920363083425909,0.047671851757168766
1761430255201098000,7.857097900390625,0.18830957198143003,0.10732377190440892,0.03513473400622606
1761430255221042000,7.8770419921875,0.3353881389081478,0.022619535826146602,0.10793196693062782
1761430255240984600,7.896984619140625,0.16409633722305297,-0.02032415489796549,0.027843261823803186
1761430255260928500,7.916928466796875,0.021108839002251623,-0.012592574265226721,0.07678966356143355
1761430255280871700,7.93687158203125,-0.0479711269646883,0.06217787669459358,0.07136968433931469
1761430255300815600,7.956815673828125,-0.018019640815258024,0.14183387120626867,0.11215221497416496
1761430255320758500,7.976758544921875,0.047288405397534365,0.09711396458987145,0.09736687990501522
1761430255340702700,7.99670263671875,0.0482540355592966,0.0065786842705681916,0.08537672851234673
1761430255360646000,8.01664599609375,0.030227965003252026,-0.03918026480367407,0.037144904784858226
1761430255380589800,8.03658984375,-0.00036298809349536896,-0.12666432259250432,0.004061550350487232
1761430255400532700,8.05653271484375,0.023547464326024056,-0.056921490536350754,-0.025337124221771954
1761430255420476700,8.0764765625,-0.06260755508244037,0.04450246447343379,0.005403466478735209
1761430255440419600,8.096419677734374,-0.12428513583838939,0.030105398069508373,-0.07122633034586906
1761430255460363500,8.116363525390625,0.005396306085586547,0.015559643909893929,0.005738251391053199
1761430255480306700,8.136306640625,0.18183833014070985,-0.0198617980832234,0.02158347077667713
1761430255500250600,8.156250732421874,0.2338952651143074,-0.14919957766868172,-0.0302237272195518
1761430255520193500,8.176193603515625,0.23281565318405628,-0.1814280688393861,0.019592735350877046
1761430255540137700,8.1961376953125,0.11150222663283348,-0.040151539254933595,-0.04216916268765926
1761430255560080600,8.21608056640625,0.06628770489990711,0.07990195036306977,0.06870046513006091
1761430255580024800,8.23602490234375,0.10073299533724785,0.19040528388535602,0.11172419882044196
1761430255599967700,8.2559677734375,0.08635960206985473,0.1458007107443176,0.18651319008395076
1761430255619911700,8.27591162109375,0.1640916610479355,0.056484377760719504,0.12783508340492844
1761430255639854600,8.2958544921875,0.239293324765563,-0.004618910238612443,0.0589366114847362
1761430255659798500,8.315798583984375,0.11545067199766636,0.07074895862508565,0.08721037368029355
1761430255679741700,8.33574169921875,-0.08324526944160461,0.1314900805148296,0.07381517779529094
1761430255699685600,8.355685546875,-0.2088771437138319,0.14545882023777812,0.10351049722656606
1761430255719628500,8.375628662109374,-0.21279168680906294,-0.020569727156870065,0.06731427146866917
1761430255739572700,8.39557275390625,-0.1333048931181431,-0.06605656302515417,0.010572247418761253
1761430255759515600,8.415515625,-0.07983867586851119,-0.11988379560690372,0.04069543687328696
1761430255779459800,8.4354599609375,-0.12083996382057666,-0.1077495595684275,0.06936097486540675
1761430255799402800,8.45540283203125,-0.15335282489061355,-0.09751366796456276,0.0792155755341053
1761430255819346700,8.4753466796875,-0.12247896319925784,-0.11772687330134213,0.027940292457491158
1761430255839289600,8.49528955078125,-0.045430210310220716,-0.1512081227458082,-0.033211218597739935
1761430255859233500,8.515233642578124,0.17693652957379816,-0.11408740255413577,-0.03614566461443901
1761430255879176700,8.5351767578125,0.200428464320302,-0.031148148588091132,0.05787848073393106
1761430255899120600,8.55512060546875,0.03944236807227135,0.0812695671881549,0.051701399534195655
1761430255919063600,8.5750634765625,-0.0071586395829916,0.08036589634669944,-0.033263241045922036
1761430255939007700,8.5950078125,0.03852700679302215,0.11801818439811468,0.010430793121457099
1761430255958950700,8.61495068359375,0.23060849852859971,0.1502293043089099,0.03495440900325775
1761430255978894600,8.63489453125,0.3200426857382059,0.16061494311438873,0.17952464637085794
1761430255998837800,8.654837646484374,0.09582418050765991,0.1659169219800271,0.09412819024473427
1761430256018781700,8.67478173828125,-0.06709492962956429,0.10753726852461695,-0.011951134556531906
1761430256038724600,8.694724609375,-0.13201134617626667,0.008335629206802695,-0.06468421522602438
1761430256058668500,8.71466845703125,0.011574702459573745,-0.011397354864981024,-0.03207476191371679
1761430256078611700,8.73461181640625,0.17242694319486618,-0.0481480179015547,0.06852656986787915
1761430256098555600,8.7545556640625,0.05048281752467155,-0.0036223734819330273,0.06352408540546893
1761430256118498600,8.77449853515625,-0.0858037217527628,-0.023886925413459537,-0.0009086392775177955
1761430256138442800,8.79444287109375,-0.1776794568955898,-0.061403476522304115,-0.04740969368964433
1761430256158385700,8.8143857421875,-0.08550210845768451,-0.0077197805970907205,0.008417845863848925
1761430256178329600,8.83432958984375,0.11930091768503188,-0.04699577912651002,0.1086987135194242
1761430256198272800,8.854272705078126,0.16592589073777197,-0.05041596283353865,0.08738646089956163
1761430256218216700,8.874216796875,0.013590133935213088,-0.026929855039622634,0.045909518259763714
1761430256238159600,8.89415966796875,-0.013840309303998946,-0.011651384424977004,0.00947042365670204
1761430256258104000,8.91410400390625,0.025200492230057714,0.02595837965896353,0.061144789053499696
1761430256278047000,8.934046875,0.07849193743467331,0.029769170118775216,0.10214213148280978
1761430256297991200,8.9539912109375,0.18960311892330645,0.009344769716728478,0.10196794395968317
1761430256317934300,8.973934326171875,0.24777123025357722,-0.04666243725260719,0.04778247252479195
1761430256337878300,8.993878173828126,0.16241525226831435,-0.09070519352611153,0.022294103264063597
1761430256357821200,9.0138212890625,0.13732640371918678,-0.06701108727101236,0.07585472079887985
1761430256377765000,9.03376513671875,0.17343758154213426,0.018045743370894343,0.10720759817883371
1761430256397708300,9.053708251953125,0.07918401135206223,0.0934559170063585,0.09472922487780451
1761430256417652200,9.07365234375,-0.06763385881185531,0.0032979820994660258,0.059817632102966305
1761430256437595100,9.09359521484375,-0.1800549538552761,0.015627484981715678,0.01200929448455572
1761430256457539000,9.1135390625,-0.17453765173852442,0.04198198781879618,0.0167746091902256
1761430256477482000,9.13348193359375,-0.006959317618608474,0.048297600706387306,-0.006414397086948156
1761430256497426200,9.15342626953125,0.13108312541544437,-0.04177139554172754,-0.027381927922368047
1761430256517370000,9.1733701171875,0.17734335680902003,-0.12160581536022945,-0.06185118375718593
1761430256537313300,9.193313232421875,0.08075754427909851,-0.048513691142480816,-0.010211012890934944
1761430256557257200,9.21325732421875,-0.056093643143773075,0.050159540387056764,0.050331280224770306
1761430256577200000,9.2332001953125,-0.10665537112355232,-0.003818809369485825,0.037864158970117565
1761430256597144000,9.25314404296875,0.026786884638667106,-0.04360480324765667,0.03557926290333271
1761430256617087200,9.273087158203126,0.1468026725947857,-0.09220237328130751,0.06195303669646382
1761430256637031200,9.29303125,0.12587269729077816,-0.08256108656972647,0.06748918964415788
1761430256656974000,9.31297412109375,0.051044543060660356,0.0046055393003858625,0.10346636582389473
1761430256676918300,9.332918212890625,0.023536358410120008,0.0816222348170355,0.1098382389433682
1761430256696861200,9.352861083984376,0.007810381489992141,0.017128336265031248,0.05726414822787046
1761430256716805000,9.37280517578125,-0.06215396609604358,-0.046006987284868954,-0.03533040270879864
1761430256736748300,9.392748291015625,-0.00929272900223732,-0.03081179277319461,-0.025683599571883677
1761430256756692200,9.412692138671876,0.14097908100783824,0.02145708618434146,-0.009251227948069572
1761430256776635100,9.43263525390625,0.12467618098258972,-0.028351211345940826,0.01470174843892455
1761430256796579000,9.4525791015625,0.012526888617873192,-0.07331997815687209,0.00026347324177622796
1761430256816522200,9.472522216796875,-0.10870002869367598,-0.048282311805710194,-0.039975159774720666
1761430256836466200,9.492466064453126,-0.07769231148958206,0.07639640819383785,0.03927621772512793
1761430256856409000,9.5124091796875,0.12442951274514198,0.11149241762487218,0.07787000614404678
1761430256876353300,9.532353271484375,0.2933580924302339,0.02375339869428426,0.07868336835354565
1761430256896296200,9.552296142578125,0.20329846679866312,-0.0027910372243262825,0.06302928762584924
1761430256916240100,9.572240234375,-0.06735679543614387,-0.029872520895395428,0.0005076572611927986
1761430256936183300,9.592183349609375,-0.15715338621735572,0.03259896845091134,0.02182400153428316
1761430256956127200,9.612127197265625,-0.05229249729514122,0.10366367849428205,0.07504340441599487
1761430256976070100,9.632070068359376,0.09959668478369713,0.15495109040010718,0.08554331725090741
1761430256996014000,9.65201416015625,0.1438689572304487,0.10365761407967657,0.09386968543902038
1761430257015957000,9.67195703125,0.07952128048241137,-0.02636471370384097,0.0479535913079977
1761430257035901200,9.691901123046875,0.024483283871412277,-0.11208959806673228,0.07861322572678327
1761430257055844000,9.711843994140626,0.28331483732163903,-0.05855743944142013,-0.1462317408390343
1761430257075788300,9.731788330078125,-0.022076807251572607,-0.057079293180257076,0.5343599746793508
1761430257095731200,9.751731201171875,-0.1971820297449827,0.05795002986649051,-0.038298166473209855
1761430257115675100,9.771675048828126,-0.2759130366325378,-0.10737732872255146,0.1533450799755752
1761430257135618300,9.791618408203124,-0.19838380675017833,0.1097957149758935,-0.15798472247496245
1761430257155562200,9.811562255859375,-0.03987842140197754,-0.027987675263173875,-0.024808131911605594
1761430257175505200,9.831505126953125,0.026419220370054244,-0.014283961418271063,-0.02629734755605459
1761430257195449000,9.851448974609376,-0.0002741407662630081,0.17513598295785485,0.020399667819589375
1761430257215392000,9.87139208984375,0.22468203108906745,0.14705471112709492,0.05070011353716254
1761430257235336200,9.891336181640625,0.22330898917019365,0.04200531389545649,-0.06519888674989342
1761430257255280000,9.911280029296876,0.01326981593966484,0.01684150041397661,0.03557064120545983
1761430257275223000,9.93122314453125,0.14013327783346174,0.004841156420856714,-0.04787760346233844
1761430257295167000,9.9511669921875,0.4814753567099571,-0.11068243468254804,0.040569034014642236
1761430257315110000,9.97110986328125,0.3118821756362915,0.00024867753144353625,-0.030406098049134016
1761430257335053800,9.9910537109375,0.1054144311517477,0.03732413380928337,0.020317980885505675
1761430257354997000,10.0109970703125,-0.053875382572412485,0.026415384445153175,0.0017678864553570747
