time,seconds_elapsed,z,y,x
1761430247423135500,0.079135498046875,-0.04741233214735985,0.043224211782217026,-0.1015099361538887
1761430247443079700,0.09907958984375,-0.03453335538506508,0.024493109434843063,0.009212280623614788
1761430247463022600,0.119022705078125,-0.023585503920912743,-0.036750324070453644,0.08976005017757416
1761430247482966800,0.138966796875,0.010711188428103924,-0.04294469580054283,0.06159244477748871
1761430247502909700,0.15890966796875,0.027181070297956467,0.025229236111044884,-0.02529500052332878
1761430247522853600,0.178853515625,0.02572382427752018,0.07234290987253189,-0.06021914258599281
1761430247542796500,0.198796630859375,0.022904938086867332,0.04879579693078995,0.009804717265069485
1761430247562740500,0.218740478515625,0.03694302588701248,-0.02763664349913597,0.10736338049173355
1761430247582683600,0.23868359375,0.06151141598820686,-0.1229887530207634,0.17223554849624634
1761430247602627600,0.258627685546875,0.07255781441926956,-0.19105026125907898,0.16603699326515198
1761430247622570500,0.278570556640625,0.050462428480386734,-0.18021777272224426,0.07611098885536194
1761430247642514700,0.2985146484375,0.03304572403430939,-0.09588362276554108,-0.019814427942037582
1761430247662457600,0.31845751953125,0.028625434264540672,-0.026895858347415924,-0.047062285244464874
1761430247682400800,0.33840087890625,0.002518734894692898,-0.001311189029365778,-0.06846650689840317
1761430247702344700,0.3583447265625,-0.03170434758067131,-0.0351199135184288,-0.10409273952245712
1761430247722287600,0.37828759765625,-0.052873484790325165,-0.04447231814265251,-0.11932771652936935
1761430247742231600,0.3982314453125,-0.06765230000019073,-0.0322704091668129,-0.0656091645359993
1761430247762174700,0.4181748046875,-0.04257497191429138,-0.030171386897563934,-0.0021773604676127434
1761430247782118700,0.43811865234375,-0.03658568859100342,0.003487121779471636,0.007084762677550316
1761430247802061600,0.4580615234375,-0.027249610051512718,-0.016054581850767136,-0.008091608993709087
1761430247822005500,0.478005615234375,-0.03332051634788513,-0.025210252031683922,-0.009299468249082565
1761430247841948400,0.497948486328125,-0.0313626304268837,-0.025612201541662216,0.011000043712556362
1761430247861892600,0.517892578125,-0.029821624979376793,-0.028316762298345566,0.004146315157413483
1761430247881835800,0.537835693359375,-0.025920862331986427,-0.005788961425423622,-0.029035193845629692
1761430247901779700,0.55777978515625,-0.03407605364918709,-0.012181002646684647,-0.060030292719602585
1761430247921722600,0.57772265625,-0.033350445330142975,-0.010876147076487541,-0.04885358363389969
1761430247941666600,0.59766650390625,-0.05651678517460823,-0.017433393746614456,-0.009715122170746326
1761430247961609700,0.617609619140625,-0.0752551257610321,-0.038616735488176346,-0.003114777384325862
1761430247981552600,0.637552734375,-0.09161728620529175,-0.06851310282945633,-0.03356148302555084
1761430248001496600,0.65749658203125,-0.10200990736484528,-0.06421967595815659,-0.09522680193185806
1761430248021439500,0.677439453125,-0.08776631951332092,0.010514350607991219,-0.10499236732721329
1761430248041383400,0.697383544921875,-0.083540178835392,0.058501891791820526,-0.03904080390930176
1761430248061326600,0.71732666015625,-0.08435840159654617,0.04441974684596062,0.039952632039785385
1761430248081270800,0.737270751953125,-0.06178512051701546,0.0020601730793714523,0.05532069876790047
1761430248101213700,0.757213623046875,-0.021699653938412666,-0.013716032728552818,0.02068926952779293
1761430248121157600,0.77715771484375,0.00806213915348053,-0.004577542655169964,0.0038949288427829742
1761430248141100500,0.7971005859375,0.008388780057430267,0.049413569271564484,0.014618746936321259
1761430248161044500,0.81704443359375,0.0017146264435723424,0.09006097167730331,0.008629828691482544
1761430248180987600,0.836987548828125,0.00029276692657731473,0.03857535868883133,-0.0013110842555761337
1761430248200931600,0.856931640625,0.016094498336315155,-0.08944077044725418,0.018090909346938133
1761430248220874500,0.87687451171875,0.03357991576194763,-0.10611922293901443,0.06885962933301926
1761430248240819000,0.89681884765625,0.02906535565853119,-0.03535012900829315,0.07364600896835327
1761430248260761900,0.916761962890625,0.014839548617601395,0.034805573523044586,0.041445594280958176
1761430248280706000,0.9367060546875,-0.013080528005957603,0.02290000580251217,0.0063501810654997826
1761430248300649000,0.95664892578125,-0.022764116525650024,0.00840759091079235,-0.04547949507832527
1761430248320592000,0.976591796875,-0.019836070016026497,-0.04837482422590256,-0.06187982112169266
1761430248340536000,0.9965361328125,-0.004070958588272333,-0.04989703744649887,-0.04346766322851181
1761430248360479200,1.016479248046875,0.006565110292285681,0.006949604023247957,0.0248130951076746
1761430248380423200,1.036423095703125,0.0093355942517519,0.02977747656404972,0.09997642040252686
1761430248400366000,1.056365966796875,0.015524152666330338,-0.002731134882196784,0.10362410545349121
1761430248420310000,1.07631005859375,0.030095268040895462,-0.04356563836336136,-0.0020946559961885214
1761430248440253000,1.0962529296875,0.029352813959121704,-0.03782416880130768,-0.08782285451889038
1761430248460196900,1.11619677734375,0.004011969547718763,-0.018502693623304367,-0.08166512846946716
1761430248480140000,1.13614013671875,-0.01022875215858221,0.03880320489406586,-0.04525759071111679
1761430248500084000,1.156083984375,0.0019915630109608173,0.046222880482673645,-0.005379745736718178
1761430248520027000,1.17602685546875,0.03678390011191368,-0.028835119679570198,0.0059892889112234116
1761430248539971000,1.19597119140625,0.06109040230512619,-0.08244973421096802,-0.03978787362575531
1761430248559914200,1.215914306640625,0.04619354382157326,-0.035833731293678284,-0.07281582802534103
1761430248579858200,1.235858154296875,0.0013485420495271683,0.025118021294474602,-0.08189602941274643
1761430248599801000,1.255801025390625,-0.01033015176653862,0.04184701666235924,-0.07558602839708328
1761430248619744000,1.275743896484375,-0.00328565645031631,0.023812739178538322,-0.01881134696304798
1761430248639688000,1.29568798828125,0.010930094867944717,0.0034202495589852333,0.04018115997314453
1761430248659631000,1.315631103515625,0.02443321980535984,-0.034579236060380936,0.030993571504950523
1761430248679575000,1.335574951171875,0.032373569905757904,-0.002832919592037797,-0.011598161421716213
1761430248699518000,1.35551806640625,0.024713018909096718,-0.03285519778728485,-0.03456178680062294
1761430248719462000,1.3754619140625,0.011080429889261723,-0.026834698393940926,0.001681238180026412
1761430248739404800,1.39540478515625,-0.016236642375588417,-0.017011402174830437,0.0184213574975729
1761430248759349000,1.415348876953125,-0.014670472592115402,0.02541487105190754,-0.00458664121106267
1761430248779292200,1.435292236328125,-0.013670455664396286,0.016616052016615868,-0.005843919236212969
1761430248799236000,1.455236083984375,-0.003933838102966547,-0.04090972989797592,0.032282210886478424
1761430248819179000,1.475178955078125,0.0016802040627226233,-0.054407548159360886,0.04810689389705658
1761430248839123000,1.495123046875,0.02081967703998089,-0.055165909230709076,0.04673876240849495
1761430248859066000,1.515066162109375,0.014971143566071987,-0.06817331165075302,0.043044574558734894
1761430248879010000,1.535010009765625,-0.004674394614994526,-0.05691850185394287,0.05763234198093414
1761430248898953000,1.554952880859375,-0.026989156380295753,-0.035476427525281906,0.057392191141843796
1761430248918897200,1.574897216796875,-0.02644979953765869,-0.004872368182986975,0.01577540673315525
1761430248938840000,1.594840087890625,-0.015413625165820122,-0.029186217114329338,0.007094717118889093
1761430248958784000,1.614783935546875,-0.004686016123741865,-0.04819271340966225,0.0421607531607151
1761430248978727200,1.63472705078125,0.0040071094408631325,0.007668910548090935,0.03742354363203049
1761430248998670000,1.654670166015625,-0.0030304936226457357,0.01944468915462494,-0.0031330373603850603
1761430249018614000,1.674614013671875,0.019334863871335983,0.030536169186234474,-0.009125754237174988
1761430249038557000,1.694556884765625,0.04537312686443329,-0.023278966546058655,-0.004496375098824501
1761430249058501000,1.714501220703125,0.07394617795944214,0.02671528048813343,0.005204852670431137
1761430249078444000,1.734444091796875,0.057156313210725784,0.042129989713430405,-0.008916545659303665
1761430249098388000,1.754387939453125,0.08686061203479767,0.09485729783773422,-0.031210297718644142
1761430249118331000,1.774330810546875,0.12280406802892685,0.04261208698153496,0.00751863420009613
1761430249138275000,1.794275146484375,0.13306157290935516,0.029360169544816017,0.07247091084718704
1761430249158218200,1.81421826171875,0.11828345060348511,0.033838823437690735,0.1096264123916626
1761430249178162200,1.834162109375,0.11095622926950455,0.10117661207914352,0.0891590565443039
1761430249198105000,1.85410498046875,0.1255282163619995,0.12432757019996643,0.04109830781817436
1761430249218049000,1.874049072265625,0.13791343569755554,0.11476290225982666,0.006791692692786455
1761430249237992000,1.893991943359375,0.1367342323064804,0.06331697851419449,0.0065805260092020035
1761430249257936100,1.91393603515625,0.1522589921951294,0.013105422258377075,-0.015177306719124317
1761430249277879000,1.933879150390625,0.19394434988498688,-0.04811645671725273,-0.05206716060638428
1761430249297823200,1.9538232421875,0.21907784044742584,-0.049462564289569855,-0.05770924687385559
1761430249317766100,1.97376611328125,0.1781863570213318,0.013677534647285938,-0.03598329797387123
1761430249337710000,1.9937099609375,0.1540839970111847,0.11233088374137878,-0.058856233954429626
1761430249357653200,2.0136533203125,0.11720296740531921,0.09246627986431122,-0.12465787678956985
1761430249377597200,2.03359716796875,0.06914669275283813,-0.03728146478533745,-0.21933941543102264
1761430249397540000,2.0535400390625,0.08708618581295013,-0.10292640328407288,-0.2563719153404236
1761430249417483000,2.07348291015625,0.11513452231884003,-0.02706809714436531,-0.18429042398929596
1761430249437427000,2.093427001953125,0.1360727995634079,0.012242544442415237,-0.06833788007497787
1761430249457370000,2.1133701171875,0.13235139846801758,0.07579194009304047,0.0366426557302475
1761430249477314300,2.133314208984375,0.1227743998169899,0.06778520345687866,0.06766115128993988
1761430249497257200,2.15325732421875,0.11916641891002655,0.045135315507650375,0.03704921901226044
1761430249517201200,2.173201171875,0.12271039187908173,0.03445964679121971,0.036220356822013855
1761430249537144000,2.19314404296875,0.10754119604825974,0.0036472035571932793,0.05359078198671341
1761430249557088300,2.213088134765625,0.12101035565137863,0.049487706273794174,0.06247240677475929
1761430249577031200,2.23303125,0.14180642366409302,0.1706133782863617,0.039431508630514145
1761430249596975000,2.25297509765625,0.11278695613145828,0.10667552798986435,-0.004368196707218885
1761430249616918000,2.27291796875,0.13124515116214752,0.09894851595163345,0.0010925279930233955
1761430249636862000,2.292862060546875,0.15866371989250183,0.1280970275402069,0.020495392382144928
1761430249656805000,2.31280517578125,0.20707327127456665,0.08864147216081619,0.06607642769813538
1761430249676749300,2.332749267578125,0.20011988282203674,-0.0005666483193635941,0.1285417377948761
1761430249696692200,2.352692138671875,0.16799630224704742,-0.09735055267810822,0.14134180545806885
1761430249716636200,2.37263623046875,0.12913507223129272,-0.07832562178373337,0.1097574532032013
1761430249736579000,2.3925791015625,0.09167847037315369,-0.024851014837622643,0.051066961139440536
1761430249756523000,2.41252294921875,0.052918024361133575,0.010462125763297081,-0.015385291539132595
1761430249776466200,2.432466064453125,0.028024226427078247,0.06674110144376755,-0.04180421307682991
1761430249796410000,2.45241015625,0.042117711156606674,0.0807284563779831,-0.015300272032618523
1761430249816353000,2.47235302734375,0.06375715136528015,0.05347977206110954,0.0360153429210186
1761430249836297000,2.492296875,0.06548967212438583,0.05426854267716408,0.09972527623176575
1761430249856240000,2.512240234375,0.06753405183553696,0.04975059628486633,0.11944352090358734
1761430249876183000,2.53218310546875,0.06140575185418129,0.011204123497009277,0.07491688430309296
1761430249896127200,2.552127197265625,0.051267631351947784,-0.034833088517189026,0.019752031192183495
1761430249916070100,2.572070068359375,0.035702820867300034,-0.03589700907468796,-0.03881338983774185
1761430249936014000,2.59201416015625,0.029374048113822937,-0.06608826667070389,-0.05447918549180031
1761430249955957200,2.611957275390625,0.002495997818186879,-0.07358361780643463,-0.05102711170911789
1761430249975901200,2.631901123046875,-0.043715640902519226,-0.05507877469062805,-0.0647018775343895
1761430249995844000,2.651843994140625,-0.055918775498867035,-0.02887002006173134,-0.07590007781982422
1761430250015788000,2.6717880859375,-0.05089122802019119,-0.04189706966280937,-0.07520312070846558
1761430250035731200,2.691731201171875,-0.041545264422893524,-0.043117012828588486,-0.11507482826709747
1761430250055675100,2.711675048828125,-0.025435037910938263,-0.02615167759358883,-0.16354143619537354
1761430250075618000,2.7316181640625,-0.011226838454604149,-0.03189724683761597,-0.15559084713459015
1761430250095562200,2.751562255859375,-0.011722221039235592,-0.07077541947364807,-0.10526232421398163
1761430250115505200,2.771505126953125,-0.014124458655714989,-0.06501550227403641,-0.0748039186000824
1761430250135449000,2.791448974609375,-0.032818619161844254,-0.08167345821857452,-0.1104409247636795
1761430250155392300,2.811392333984375,-0.03717914596199989,-0.06953748315572739,-0.1516217291355133
1761430250175336200,2.831336181640625,-0.03878270089626312,-0.020586641505360603,-0.11610382795333862
1761430250195279000,2.851279052734375,-0.04809986799955368,0.02182389236986637,-0.04129449650645256
1761430250215223000,2.87122314453125,-0.040188584476709366,0.07137502729892731,-0.0024985794443637133
1761430250235166200,2.891166259765625,-0.045794300734996796,0.04270917549729347,-0.029330337420105934
1761430250255110100,2.911110107421875,-0.019367188215255737,0.003585485741496086,-0.051645878702402115
1761430250275053300,2.93105322265625,0.014180016703903675,-0.01539213303476572,-0.030370080843567848
1761430250294997200,2.950997314453125,0.06334606558084488,0.02727707289159298,0.02279159612953663
1761430250314940200,2.970940185546875,0.08800540119409561,0.04704499617218971,0.0481296107172966
1761430250334884000,2.990884033203125,0.10208550095558167,0.06843949109315872,0.04604287073016167
1761430250354827300,3.0108271484375,0.09340392798185349,0.05824999511241913,0.054925885051488876
1761430250374771500,3.030771484375,0.08897396177053452,0.06461838632822037,0.06348364800214767
1761430250394714400,3.05071435546875,0.06811322271823883,0.0917423889040947,0.055607788264751434
1761430250414658300,3.070658203125,0.03982416167855263,0.1372370421886444,-0.011644305661320686
1761430250434601200,3.090601318359375,-0.004165002144873142,0.12397999316453934,-0.05741332843899727
1761430250454545200,3.110545166015625,-0.05519253388047218,0.12054785341024399,-0.0939408540725708
1761430250474488300,3.13048828125,-0.1121995598077774,0.06546071916818619,-0.1636987328529358
1761430250494432300,3.150432373046875,-0.16490624845027924,0.03496270626783371,-0.21110783517360687
1761430250514375200,3.170375244140625,-0.18163898587226868,0.011272938922047615,-0.15109500288963318
1761430250534319000,3.190319091796875,-0.1516459733247757,-0.0034579758066684008,-0.020404532551765442
1761430250554262300,3.21026220703125,-0.09245362132787704,-0.041910186409950256,0.11289087682962418
1761430250574206500,3.23020654296875,-0.03723670169711113,-0.10051470249891281,0.15457533299922943
1761430250594149400,3.2501494140625,0.009595119394361973,-0.09514176845550537,0.060576193034648895
1761430250614093300,3.27009326171875,0.031749922782182693,-0.0667254850268364,-0.05957125127315521
1761430250634036200,3.2900361328125,0.02208404615521431,-0.029202794656157494,-0.09884631633758545
1761430250653980200,3.309980224609375,0.010518371127545834,-0.038633834570646286,-0.0643182322382927
1761430250673923300,3.32992333984375,0.0018266122788190842,-0.013688270933926105,-0.0014295494183897972
1761430250693867300,3.3498671875,-0.006265503820031881,-0.026854870840907097,0.013524595648050308
1761430250713810200,3.36981005859375,-0.0060048457235097885,-0.03933628275990486,-0.03468039631843567
1761430250733754000,3.389754150390625,0.00969791691750288,-0.025317788124084473,-0.07761255651712418
1761430250753697300,3.409697265625,-0.00460009602829814,-0.030496904626488686,-0.07917530834674835
1761430250773641500,3.429641357421875,-0.015831876546144485,-0.06229671090841293,-0.04287079721689224
1761430250793584400,3.44958447265625,-0.019078567624092102,-0.09032963961362839,-0.0037837133277207613
1761430250813528300,3.4695283203125,-0.01292114146053791,-0.0630297064781189,0.01678476110100746
1761430250833471200,3.48947119140625,0.0017378609627485275,-0.05536186695098877,-0.012514576315879822
1761430250853415200,3.509415283203125,-0.0018655622843652964,-0.03862881287932396,-0.04399961978197098
1761430250873358300,3.5293583984375,-0.00982601661235094,-0.038298580795526505,-0.042727693915367126
1761430250893301200,3.54930126953125,-0.02904738113284111,-0.05434700474143028,0.0014976835809648037
1761430250913245200,3.5692451171875,-0.03218468278646469,-0.02436501532793045,0.020764412358403206
1761430250933188000,3.58918798828125,-0.024578597396612167,0.019540216773748398,-0.013014006428420544
1761430250953132000,3.609132080078125,-0.040050096809864044,0.024808641523122787,-0.057375017553567886
1761430250973075200,3.6290751953125,-0.08567088097333908,0.041313618421554565,-0.08402396738529205
1761430250993019400,3.649019287109375,-0.12111808359622955,0.0554189495742321,-0.09893685579299927
1761430251012962300,3.66896240234375,-0.1371094435453415,0.028232283890247345,-0.11371880769729614
1761430251032906200,3.68890625,-0.12571869790554047,-0.00194175960496068,-0.14193905889987946
1761430251052849400,3.708849365234375,-0.10573767125606537,-0.010692319832742214,-0.1331513375043869
1761430251072793300,3.72879345703125,-0.07068251073360443,-0.04846953973174095,-0.09190552681684494
1761430251092736300,3.748736328125,-0.03530650585889816,-0.07992678135633469,-0.04390450939536095
1761430251112680200,3.76868017578125,-0.013914136216044426,-0.030440296977758408,0.011605902574956417
1761430251132623000,3.788623046875,-0.02727261744439602,-0.027548184618353844,0.0489557720720768
1761430251152567000,3.808567138671875,-0.03782942146062851,-0.056172654032707214,0.03758072853088379
1761430251172510200,3.82851025390625,-0.033320024609565735,0.001813471782952547,-0.008923850022256374
1761430251192454400,3.848454345703125,-0.027812043204903603,0.03753264993429184,-0.025962475687265396
1761430251212397300,3.868397216796875,-0.009901783429086208,0.04961811751127243,0.021746965125203133
1761430251232341200,3.88834130859375,-0.002337306970730424,0.022064853459596634,0.08666738867759705
1761430251252284400,3.908284423828125,-0.0003859768621623516,-0.01969967596232891,0.1101655513048172
1761430251272228400,3.928228271484375,0.000889344431925565,-0.01483788900077343,0.07536160200834274
1761430251292171500,3.948171630859375,0.000029176822863519192,0.012156776152551174,0.014861248433589935
1761430251312115500,3.968115478515625,-0.0024633072316646576,0.035470396280288696,0.0006282241083681583
1761430251332058400,3.988058349609375,-0.013474879786372185,0.04191127419471741,0.04375655949115753
1761430251352002300,4.008002197265625,-0.029016954824328423,-0.011824550107121468,0.07722524553537369
1761430251371945500,4.027945556640625,-0.030612753704190254,-0.03603962063789368,0.05307367816567421
1761430251391889700,4.0478896484375,-0.027045518159866333,-0.053699444979429245,-0.018061775714159012
1761430251411832600,4.06783251953125,-0.03838761895895004,-0.021676193922758102,-0.055773984640836716
1761430251431776500,4.087776611328125,-0.06684182584285736,0.03559308499097824,-0.04068902134895325
1761430251451719400,4.107719482421875,-0.07563865184783936,0.025461675599217415,-0.011409884318709373
1761430251471663400,4.127663330078125,-0.053307514637708664,-0.0035755678545683622,0.019323261454701424
1761430251491606500,4.1476064453125,-0.03140634670853615,-0.02627779170870781,0.04636133089661598
1761430251511550500,4.167550537109375,-0.010232115164399147,-0.03588675707578659,0.05397196114063263
1761430251531493400,4.187493408203125,-0.015690529718995094,-0.045924264937639236,0.02856448106467724
1761430251551437300,4.207437255859375,-0.014576796442270279,0.007853800430893898,-0.014660361222922802
1761430251571380500,4.22738037109375,-0.015940001234412193,0.05884382873773575,-0.021460046991705894
1761430251591324700,4.24732470703125,-0.014955630525946617,0.04883281886577606,0.00017004698747768998
1761430251611267600,4.267267578125,-0.0049620866775512695,0.01315733976662159,0.00957955326884985
1761430251631211500,4.28721142578125,0.01817159540951252,-0.003335671266540885,0.0029585922602564096
1761430251651154400,4.307154541015625,0.029922228306531906,0.0003269086591899395,0.01817348599433899
1761430251671098400,4.327098388671875,0.03273885324597359,-0.007702443283051252,0.02713784947991371
1761430251691041500,4.34704150390625,0.009523946791887283,0.011295641772449017,0.013079618103802204
1761430251710985500,4.3669853515625,-0.013623185455799103,0.009961294010281563,-0.026686955243349075
1761430251730928400,4.386928466796875,-0.023527946323156357,-0.004986896645277739,-0.04109383374452591
1761430251750872300,4.406872314453125,-0.01621803268790245,-0.021185975521802902,-0.01434821542352438
1761430251770815500,4.4268154296875,0.0064966632053256035,0.011997519992291927,0.034408051520586014
1761430251790759700,4.446759765625,0.008569037541747093,0.03005264699459076,0.062888503074646
1761430251810702600,4.46670263671875,0.01579182781279087,0.015542158856987953,0.03749275207519531
1761430251830646500,4.486646484375,0.015360096469521523,-0.013540743850171566,0.000033388903830200434
1761430251850589400,4.50658935546875,0.019104935228824615,0.012725760228931904,-0.0045174844563007355
1761430251870533400,4.526533447265625,0.029291825369000435,0.035237740725278854,0.01991024613380432
1761430251890476500,4.5464765625,0.03342488408088684,0.05566854029893875,0.04758746549487114
1761430251910420500,4.56642041015625,0.05460680276155472,0.08265820890665054,0.08580939471721649
1761430251930363400,4.58636328125,0.06482385098934174,0.02488113008439541,0.10721511393785477
1761430251950307600,4.6063076171875,0.062324341386556625,-0.027276024222373962,0.08638421446084976
1761430251970250500,4.62625048828125,0.06635086983442307,-0.031390730291604996,0.03192221745848656
1761430251990194400,4.6461943359375,0.055343300104141235,-0.018092472106218338,-0.02590934932231903
1761430252010137600,4.6661376953125,0.02261854149401188,0.0005711335688829422,-0.0270558912307024
1761430252030081500,4.68608154296875,0.003807505825534463,0.025367585942149162,0.015018943697214127
1761430252050024400,4.7060244140625,0.005618555471301079,0.016268456354737282,0.048546597361564636
1761430252069968400,4.725968505859375,0.017265520989894867,-0.009943054057657719,0.0367712527513504
1761430252089911600,4.74591162109375,0.011676780879497528,-0.0182082150131464,0.007318894378840923
1761430252109855500,4.76585546875,-0.005248573608696461,-0.007570124696940184,-0.016089973971247673
1761430252129798400,4.78579833984375,-0.01889348030090332,0.056305501610040665,-0.029201600700616837
1761430252149742600,4.80574267578125,-0.01299710851162672,0.0860196202993393,-0.021876245737075806
1761430252169685500,4.825685546875,0.0015811007469892502,0.041364554315805435,0.039715517312288284
1761430252189629400,4.84562939453125,0.020254753530025482,-0.007409547921270132,0.10866427421569824
1761430252209572600,4.865572509765625,0.017779413610696793,-0.03170756623148918,0.10554227977991104
1761430252229516500,4.8855166015625,0.006423128768801689,-0.03556197136640549,0.0415242575109005
1761430252249459000,4.905458984375,0.0028021265752613544,-0.004048745147883892,-0.001086393604055047
1761430252269403100,4.925403076171875,-0.00917813740670681,-0.01734783872961998,0.00008778140181675553
1761430252289346300,4.94534619140625,-0.004472595173865557,-0.018613001331686974,0.005703574512153864
1761430252309290200,4.965290283203125,-0.01041727140545845,-0.0021991278044879436,0.010427908971905708
1761430252329233200,4.985233154296875,0.0010763327591121197,0.017622169107198715,0.016571391373872757
1761430252349176000,5.005176025390625,0.011619888246059418,0.0063161300495266914,0.015622150152921677
1761430252369120000,5.0251201171875,0.014188339933753014,-0.011307031847536564,-0.0051756142638623714
1761430252389064200,5.045064208984375,0.01439253706485033,-0.014987066388130188,0.01135099958628416
1761430252409007000,5.065007080078125,0.0034991770517081022,-0.009698761627078056,0.03795279562473297
1761430252428950000,5.084949951171875,-0.007047973573207855,-0.009135490283370018,-0.011173851788043976
1761430252448894000,5.10489404296875,-0.009428240358829498,-0.00955113023519516,-0.06970757246017456
1761430252468837000,5.124837158203125,-0.006964084226638079,0.0026741926558315754,-0.06880278140306473
1761430252488781300,5.14478125,-0.013241453096270561,-0.016051998361945152,-0.024347864091396332
1761430252508724200,5.16472412109375,-0.030628662556409836,-0.041783928871154785,-0.00017939938697963953
1761430252528668200,5.184668212890625,-0.03237530216574669,-0.06539492309093475,-0.017718099057674408
1761430252548611000,5.204611083984375,-0.0319029875099659,-0.03928140923380852,-0.059906236827373505
1761430252568555000,5.224554931640625,-0.02693372592329979,0.05980168655514717,-0.07476679980754852
1761430252588498200,5.244498291015625,-0.030587485060095787,0.061495229601860046,-0.0260603167116642
1761430252608442000,5.264442138671875,-0.01562465075403452,0.07933441549539566,0.057977281510829926
1761430252628385000,5.284385009765625,-0.02970028854906559,-0.015450909733772278,0.08107485622167587
1761430252648329000,5.304328857421875,-0.01188973244279623,-0.03839867562055588,0.009613247588276863
1761430252668272000,5.324272216796875,-0.013892130926251411,-0.01761908270418644,-0.0729571059346199
1761430252688216300,5.34421630859375,-0.005573947448283434,0.0016680900007486343,-0.08812110871076584
1761430252708159200,5.3641591796875,0.014734853059053421,0.025940749794244766,-0.03517836704850197
1761430252728103200,5.384103271484375,0.045400019735097885,0.015286163426935673,0.013050781562924385
1761430252748046000,5.404046142578125,0.05542895197868347,0.0006433054804801941,0.025862185284495354
1761430252767990000,5.423989990234375,0.045487407594919205,-0.0031593567691743374,0.004359833896160126
1761430252787934000,5.443933837890625,0.020705660805106163,0.007143096067011356,-0.018966907635331154
1761430252807877000,5.463877197265625,0.010074288584291935,0.026195604354143143,-0.02774537168443203
1761430252827820000,5.483820068359375,-0.00407029315829277,0.03123030811548233,-0.026798618957400322
1761430252847764000,5.503763916015625,-0.01081787794828415,-0.0012995912693440914,-0.03462095558643341
1761430252867707100,5.52370703125,-0.006021957844495773,-0.043474700301885605,-0.030216163024306297
1761430252887651300,5.5436513671875,-0.006880660075694323,-0.06486418843269348,0.00321457302197814
1761430252907595300,5.56359521484375,-0.019464628770947456,-0.022773191332817078,0.04703742265701294
1761430252927538200,5.5835380859375,-0.04879854992032051,-0.007794242352247238,0.04083571955561638
1761430252947481000,5.603481201171875,-0.06279532611370087,-0.05424696207046509,-0.006851376965641975
1761430252967425000,5.623425048828125,-0.057194530963897705,-0.11341854929924011,-0.038225188851356506
1761430252987369000,5.643368896484375,-0.02151995711028576,-0.11398343741893768,-0.000015258090570569038
1761430253007312100,5.66331201171875,-0.020670007914304733,-0.0750848799943924,0.03704135864973068
1761430253027256000,5.683256103515625,-0.016377059742808342,0.013778281398117542,0.024261891841888428
1761430253047199000,5.703198974609375,-0.007375071756541729,0.022906623780727386,-0.0028383401222527027
1761430253067143200,5.72314306640625,0.00418747216463089,0.037932831794023514,0.009987269528210163
1761430253087086000,5.743086181640625,0.018273334950208664,0.025621512904763222,0.028496690094470978
1761430253107030300,5.7630302734375,0.04235106706619263,0.02942311391234398,0.022022223100066185
1761430253126973200,5.78297314453125,0.041247688233852386,-0.008280867710709572,-0.024018924683332443
1761430253146917000,5.802917236328125,0.02153363823890686,-0.05314469337463379,-0.0689505934715271
1761430253166860000,5.822860107421875,0.018387246876955032,-0.03867105394601822,-0.04938880726695061
1761430253186804000,5.842803955078125,0.009417522698640823,-0.006492796819657087,-0.03299875184893608
1761430253206747100,5.8627470703125,0.015781577676534653,0.014433430507779121,-0.058063142001628876
1761430253226691000,5.882691162109375,0.024601968005299568,0.0491674430668354,-0.08142679184675217
1761430253246633700,5.9026337890625,0.040937431156635284,0.027201278135180473,-0.07215570658445358
1761430253266578000,5.922577880859375,0.04286765307188034,0.023139625787734985,-0.018094342201948166
1761430253286520800,5.942520751953125,0.040682338178157806,0.005356018431484699,0.025396553799510002
1761430253306465000,5.962465087890625,0.02550920471549034,-0.02498842403292656,0.021535104140639305
1761430253326408000,5.982407958984375,0.008424860425293446,0.007989593781530857,-0.004887930583208799
1761430253346351900,6.002351806640625,0.0034344643354415894,0.050908710807561874,-0.006063540931791067
1761430253366294800,6.022294677734375,-0.010727595537900925,0.057804472744464874,0.004646021872758865
1761430253386238700,6.04223876953125,-0.014563946053385735,0.03502904251217842,-0.0001933726016432047
1761430253406182000,6.062181884765625,-0.0007050882559269667,0.014205584302544594,-0.00010068307165056467
1761430253426125800,6.082125732421875,0.00848368275910616,-0.01817970536649227,0.026712985709309578
1761430253446068700,6.10206884765625,0.002678823657333851,-0.04455697163939476,0.08212659507989883
1761430253466013000,6.122012939453125,-0.014894410967826843,-0.017919061705470085,0.06902804970741272
1761430253485955800,6.141955810546875,-0.021432798355817795,0.01388602890074253,-0.0026103637646883726
1761430253505900000,6.161900146484375,-0.02098066173493862,0.03626902028918266,-0.024267353117465973
1761430253525843000,6.181843017578125,0.004514440894126892,0.016546502709388733,0.061373066157102585
1761430253545787000,6.201786865234375,0.03468555957078934,-0.010867636650800705,0.17266836762428284
1761430253565729800,6.221729736328125,0.04437250643968582,-0.041024062782526016,0.19794537127017975
1761430253585673700,6.241673828125,0.04381804168224335,-0.0267478134483099,0.12466448545455933
1761430253605617000,6.261616943359375,0.010241205804049969,-0.005104505456984043,0.035378020256757736
1761430253625560800,6.281560791015625,-0.023569859564304352,0.045995231717824936,-0.014376785606145859
1761430253645503700,6.301503662109375,-0.027226243168115616,0.06620457768440247,-0.020464051514863968
1761430253665448000,6.321447998046875,-0.011550944298505783,0.01927666924893856,-0.006377957761287689
1761430253685390800,6.341390869140625,0.017828617244958878,-0.06256058067083359,0.008048436604440212
1761430253705334800,6.361334716796875,0.03029770217835903,-0.10754892230033875,-0.00921315886080265
1761430253725279000,6.381279052734375,0.020513083785772324,-0.12713158130645752,-0.058946043252944946
1761430253745222000,6.401221923828125,0.0011731069535017014,-0.11700713634490967,-0.09102946519851685
1761430253765165800,6.421165771484375,-0.018077686429023743,-0.09081217646598816,-0.08559881150722504
1761430253785108700,6.441108642578125,-0.04160701110959053,-0.0799296647310257,-0.0779036283493042
1761430253805052700,6.461052734375,-0.03867966681718826,-0.04324525594711304,-0.07001186907291412
1761430253824995800,6.480995849609375,-0.008343500085175037,-0.000453439075499773,-0.06848703324794769
1761430253844940000,6.50093994140625,0.019868629053235054,-0.03033498488366604,-0.04464498162269592
1761430253864883000,6.520883056640625,0.030567580834031105,-0.0364629328250885,0.01411005761474371
1761430253884827000,6.540826904296875,0.023525580763816833,0.02079596370458603,0.05656294897198677
1761430253904769800,6.560769775390625,0.01392179075628519,0.06205832585692406,0.09476670622825623
1761430253924713700,6.580713623046875,0.01845402829349041,0.06780609488487244,0.08635007590055466
1761430253944657000,6.600656982421875,0.03394783288240433,0.05315287411212921,0.033910077065229416
1761430253964600800,6.620600830078125,0.058954183012247086,0.031133191660046577,-0.02914130687713623
1761430253984543700,6.640543701171875,0.07307988405227661,-0.002953708404675126,-0.027606230229139328
1761430254004487700,6.66048779296875,0.06375579535961151,0.006913261488080025,0.027465881779789925
1761430254024430800,6.680430908203125,0.047690145671367645,0.036602821201086044,0.05395735055208206
1761430254044375000,6.700375,0.029359403997659683,0.02780483104288578,0.01872669905424118
1761430254064318000,6.72031787109375,0.04280779883265495,0.034343890845775604,-0.024335827678442
1761430254084262000,6.740261962890625,0.0654100850224495,0.010107377544045448,-0.023595068603754044
1761430254104204800,6.760204833984375,0.08237781375646591,-0.012023355811834335,0.011863834224641323
1761430254124148700,6.780148681640625,0.07809892296791077,-0.004293161444365978,0.05312097445130348
1761430254144092000,6.800091796875,0.05605969578027725,-0.028452280908823013,0.06325685232877731
1761430254164035800,6.820035888671875,0.022322965785861015,-0.03502487763762474,0.04537224769592285
1761430254183978800,6.839978759765625,0.005907341372221708,-0.03567986935377121,-0.0002957285614684224
1761430254203922700,6.859922607421875,-0.012583717703819275,-0.0313955619931221,-0.02101069688796997
1761430254223865900,6.879865966796875,-0.013486131094396114,0.027089426293969154,-0.019728180021047592
1761430254243810000,6.89981005859375,0.003687432501465082,0.06330570578575134,0.019956720992922783
1761430254263753000,6.9197529296875,0.010146663524210453,0.03695719316601753,0.06832105666399002
1761430254283697000,6.93969677734375,0.001673184335231781,-0.0099832434207201,0.09455713629722595
1761430254303639800,6.959639892578125,0.0071191852912306786,-0.01919630356132984,0.08325325697660446
1761430254323583700,6.979583740234375,0.015918362885713577,0.007486163172870874,0.02047250233590603
1761430254343527000,6.99952685546875,0.03484714776277542,0.03186595067381859,-0.03558339923620224
1761430254363470800,7.019470947265625,0.03486459329724312,0.0010660667903721333,-0.04541824758052826
1761430254383413800,7.039413818359375,0.03205905109643936,-0.03777098283171654,-0.030582793056964874
1761430254403358000,7.05935791015625,0.022872408851981163,-0.04588092118501663,-0.02568140998482704
1761430254423300900,7.07930078125,0.023008432239294052,-0.047289229929447174,-0.01680220477283001
1761430254443245000,7.0992451171875,0.0202494990080595,-0.046746864914894104,-0.02695852890610695
1761430254463188000,7.11918798828125,0.03482205048203468,-0.015873637050390244,-0.035002339631319046
1761430254483132000,7.1391318359375,0.014153055846691132,-0.03932327404618263,-0.045554809272289276
1761430254503074800,7.15907470703125,0.015033098869025707,0.05169947072863579,-0.049962542951107025
1761430254523018800,7.179018798828125,0.0046869246289134026,0.05959096923470497,-0.03260691463947296
1761430254542962700,7.198962646484375,0.007597916293889284,-0.0035136775113642216,-0.016876036301255226
1761430254562905900,7.21890576171875,0.02230769395828247,-0.0118784848600626,-0.0015992039116099477
1761430254582850000,7.23885009765625,0.012620474211871624,-0.012582395225763321,0.01656678318977356
1761430254602793000,7.25879296875,0.005756373051553965,-0.0012752772308886051,0.0187446940690279
1761430254622737000,7.27873681640625,0.003319979179650545,0.02371433563530445,-0.0201558955013752
1761430254642679800,7.2986796875,0.018827475607395172,0.026716578751802444,-0.06566820293664932
1761430254662624000,7.3186240234375,0.025196785107254982,-0.011587143875658512,-0.06280789524316788
1761430254682567000,7.33856689453125,0.02242959477007389,-0.013205135241150856,-0.027037471532821655
1761430254702510800,7.3585107421875,0.011709569953382015,0.00812620110809803,0.02022499218583107
1761430254722453800,7.378453857421875,0.021636640653014183,0.04714038968086243,0.052239034324884415
1761430254742397700,7.398397705078125,0.02200455777347088,0.020851153880357742,0.03805989399552345
1761430254762340900,7.4183408203125,0.009725618176162243,0.005180888809263706,-0.009967888705432415
1761430254782285000,7.43828515625,-0.012873565778136253,-0.009967012330889702,-0.051060136407613754
1761430254802228000,7.45822802734375,-0.01616043597459793,-0.01427515596151352,-0.017145724967122078
1761430254822172000,7.478171875,-0.026885025203227997,0.011634619906544685,0.044835224747657776
1761430254842114800,7.49811474609375,-0.04252893477678299,0.05690757930278778,0.06563732773065567
1761430254862058800,7.518058837890625,-0.029778150841593742,0.09714057296514511,0.05940531566739082
1761430254882002000,7.538001953125,-0.013841490261256695,0.05380866304039955,0.023355567827820778
1761430254901945900,7.55794580078125,-0.012255347333848476,-0.024677686393260956,-0.01853276789188385
1761430254921888800,7.577888671875,-0.019036490470170975,-0.053242992609739304,-0.03546084091067314
1761430254941832700,7.597832763671875,-0.01250963844358921,-0.024275701493024826,-0.0077239335514605045
1761430254961775900,7.61777587890625,0.015259136445820332,0.05904177576303482,0.024475693702697754
1761430254981720000,7.637719970703125,0.04636608436703682,0.07455960661172867,0.028160003945231438
1761430255001663000,7.6576630859375,0.036071304231882095,0.028549689799547195,-0.009068221785128117
1761430255021607000,7.67760693359375,0.02868608944118023,-0.0033851268235594034,-0.021918630227446556
1761430255041549800,7.6975498046875,0.022663289681077003,-0.02667071856558323,0.015252789482474327
1761430255061493800,7.71749365234375,0.01613437943160534,-0.039711110293865204,0.051820315420627594
1761430255081437000,7.73743701171875,0.022868413478136063,0.008098372258245945,0.01961590349674225
1761430255101380900,7.757380859375,0.00968483928591013,0.04516051709651947,-0.05447079613804817
1761430255121323800,7.77732373046875,-0.007544246502220631,0.04489152133464813,-0.09173336625099182
1761430255141267700,7.797267822265625,-0.015426174737513065,0.02318269945681095,-0.02688646875321865
1761430255161211000,7.8172109375,-0.014018824324011803,0.00006715301424264908,0.061924152076244354
1761430255181155000,7.837155029296875,-0.0059579648077487946,-0.009900742210447788,0.09003527462482452
1761430255201098000,7.857097900390625,0.009844660758972168,0.004032001830637455,0.022684862837195396
1761430255221042000,7.8770419921875,0.014981865882873535,-0.0013659736141562462,-0.05492859333753586
1761430255240984600,7.896984619140625,0.0011772399302572012,-0.005099033936858177,-0.0604252964258194
1761430255260928500,7.916928466796875,-0.011463521048426628,0.002873058896511793,-0.021581657230854034
1761430255280871700,7.93687158203125,-0.006531745195388794,0.009030180051922798,0.008386155590415001
1761430255300815600,7.956815673828125,0.012947779148817062,0.0020011267624795437,0.011771084740757942
1761430255320758500,7.976758544921875,0.027737274765968323,0.002691539004445076,0.00017284485511481762
1761430255340702700,7.99670263671875,0.029654918238520622,0.018207289278507233,-0.012654854916036129
1761430255360646000,8.01664599609375,0.023226113989949226,0.036583978682756424,-0.0054740095511078835
1761430255380589800,8.03658984375,-0.0054541341960430145,0.006981185637414455,0.0028866571374237537
1761430255400532700,8.05653271484375,-0.007304064929485321,0.01698605716228485,-0.01731320470571518
1761430255420476700,8.0764765625,0.004413108807057142,0.046628400683403015,-0.010212643072009087
1761430255440419600,8.096419677734374,0.0058371443301439285,0.08478767424821854,0.014344084076583385
1761430255460363500,8.116363525390625,0.013189960271120071,0.07845578342676163,0.04642951488494873
1761430255480306700,8.136306640625,0.008809462189674377,0.05252234265208244,0.056663837283849716
1761430255500250600,8.156250732421874,-0.012045156210660934,0.02303425408899784,0.014926020056009293
1761430255520193500,8.176193603515625,-0.03917427733540535,0.051779333502054214,-0.031126314774155617
1761430255540137700,8.1961376953125,-0.05558187887072563,0.11121613532304764,-0.05165934935212135
1761430255560080600,8.21608056640625,-0.03535064309835434,0.1457221806049347,-0.05387989059090614
1761430255580024800,8.23602490234375,-0.007166380062699318,0.1159730926156044,-0.046398915350437164
1761430255599967700,8.2559677734375,0.020126858726143837,0.07698051631450653,-0.026604121550917625
1761430255619911700,8.27591162109375,0.02629031054675579,0.025390060618519783,-0.027747489511966705
1761430255639854600,8.2958544921875,0.02095803990960121,-0.03152349591255188,-0.06068062782287598
1761430255659798500,8.315798583984375,0.026751277968287468,-0.046107735484838486,-0.07331647723913193
1761430255679741700,8.33574169921875,0.03893367946147919,-0.031564414501190186,-0.048440687358379364
1761430255699685600,8.355685546875,0.05741708353161812,-0.01145861204713583,-0.01862393505871296
1761430255719628500,8.375628662109374,0.04659012705087662,0.02078726515173912,-0.010548611171543598
1761430255739572700,8.39557275390625,0.03491559252142906,0.02615431882441044,-0.008403589949011803
1761430255759515600,8.415515625,0.03259209543466568,0.01721295155584812,-0.012112815864384174
1761430255779459800,8.4354599609375,0.037545934319496155,0.024089757353067398,-0.003523776773363352
1761430255799402800,8.45540283203125,0.03640792518854141,0.03657400980591774,0.02572505548596382
1761430255819346700,8.4753466796875,0.025722593069076538,0.04415589198470116,0.0509721115231514
1761430255839289600,8.49528955078125,0.007285235449671745,0.07874826341867447,0.039075203239917755
1761430255859233500,8.515233642578124,-0.01045871339738369,0.03372466191649437,0.014614839106798172
1761430255879176700,8.5351767578125,-0.0012454059906303883,-0.016496017575263977,0.005186091642826796
1761430255899120600,8.55512060546875,0.005434871651232243,0.013738900423049927,0.018535839393734932
1761430255919063600,8.5750634765625,-0.0025569486897438765,0.03396265581250191,0.027555622160434723
1761430255939007700,8.5950078125,-0.0041578346863389015,0.08298428356647491,0.0214136503636837
1761430255958950700,8.61495068359375,0.00442559365183115,0.034362129867076874,-0.019621212035417557
1761430255978894600,8.63489453125,0.03118990547955036,-0.045398563146591187,-0.04783433675765991
1761430255998837800,8.654837646484374,0.04977180436253548,-0.025872647762298584,-0.06144827604293823
1761430256018781700,8.67478173828125,0.04601594805717468,-0.001392922829836607,-0.032950181514024734
1761430256038724600,8.694724609375,0.04427757114171982,0.01889604702591896,0.018483366817235947
1761430256058668500,8.71466845703125,0.040178168565034866,-0.018875565379858017,0.022205933928489685
1761430256078611700,8.73461181640625,0.03998691588640213,-0.06958381831645966,-0.021488824859261513
1761430256098555600,8.7545556640625,0.04484931752085686,-0.04951423406600952,-0.05476502329111099
1761430256118498600,8.77449853515625,0.03841645270586014,-0.024440838024020195,-0.03682810068130493
1761430256138442800,8.79444287109375,0.023537037894129753,0.0038157524541020393,0.007955185137689114
1761430256158385700,8.8143857421875,0.022007452324032784,0.027255456894636154,0.04254385083913803
1761430256178329600,8.83432958984375,0.02264617756009102,-0.03703981637954712,0.027001693844795227
1761430256198272800,8.854272705078126,0.019321130588650703,-0.05171488970518112,-0.01626250147819519
1761430256218216700,8.874216796875,0.013516641221940517,0.011064231395721436,-0.034738123416900635
1761430256238159600,8.89415966796875,0.01197489071637392,0.033448465168476105,-0.02634541690349579
1761430256258104000,8.91410400390625,0.015918269753456116,0.019060270860791206,0.01091194897890091
1761430256278047000,8.934046875,0.03208506107330322,-0.009049264714121819,0.05006522685289383
1761430256297991200,8.9539912109375,0.04583735018968582,-0.012571079656481743,0.044312410056591034
1761430256317934300,8.973934326171875,0.03446599096059799,-0.02138952538371086,0.022818734869360924
1761430256337878300,8.993878173828126,0.022650474682450294,-0.002388029359281063,0.027111157774925232
1761430256357821200,9.0138212890625,0.014525067061185837,0.0004608756862580776,0.02811712771654129
1761430256377765000,9.03376513671875,0.018455499783158302,-0.04609736055135727,0.012900540605187416
1761430256397708300,9.053708251953125,0.031838711351156235,-0.02368445135653019,-0.03253496438264847
1761430256417652200,9.07365234375,0.018381495028734207,-0.01388029009103775,-0.036201607435941696
1761430256437595100,9.09359521484375,0.014888033270835876,0.015826869755983353,-0.009157720021903515
1761430256457539000,9.1135390625,0.012829378247261047,0.011664867401123047,0.022121749818325043
1761430256477482000,9.13348193359375,0.016321567818522453,0.008545886725187302,0.03349734842777252
1761430256497426200,9.15342626953125,0.0025078952312469482,-0.005360613577067852,0.013118341565132141
1761430256517370000,9.1733701171875,-0.01086251437664032,-0.008051573298871517,-0.02761201746761799
1761430256537313300,9.193313232421875,-0.012727322988212109,-0.015106048434972763,-0.03463162109255791
1761430256557257200,9.21325732421875,0.00040029268711805344,-0.0012865974567830563,0.002524467185139656
1761430256577200000,9.2332001953125,-0.0035100230015814304,0.0003281286917626858,0.048314712941646576
1761430256597144000,9.25314404296875,-0.009641326032578945,-0.01295492984354496,0.061069462448358536
1761430256617087200,9.273087158203126,-0.0129662761464715,-0.01673278585076332,0.013003912754356861
1761430256637031200,9.29303125,-0.019580498337745667,0.00009790901094675064,-0.020901735872030258
1761430256656974000,9.31297412109375,-0.015873050317168236,-0.004414255730807781,-0.004218053538352251
1761430256676918300,9.332918212890625,0.0012649979908019304,-0.005442372523248196,0.021009555086493492
1761430256696861200,9.352861083984376,-0.0021586939692497253,-0.018203629180788994,0.028599195182323456
1761430256716805000,9.37280517578125,-0.009342861361801624,0.02439846284687519,0.02581082656979561
1761430256736748300,9.392748291015625,-0.013714050874114037,0.026378579437732697,0.03764573857188225
1761430256756692200,9.412692138671876,-0.008219323121011257,-0.0031044341158121824,0.03283919766545296
1761430256776635100,9.43263525390625,-0.006967068184167147,-0.024341480806469917,-0.0108976224437356
1761430256796579000,9.4525791015625,-0.014930992387235165,-0.002490612678229809,-0.02056007832288742
1761430256816522200,9.472522216796875,-0.03043125569820404,0.0019564926624298096,0.026060214266180992
1761430256836466200,9.492466064453126,-0.021940190345048904,0.012474842369556427,0.07006365060806274
1761430256856409000,9.5124091796875,0.0003190067072864622,0.006273873150348663,0.048628658056259155
1761430256876353300,9.532353271484375,0.00938090868294239,-0.06185651198029518,0.004803404211997986
1761430256896296200,9.552296142578125,-0.003924239426851273,-0.09443064779043198,-0.016080984845757484
1761430256916240100,9.572240234375,-0.03529820591211319,-0.14600764214992523,0.023333368822932243
1761430256936183300,9.592183349609375,-0.08269844949245453,-0.08045417815446854,0.05596230924129486
1761430256956127200,9.612127197265625,-0.050008948892354965,-0.057631734758615494,0.0722290426492691
1761430256976070100,9.632070068359376,-0.029543789103627205,-0.035379067063331604,0.06673552095890045
1761430256996014000,9.65201416015625,-0.014601818285882473,-0.03288863226771355,0.025608722120523453
1761430257015957000,9.67195703125,-0.015677234157919884,0.0301814004778862,-0.0360926128923893
1761430257035901200,9.691901123046875,-0.019721051678061485,0.04456314072012901,-0.0553603358566761
1761430257055844000,9.711843994140626,-0.0860041007399559,-0.04746895655989647,-0.06964387744665146
1761430257075788300,9.731788330078125,0.026681868359446526,-0.013739047572016716,-0.06369176506996155
1761430257095731200,9.751731201171875,-0.012804721482098103,0.02792859636247158,-0.02506629191339016
1761430257115675100,9.771675048828126,0.029590211808681488,-0.02139274962246418,0.05725309997797012
1761430257135618300,9.791618408203124,-0.02821164019405842,0.050582241266965866,0.07576631754636765
1761430257155562200,9.811562255859375,-0.002957914024591446,0.14672482013702393,0.04741856828331947
1761430257175505200,9.831505126953125,-0.03532649576663971,0.12005868554115295,0.05041086673736572
1761430257195449000,9.851448974609376,0.005758246872574091,0.14987844228744507,0.029478931799530983
1761430257215392000,9.87139208984375,0.021220862865447998,0.10144119709730148,0.020054278895258904
1761430257235336200,9.891336181640625,0.00722045823931694,0.08853055536746979,0.08403117954730988
1761430257255280000,9.911280029296876,-0.0009175033774226904,0.003812529146671295,0.19608962535858154
1761430257275223000,9.93122314453125,-0.0087214270606637,0.025424320250749588,0.1007138043642044
1761430257295167000,9.9511669921875,-0.01169178169220686,0.014118559658527374,-0.07796028256416321
1761430257315110000,9.97110986328125,-0.006951725110411644,0.01968815177679062,-0.13598167896270752
1761430257335053800,9.9910537109375,0.002148368628695607,0.02103876881301403,-0.09000271558761597
1761430257354997000,10.0109970703125,0.015490446239709854,-0.029088357463479042,0.0147538548335433
