time,seconds_elapsed,z,y,x
1761506901939491600,0.07949169921875,-0.4476251095563173,0.1923550479799509,-0.08573244661483913
1761506901959648500,0.0996484375,-0.5062690217047929,0.22395371681451795,-0.14774839247968047
1761506901979805400,0.119805419921875,-0.5051420635014772,0.2717664383471012,-0.0688739220008254
1761506901999961600,0.139961669921875,-0.5170031816869974,0.2873082908719778,0.044180904368869955
1761506902020118500,0.160118408203125,-0.46803018420338627,0.3249970932751894,0.034235118285380305
1761506902040275500,0.180275390625,-0.4115104246020317,0.2514484574615955,0.010367189833335578
1761506902060432600,0.2004326171875,-0.3154243782877922,0.2909247278034687,0.07319229665659367
1761506902080589600,0.220589599609375,-0.1716939527451992,0.3098211514532566,0.15306666489299386
1761506902100746800,0.240746826171875,-0.002091419321298599,0.30009061555564404,0.26140151353608815
1761506902120902700,0.260902587890625,0.18340251071751115,0.25150281799733637,0.28235242203027006
1761506902141059600,0.2810595703125,0.1716974598765373,0.11941548397541045,0.30053631349653004
1761506902161216500,0.301216552734375,0.22702947099804877,0.1139279924750328,0.2993256590651348
1761506902181373700,0.321373779296875,0.2657283272266388,0.1758107404142618,0.378966437741369
1761506902201530400,0.3415302734375,0.22820319095253944,0.249976046821475,0.3383437007781118
1761506902221687600,0.3616875,0.27512743921279903,0.27118016289174557,0.27629925947114825
1761506902241844700,0.3818447265625,0.4554144482582807,0.4294207598239183,0.2027554459631443
1761506902262000600,0.402000732421875,0.7352800219088792,0.5803554176568985,0.10782558394670486
1761506902282157600,0.422157470703125,1.1086217516362666,0.7010358070015907,-0.10103723898082971
1761506902302314500,0.442314453125,1.2880705562919377,0.8392594518214463,-0.1549916050735861
1761506902322471700,0.4624716796875,1.6603303360015154,0.9837684605211019,-0.2685227071855217
1761506902342628400,0.48262841796875,1.7459803284972906,1.0052484709233045,-0.29050109556391834
1761506902362785500,0.50278564453125,1.9077812482595442,1.1978981179356574,-0.4889958153426647
1761506902382941400,0.52294140625,1.637583666664362,1.574402695608139,-0.8812165791936218
1761506902403098600,0.5430986328125,1.6538076562345028,2.0032892024248836,-1.2262399769313632
1761506902423255600,0.563255615234375,1.2474030303388832,2.260810842320323,-0.9116047031946479
1761506902443412500,0.58341259765625,0.4765577740520239,1.6195067427039145,-0.7487817469082773
1761506902463569700,0.603569580078125,-0.7680021418154239,0.6998831298351288,-0.012424305026233196
1761506902483726600,0.6237265625,-2.5541689347505567,-0.20012626650333404,0.8981696136906743
1761506902503882800,0.6438828125,-4.115826715075969,-2.062816327148676,1.5849671981118618
1761506902524039400,0.664039306640625,-5.953797929528355,-3.5179461621224877,1.5791409761764108
1761506902544196600,0.684196533203125,-6.899462577104568,-4.225727351731062,1.4632301393210887
1761506902564353500,0.704353515625,-6.734149849829078,-4.740194877460599,1.0835115680381655
1761506902584510500,0.724510498046875,-6.075156948786973,-5.662113907790184,0.7510036607414483
1761506902604667600,0.744667724609375,-5.3828463000327345,-6.1306917890042065,1.1091086583703755
1761506902624823600,0.764823486328125,-3.867022634643316,-5.955134731090069,1.4008368115112184
1761506902644980700,0.784980712890625,-2.5378607740283012,-5.587293936866521,1.285330317673087
1761506902665137400,0.805137451171875,-1.0628414127141237,-4.53582556656003,0.8300420530777424
1761506902685294600,0.825294677734375,0.3942196825832128,-2.7061177380621433,0.22339515134999527
1761506902705451800,0.84545166015625,1.8795178613275287,-0.6279957052320242,-0.3753557729635387
1761506902725608700,0.865608642578125,1.7965905717939137,1.0558446856945753,0.18706720723751932
1761506902745764600,0.8857646484375,2.0149802247405053,2.663157717257738,0.1776838773423806
1761506902765921500,0.905921630859375,2.8045933098614215,3.6350463548928498,-0.5251951098404825
1761506902786078700,0.92607861328125,3.714236211463809,4.328395699045061,-0.804149559995532
1761506902806235600,0.946235595703125,4.234017041170596,4.303821814280748,-0.7183929653201252
1761506902826392600,0.966392578125,4.794903203725815,3.897701850545406,-0.45429041266441345
1761506902846549800,0.9865498046875,4.6554199142336845,3.82859616561532,-0.03240087032923475
1761506902866705700,1.00670556640625,4.750433362880349,4.411161076015234,-0.5660983442455529
1761506902886862800,1.02686279296875,4.156129499369859,5.210296022719144,-1.7956942074760793
1761506902907019500,1.04701953125,4.295110100036859,5.203504462882876,-1.1960984481025487
1761506902927176700,1.0671767578125,3.571678336831927,4.942254742375016,-0.7552286580253392
1761506902947333600,1.087333740234375,3.374677508872747,3.8623575654417275,-0.5268295061092824
1761506902967490600,1.107490478515625,3.0051965462267396,2.4975901384383437,0.13250687460824848
1761506902987647500,1.1276474609375,1.6951666715830565,1.8469646682471035,0.13423895909786224
1761506903007803600,1.1478037109375,0.49037353343665596,1.3639508499234914,-0.21383315868601202
1761506903027960600,1.167960693359375,-0.9191127407371997,0.2632435246735811,0.43652986117675896
1761506903048117800,1.18811767578125,-2.359824174258113,-1.0942091954022646,0.8400873540129512
1761506903068274700,1.208274658203125,-3.56359732170701,-2.6723668596297503,1.1489155489061027
1761506903088431600,1.228431640625,-4.718972641211748,-3.9876708752840755,1.5576289632007478
1761506903108588800,1.2485888671875,-5.3394046331912275,-4.546736252152919,1.6186486645698546
1761506903128744700,1.26874462890625,-4.397382726031542,-5.999754794061183,1.595587960847467
1761506903148901600,1.288901611328125,-4.128490966337919,-6.188046245864033,1.5372539914309977
1761506903169058600,1.30905859375,-2.0815040764838457,-4.944123458856344,1.0913436499033122
1761506903189215700,1.3292158203125,0.34121173049509523,-4.307265817254781,0.6112979241376743
1761506903209372700,1.34937255859375,0.5013754044443368,-3.313752207788825,-0.8873125579811633
1761506903229529600,1.369529541015625,0.04279460110962391,-1.3559230262905357,-1.1159864351853728
1761506903249685500,1.389685546875,0.6734650785088538,0.5014017079293728,-1.370812113995105
1761506903269842700,1.4098427734375,0.5379641366511583,2.8776468556344508,-1.5095298259422183
1761506903289999600,1.42999951171875,1.3840946432858705,3.032384412881732,-1.3032675409018992
1761506903310156500,1.450156494140625,2.4293664970397946,2.9616677856236695,-0.41723150566257533
1761506903330313700,1.470313720703125,3.045010085698962,2.781442735898495,-0.09949819284528494
1761506903350470700,1.490470703125,3.6135932324975726,2.6396184362381696,-0.12401830159574746
1761506903370626800,1.510626708984375,3.720460785067081,2.721776494964957,-0.07510258725732565
1761506903390783500,1.530783447265625,3.6078070503115653,2.9269506925076243,-0.12826660668998957
1761506903410940700,1.550940673828125,3.6443303160667417,3.169403942608833,-0.4435022574726492
1761506903431097900,1.571097900390625,3.627918110448122,3.2767882125288246,-0.38846681814491746
1761506903451254500,1.591254638671875,3.274058495303988,3.2538837222814556,-0.217842978849262
1761506903471411700,1.61141162109375,2.713157135179639,2.9656641617834567,-0.32236119181364775
1761506903491567600,1.631567626953125,1.5796055249482392,2.12459619923532,-0.2012595083169639
1761506903511724800,1.651724853515625,-0.6039344461649656,0.5178484003394842,0.14506138188540935
1761506903531881500,1.671881591796875,-3.0842081236213446,-1.1621370687246322,-0.2997051233693957
1761506903552038700,1.69203857421875,-4.96453437872231,-2.2402333337157962,-0.48576808546781536
1761506903572195600,1.712195556640625,-6.4914850028038025,-3.4351123960912227,0.8946804564006626
1761506903592352500,1.7323525390625,-8.004724496918916,-4.329581693959236,2.019688986953348
1761506903612508400,1.75250830078125,-8.09742849957943,-5.223917136314511,1.9137512625798583
1761506903632665600,1.77266552734375,-7.8633993789523835,-5.780695279029011,1.8940717257283626
1761506903652822800,1.79282275390625,-6.931120282649993,-5.854691074088215,1.8936003088243305
1761506903672979200,1.812979248046875,-4.823730069759488,-5.879255606502294,1.5369754667505622
1761506903693136100,1.83313623046875,-2.6959336131781337,-5.777814170634747,1.90911337364614
1761506903713293000,1.85329296875,-5.292978982102871,-4.975159817633033,-0.13251841891556979
1761506903733449200,1.87344921875,0.18651742786765096,-3.7462481372743843,-1.0941683519352228
1761506903753606100,1.893606201171875,0.8534662563502788,-1.049931077736616,0.5967584170557558
1761506903773763000,1.91376318359375,0.8940256457537412,1.0280278734862804,0.6197500741299241
1761506903793920300,1.933920166015625,1.9882184745430944,2.8226071054577826,0.1791969487864524
1761506903814077200,1.9540771484375,3.1128806758761405,3.9172874255031345,0.2514431236993521
1761506903834234000,1.974234130859375,4.955908589196205,3.7318461024343965,-0.28150223494172094
1761506903854390300,1.994390380859375,6.140429339164495,3.9358290443658825,-1.3094687336295843
1761506903874547200,2.014547119140625,6.587464666134118,4.068933446475863,-1.78937567197904
1761506903894704000,2.0347041015625,7.563858213973045,2.8885283151328562,-2.364482229197025
1761506903914861300,2.054861328125,7.923686382132768,3.074290540719032,-2.276641594789177
1761506903935018200,2.075018310546875,7.980386758998036,3.476192009976506,-2.3614511909380553
1761506903955175200,2.095175048828125,7.240275663670897,3.6907267410606144,-2.1757159994892774
1761506903975332400,2.115332275390625,5.508405693590641,3.948959744095802,-1.7832054589115083
1761506903995488300,2.13548828125,3.8698663336366415,4.472017988038063,-0.5390085311375558
1761506904015645200,2.155645263671875,2.7244933527082202,1.9657325019687413,-0.5669106104765087
1761506904035802000,2.175802001953125,1.6049696833074092,-0.08944996930062771,-1.043732588422671
1761506904055959300,2.195959228515625,-1.812369740206003,-1.4648895969659088,-0.38614100554585457
1761506904076116000,2.216115966796875,-4.440656050568819,-3.0033430273145436,-0.49407699106447395
1761506904096273200,2.236273193359375,-6.842994255429506,-3.5029765565276145,1.733831041020155
1761506904116429000,2.256428955078125,-9.345437679117918,-5.82803278426528,1.9177619595259427
1761506904136586200,2.276586181640625,-10.818874739676714,-8.567704416882991,0.23840320752542465
1761506904156743200,2.2967431640625,-12.53230129057169,-8.312702650853991,-0.7742784456059336
1761506904176900000,2.316900146484375,-10.22787751649618,-7.018940020400286,-0.6390367392063141
1761506904197057300,2.337057373046875,-8.628331027281284,-5.775271500414609,0.6745013627540319
1761506904217214200,2.357214111328125,-5.5455631655961275,-5.81691634696722,2.3701181892573833
1761506904237370400,2.377370361328125,-2.929413283228874,-5.1696109611094,1.2248255800887942
1761506904257527000,2.397527099609375,0.7262906597673893,-0.16849720253050327,0.9947698931373655
1761506904277684200,2.417684326171875,1.846162119692564,2.139260684403777,0.4893820381812751
1761506904297841200,2.437841064453125,2.7181132962822914,3.4797330435842273,0.6810454506352543
1761506904317998000,2.457998046875,4.206022534307837,4.52879435274899,0.5204405357245355
1761506904338155300,2.4781552734375,5.488779786622524,5.584823747360706,0.039973406209051605
1761506904358312200,2.498312255859375,6.1026511049121615,5.922575692790747,-0.46663609949648377
1761506904378468400,2.51846826171875,6.6740177449494595,6.200889360824227,-1.077457820957154
1761506904398625000,2.538625,7.074896300899982,5.74145866266191,-1.1117859147556126
1761506904418782200,2.5587822265625,7.244028878724575,5.38656502829492,-1.1485663701422513
1761506904438939100,2.578939208984375,7.154151039400697,5.394617986369132,-1.2141172121349721
1761506904459096300,2.599096435546875,6.690964788097142,5.894031735351682,-1.5183808025263248
1761506904479253200,2.619253173828125,5.718753494378924,5.888505080884695,-1.31751949974671
1761506904499409200,2.6394091796875,4.574719653099775,5.8895905380338425,-1.1917162874955682
1761506904519566300,2.65956640625,3.544826570263505,4.17841556545794,-0.7275787998817861
1761506904539723300,2.67972314453125,2.5092583644002673,0.8368424538075924,-0.3025140433102846
1761506904559880200,2.699880126953125,0.9764122525393962,-1.461056886935234,0.14167575803510843
1761506904580037000,2.720037109375,-3.4308529850810765,-3.011078005480766,-0.9973584483258425
1761506904600194300,2.7401943359375,-3.9073932234764097,-5.109023513677716,-0.32161066570729013
1761506904620351000,2.76035107421875,-5.692080006986856,-6.681434158685803,0.5142564767947421
1761506904640507100,2.780507080078125,-13.50441496913433,-7.903440297439694,-0.7527357452310621
1761506904660664000,2.8006640625,-16.83002069632411,-8.779784740552305,-2.2136717822656036
1761506904680821000,2.820821044921875,-15.8111476046741,-8.194989294621347,-2.1788871768712994
1761506904700978000,2.84097802734375,-12.114608962464333,-7.6518299274146555,-1.2621459875710308
1761506904721134800,2.861134765625,-8.234708141547442,-5.999278408721089,0.21734127640482037
1761506904741292000,2.8812919921875,-4.0100416970461605,-3.95763580250442,1.6061697067469358
1761506904761448000,2.901447998046875,0.3166828539162874,-1.3192799335479735,2.1501722467795013
1761506904781605000,2.921605224609375,2.755206470879912,-0.35169396154284477,2.1397782785370945
1761506904801761800,2.94176171875,3.7748704206466672,2.1398943061321973,2.2438678908258676
1761506904821919000,2.9619189453125,5.150249842557311,4.105864708510041,1.5889806715369224
1761506904842076000,2.982075927734375,6.72351447404623,5.3581748001128435,1.0313503689724952
1761506904862232800,3.00223291015625,8.18642604893744,5.67004586983323,0.07106460044551641
1761506904882389800,3.0223896484375,9.263331058317423,5.496498982697725,-0.21880382323805242
1761506904902546000,3.0425458984375,9.555617722123861,5.113525501272082,-0.398159579315409
1761506904922702800,3.062702880859375,9.242608588284254,4.975505270069838,-0.5245006247702986
1761506904942859800,3.08285986328125,8.503803899380564,4.638834105613827,-1.1044801948521286
1761506904963017000,3.103016845703125,6.8765738689482205,4.490623319786787,-1.2731710933238267
1761506904983174000,3.123173828125,6.2284220953941345,4.790614566621184,-0.776008995725587
1761506905003331000,3.1433310546875,5.159892115649581,6.1328580271273845,-0.6388587522909045
1761506905023487700,3.16348779296875,4.6893905728966,6.494988042488694,-0.16763243892733007
1761506905043644000,3.183643798828125,3.1604157495111225,4.467668560656905,0.2953355665156618
1761506905063800800,3.20380078125,1.9118489360898732,3.050148033109307,1.0919622932583093
1761506905083958000,3.2239580078125,0.26826982840299607,0.10638298392295836,0.7404705762892961
1761506905104115000,3.244114990234375,-2.8726772505283353,-1.8541548720121384,-0.31841596131920813
1761506905124271900,3.26427197265625,-8.552074301552771,-5.33721793680191,-0.7837315528016537
1761506905144429000,3.284428955078125,-12.35958208643198,-8.291626545077563,-0.7300649176090955
1761506905164585000,3.3045849609375,-15.637121409589051,-6.156636962121724,-2.8735578327551483
1761506905184742000,3.324741943359375,-16.8946372531414,-6.249851836913824,-4.3634249268501994
1761506905204898800,3.34489892578125,-15.06708514137268,-5.227495579323172,-2.3205964718498286
1761506905225056000,3.365055908203125,-13.188990590846538,-7.256533555510639,0.347214952965267
1761506905245212700,3.385212646484375,-9.698878776589035,-6.416053621983528,1.6213545625276862
1761506905265369900,3.405369873046875,-6.078516780608892,-4.7426545455724,1.8033935298070312
1761506905285527000,3.425527099609375,-2.1921920641243458,-2.9077222604244946,1.4884722787357867
1761506905305683000,3.445682861328125,0.9290811770439147,-1.505889715874195,0.7762028377972543
1761506905325840000,3.46583984375,3.1172891399681566,0.5162012176543473,0.7374098735444248
1761506905345996800,3.485996826171875,4.935746091133356,2.200329193350673,0.5347470377681777
1761506905366154000,3.506154052734375,6.55682052154541,3.3040193338036534,0.4028018156306818
1761506905386311000,3.526310791015625,8.328568913027643,4.279373601722717,-0.23885562746804206
1761506905406467800,3.5464677734375,9.775860309460759,5.227771473655104,-0.6108134285563602
1761506905426624800,3.566624755859375,9.624602411022781,5.724683468949794,-0.45382469484880567
1761506905446781000,3.586781005859375,8.437004153305292,5.4484846011132,-0.1280115724829957
1761506905466937900,3.606937744140625,7.6290826735556125,5.734361397877335,-0.5971935205373913
1761506905487094800,3.6270947265625,7.028609181499481,5.63382889354825,-0.560886600946635
1761506905507252000,3.647251953125,6.843895588183402,5.678446033909917,-0.45830337463282045
1761506905527409000,3.667408935546875,7.075055875375867,6.174976920932531,-0.8204378469735384
1761506905547565800,3.68756591796875,6.940443406790495,6.488851731690764,-0.8741692910306155
1761506905567722800,3.70772265625,5.859004845634103,6.23322394271791,-0.23712478508744386
1761506905587879000,3.72787890625,4.568212755423784,3.5196962206602094,0.006824585323035716
1761506905608035800,3.748035888671875,1.6008610789448021,-1.1141811393290757,-0.5160977572798728
1761506905628193000,3.768193115234375,-2.675265503680706,-3.488109242263436,-0.9577745528910309
1761506905648350000,3.788349853515625,-8.017517927518487,-6.576124941474199,-0.1530405440710485
1761506905668507400,3.80850732421875,-11.566371853601932,-9.266009337615966,-1.1186103539481758
1761506905688664300,3.828664306640625,-15.256926160705088,-10.760195756214857,-2.7352134841650724
1761506905708821200,3.8488212890625,-18.43043344697952,-9.940009838175772,-1.4831496224083005
1761506905728977400,3.868977294921875,-17.87231674913764,-8.295335920989514,0.8109799905374646
1761506905749134300,3.88913427734375,-14.930157381582259,-5.815242276275158,2.63890941118598
1761506905769291500,3.90929150390625,-9.943582435965537,-4.768635374525189,1.583873119264841
1761506905789448400,3.929448486328125,-3.23925489294827,-2.868780243089795,-0.13884287269674242
1761506905809605400,3.94960546875,1.3219710723280906,-0.7809890491604805,-0.25289339557290075
1761506905829762600,3.969762451171875,3.2796547078758476,1.7793606200516223,0.7372894620351493
1761506905849919200,3.989919189453125,3.9842373937040567,4.501599471831321,2.1340862043753264
1761506905870074400,4.010074462890625,5.1652650408595795,5.836952003780007,1.1612675924137235
1761506905890231300,4.030231201171875,7.06145346648097,6.548273642474412,1.032901909263432
1761506905910388500,4.050388427734375,8.130966027522087,6.081062957960367,0.46226869806721804
1761506905930544400,4.07054443359375,8.144479004567861,5.154333312478661,0.10759831452947109
1761506905950701600,4.09070166015625,7.679979917100072,4.330760090088844,-0.49701169280949975
1761506905970858200,4.110858154296875,7.29760030991435,4.123497980356216,-0.7687908079750836
1761506905991015400,4.131015380859375,7.653363712853193,4.25851844522059,-0.5897818925740197
1761506906011172400,4.15117236328125,8.293362575089931,4.205934271502494,-0.3332968657173216
1761506906031329300,4.171329345703125,9.082997872042656,5.759670026656985,0.09339037748947739
1761506906051486500,4.191486572265625,6.840410084155201,4.210578882437944,0.10679145512599497
1761506906071643400,4.211643310546875,5.434435032972693,4.720442713764309,0.8069905555751175
1761506906091799600,4.231799560546875,3.8800960512280462,3.284527282348275,1.2218610311947762
1761506906111956500,4.25195654296875,2.7479116376966237,-0.4187210866332054,0.6101525900274515
1761506906132113400,4.272113525390625,-1.2766799782276153,-2.8744857612550256,-0.4916707336403429
1761506906152270300,4.292270263671875,-8.597861654737592,-3.620440321913361,-1.1762331794206051
1761506906172427500,4.312427490234375,-13.157414718365668,-5.686641030803322,-1.5649813717901706
1761506906192584200,4.332584228515625,-16.07414504563212,-6.227890764996409,-2.0315438215285537
1761506906212741400,4.352741455078125,-18.01218816116452,-5.785988124740124,-0.5347384526029229
1761506906232897300,4.372897216796875,-17.9067836668849,-4.839553661835193,2.481498543076217
1761506906253054500,4.393054443359375,-14.309803131014109,-5.894174943214654,2.609696760705113
1761506906273211400,4.41321142578125,-10.276519090068339,-6.2568234294921155,2.7108675629377363
1761506906293368300,4.433368408203125,-5.278602666226029,-5.180829105216264,1.4755378322303294
1761506906313525500,4.453525390625,-0.6866577375590801,-4.0190246294468635,0.624261341009289
1761506906333682200,4.47368212890625,2.9679356138467785,-2.2305407917410136,-0.35043906611092385
1761506906353839400,4.49383935546875,4.89239502518475,0.4539613268405199,-0.49150414490178224
1761506906373996500,4.51399658203125,5.616157627779245,2.43870014257431,-1.1500389269128442
1761506906394152400,4.53415234375,5.897537113124132,3.9019361271142956,-1.7464510147489607
1761506906414309400,4.554309326171875,6.591562164580822,4.880995094770193,-1.4424173606559634
1761506906434466300,4.57446630859375,7.516131417158245,5.530421126043796,-1.0100513411603866
1761506906454623500,4.59462353515625,7.866914109075069,5.624956435784697,-0.3303391849555075
1761506906474780400,4.614780517578125,8.13392487732768,5.021859609487652,0.15912812035642562
1761506906494937300,4.634937255859375,8.458079674559832,4.909381231299043,-0.4757837940048426
1761506906515094300,4.65509423828125,8.31121270455718,5.012175250819325,-1.1654830912169067
1761506906535250400,4.67525048828125,7.870370387008785,5.296295559304952,-1.3141459316603838
1761506906555407400,4.695407470703125,7.747781533694267,5.403951631903648,-1.3776036738313733
1761506906575564300,4.715564208984375,7.6657357031702995,5.714333339849114,-1.461455823124945
1761506906595721500,4.735721435546875,6.684655458819866,5.704043416503072,-1.20827192017287
1761506906615878400,4.75587841796875,5.683637172812223,4.068721265029907,-1.555449719465524
1761506906636035300,4.776035400390625,3.9795992125093935,0.5117226109355688,-1.558239350184053
1761506906656192300,4.796192138671875,0.44045127240419385,-4.333513772711157,-0.7301485042393208
1761506906676348200,4.81634814453125,-6.916734029901027,-5.775356840610504,-1.3822006462328136
1761506906696505000,4.836505126953125,-13.429321441966295,-6.286306129086017,0.6089155955784022
1761506906716662300,4.856662353515625,-17.65641891300678,-6.079608667498826,1.0503279680997133
1761506906736819000,4.87681884765625,-20.474974112725256,-6.49451048810482,1.978950295460224
1761506906756976000,4.89697607421875,-20.297742399597166,-5.909690492254495,2.534686235645413
1761506906777133300,4.91713330078125,-17.347672112786768,-6.372643519324064,3.2056931073471904
1761506906797290000,4.9372900390625,-13.22734925533533,-5.391800006338953,3.7783009796172378
1761506906817447200,4.957447265625,-8.41679197088182,-4.051420293878019,2.976739682549238
1761506906837603000,4.97760302734375,-3.0872482219696042,-3.336004079346359,1.4854444553472101
1761506906857760300,4.99776025390625,1.253192719656229,-1.3850044516071676,0.2751809229657054
1761506906877917000,5.0179169921875,3.505908518326282,0.5311138323649763,-0.27554069618880744
1761506906898074000,5.03807421875,5.195097284543514,1.9775436435326932,-0.8179752562522887
1761506906918231300,5.058231201171875,5.420196079739928,2.7980539712205528,-1.2986115317896008
1761506906938388200,5.07838818359375,6.037100482115149,3.4957463130131363,-1.8512090278185902
1761506906958545200,5.098545166015625,7.44064626032412,3.5539456962645053,-1.995200734645873
1761506906978702000,5.1187021484375,8.60601281248927,3.619327392235398,-1.348873838431388
1761506906998858200,5.138858154296875,9.576353636160492,4.298970867118239,-0.6003520576335489
1761506907019015200,5.15901513671875,9.595098668640851,5.911306695279479,0.15044855481646954
1761506907039172000,5.179172119140625,9.538190201982855,7.234416416248679,0.16470570129305123
1761506907059329000,5.1993291015625,7.973433286598325,7.55830993219614,-0.1317327484305948
1761506907079486200,5.219486328125,7.383119954028725,7.335106741487979,0.3841216285474598
1761506907099643100,5.23964306640625,6.915503611323237,6.768938839137554,1.388451231060177
1761506907119800000,5.259800048828125,6.842504426085949,6.299142814305425,1.927174223254621
1761506907139956200,5.279956298828125,5.72301290538907,5.270391302719712,2.1931436657607555
1761506907160113200,5.300113037109375,5.406507161605358,1.7803373561292886,1.4660611249633133
1761506907180270000,5.32027001953125,2.4808336494266987,-1.2519973723918199,-1.2597513475194573
1761506907200427000,5.340427001953125,-5.028343710809946,-1.7504542590409515,-1.7863569086797535
1761506907220584200,5.360584228515625,-11.180994233644007,-4.43748385027349,-2.368593902299553
1761506907240741400,5.380741455078125,-15.593208618104457,-4.825282267637551,-3.7385675196439028
1761506907260898000,5.40089794921875,-17.894793953883646,-6.88011840968728,-1.9498207932181655
1761506907281055200,5.42105517578125,-18.658497521722314,-6.344906786614656,0.16118980212658643
1761506907301211100,5.441211181640625,-17.67434503031969,-6.440990494841337,1.6117515985324977
1761506907321368300,5.461368408203125,-13.3054390417099,-5.805182070031762,0.5411304186623543
1761506907341525000,5.48152490234375,-7.6721666130006305,-4.762519229732454,0.05393726882748306
1761506907361682200,5.50168212890625,-1.8190964181125162,-3.304895532116294,0.11759265246242284
1761506907381839000,5.521839111328125,1.8508856410831211,-1.3910878631740808,0.36676936559975143
1761506907401996000,5.54199609375,4.1053538363784545,1.0861971538603306,1.2271110606774687
1761506907422153200,5.5621533203125,5.652019799277186,3.4359158214285968,1.3728987110108137
1761506907442309000,5.58230908203125,6.667505002054572,4.570518109756708,0.4483332943582907
1761506907462466300,5.60246630859375,8.378643149751424,4.4107326214700935,0.0945016631996259
1761506907482623000,5.622623046875,9.518792843073605,4.668974100072681,0.0933576990625821
1761506907502780200,5.6427802734375,9.26521731045544,3.2414763683900234,0.16644753999169914
1761506907522937000,5.66293701171875,7.747164278578758,3.105930126085877,0.052909569747559726
1761506907543094300,5.68309423828125,7.477357157605886,3.062062050525844,-0.30867052011340856
1761506907563251200,5.703251220703125,7.485244111463427,3.5985540687978266,-0.5284221455955878
1761506907583408000,5.723408203125,7.497180632972717,3.786778885105252,-0.3422241589406505
1761506907603564000,5.74356396484375,6.975848482170701,4.523747006231546,-0.1318449401007965
1761506907623721200,5.76372119140625,6.976905297747254,4.501498641805351,-0.44467466225288804
1761506907643878100,5.783878173828125,6.461814087161422,3.711800508749485,-0.4191672229655087
1761506907664035000,5.80403515625,5.056733938992023,0.7114601703822613,0.09742416305020452
1761506907684192800,5.82419287109375,2.876708113479614,-4.33784595669657,0.5976053162086755
1761506907704350000,5.844349853515625,-3.6970489298194646,-3.874998728089034,0.12909202466346323
1761506907724507000,5.8645068359375,-11.572478938305377,-4.0451118413835765,1.1866362077523023
1761506907744663000,5.8846630859375,-16.398927619373797,-4.60710567291975,-0.041104163804650304
1761506907764820000,5.904820068359375,-17.300995701807736,-4.040558415862917,-1.1064163505464792
1761506907784977000,5.924976806640625,-17.658317440104483,-4.290979868364333,-0.4668266536325216
1761506907805133800,5.9451337890625,-15.427811135154961,-5.515747288525104,1.1297365819878875
1761506907825291000,5.965291015625,-11.196568234872817,-5.288761072146892,1.9417479613997042
1761506907845447700,5.98544775390625,-8.18661134237647,-3.1954891087189314,2.433867900112271
1761506907865604900,6.00560498046875,-4.632027348208427,-2.7417168747097254,1.5486612283691763
1761506907885762000,6.025761962890625,-0.41917701370716093,-2.629048526906967,-0.1629759548909962
1761506907905918000,6.04591796875,2.1430402029424904,-1.590339100408554,-0.8327389640115201
1761506907926075000,6.066074951171875,3.985365520951152,0.8334791148543358,-0.6098845867410302
1761506907946231800,6.086231689453125,5.386553922379017,2.9418732440903783,-1.0402584825713186
1761506907966389000,6.106388916015625,6.181979493170976,3.7114860359728334,-0.5884608365707099
1761506907986546000,6.1265458984375,7.079278461506962,3.830174082456529,0.0026230419799685477
1761506908006702800,6.146702880859375,8.151630045366288,2.7124565856948495,-0.185016777513735
1761506908026860000,6.166860107421875,8.658918473246693,1.7098314490124582,-0.24225171791343017
1761506908047017000,6.187016845703125,9.23470819042325,1.6116034222334623,-0.5036131369011476
1761506908067173000,6.207173095703125,9.441085918536782,2.780433558855951,-0.5989266644729301
1761506908087329800,6.227329833984375,8.575237150475383,3.2701968514397737,-0.3344101241888478
1761506908107487000,6.247487060546875,8.528300627255438,3.9040997348889706,-0.26019860401973127
1761506908127644000,6.267643798828125,8.20348882741928,4.091735353131592,-0.8246360293157399
1761506908147800800,6.28780078125,8.137724854132532,3.98334512103945,-2.0304963583022353
1761506908167957800,6.307957763671875,7.628891534897685,4.100661586908996,-2.340325400801003
1761506908188115000,6.328114990234375,5.716137174400687,4.481240866674483,-2.036826730367541
1761506908208270800,6.348270751953125,3.2785002771437166,-1.2187401226952672,-1.951364223267883
1761506908228427800,6.368427734375,-0.1823860271513462,-4.174082212428749,-0.8490607148677111
1761506908248585000,6.3885849609375,-5.988213993871212,-5.111784210562706,0.5840118943378328
1761506908268742000,6.408741943359375,-8.857692740619182,-8.385427110803127,3.443794591979682
1761506908288899000,6.428899169921875,-14.805506919562816,-8.297781560575961,2.807564726887643
1761506908309055700,6.4490556640625,-18.92337244699001,-6.492000551110506,4.408385181561112
1761506908329213000,6.469212890625,-20.579103180241585,-5.470989278388023,5.5909442760676145
1761506908349368800,6.489368896484375,-18.486283344495295,-5.0688896562099455,4.605167398333549
1761506908369526000,6.509526123046875,-13.963644591766595,-3.8368814711406825,2.5094278757482766
1761506908389683000,6.529682861328125,-7.433854700487852,-2.7395000754430887,1.6142657733105121
1761506908409839900,6.54983984375,-1.1191221028625964,-2.061449130448699,0.48890083053559064
1761506908429997000,6.5699970703125,3.3311177686095235,0.06118629010766744,-0.7410824976425617
1761506908450153700,6.59015380859375,2.959389903819561,2.711923501731455,0.0007012801371514797
1761506908470311000,6.610310791015625,4.409588127610087,3.4364722862675783,-1.2980135658964513
1761506908490467800,6.6304677734375,7.036325454965233,3.3393060435011983,-2.0000081349276004
1761506908510624000,6.6506240234375,8.04753546464145,3.786737968572974,-1.4595093652322888
1761506908530780700,6.67078076171875,9.66867711507082,3.375213223184645,-0.9094294049821794
1761506908550937900,6.690937744140625,10.883547410595416,2.7983360030323263,-0.810765617134422
1761506908571095000,6.711094970703125,11.50740294728279,2.5628438241153955,-0.899241846032068
1761506908591252000,6.731251953125,11.562137577033042,3.186972624786198,-0.8977791530683636
1761506908611409000,6.751408935546875,10.622111812126636,3.6359757446974514,-1.1471993926379829
1761506908631565800,6.77156591796875,9.08657222339809,3.464681020402908,-2.0739137674853203
1761506908651722000,6.791721923828125,8.022029851984977,3.556717206804454,-2.4255273572683334
1761506908671879000,6.81187890625,8.288493507748841,5.98642652593255,-2.099820508288592
1761506908692035800,6.832035888671875,4.9332951908499,1.3532438702091574,-0.8122538829308003
1761506908712192800,6.85219287109375,2.135035760185122,-1.6605369644895196,1.707032465943694
1761506908732350000,6.872349853515625,-2.8767110360890626,-4.265739628645777,1.89757812641412
1761506908752507000,6.8925068359375,-8.343821427217126,-3.6169498494490977,2.1396011684045195
1761506908772663800,6.912663818359375,-12.74153440811634,-6.141487323784828,1.5608583005107939
1761506908792821000,6.932821044921875,-15.496008473068475,-7.014497654038667,0.24889736647298558
1761506908812977000,6.952976806640625,-19.501431862664223,-6.0475283526271575,-0.9887436185851692
1761506908833133800,6.9731337890625,-20.76592806662321,-4.312831342427432,-0.5237277772342785
1761506908853290800,6.993290771484375,-17.693857540041208,-2.3706682243555783,0.8040121973514557
1761506908873448000,7.013447998046875,-12.307498847973346,-1.6910031221628188,1.2210662275552748
1761506908893605000,7.033605224609375,-5.207063616669178,-1.610382356005907,0.9625967854157089
1761506908913761800,7.05376171875,-0.7371370479524135,-1.8887676279708743,1.2514309706807136
1761506908933919000,7.0739189453125,2.483617727187276,0.4643444814279675,1.2050818919599056
1761506908954075000,7.094074951171875,3.528938096258044,1.8049550800353287,-1.1925258503127842
1761506908974232000,7.114232177734375,4.3938609816461796,-1.4134516706734894,-1.8954843690052627
1761506908994388700,7.134388671875,6.801480926302075,4.732695753876865,-0.32373386840634044
1761506909014546000,7.1545458984375,7.891765641736984,2.5344544727161527,-1.0105451890919357
1761506909034702800,7.174702880859375,10.714732812678813,3.4243428725346923,-0.9616027328770607
1761506909054859800,7.19485986328125,11.224216120254992,3.3424753211870786,-0.5580495508898049
1761506909075017000,7.215016845703125,10.423581290382145,2.335731643269956,-0.4161456831872463
1761506909095172900,7.2351728515625,10.698557922947407,4.430509335085749,-0.18257614289596677
1761506909115330000,7.255330078125,10.236975015187262,4.483369110874832,-0.46580688213072713
1761506909135486700,7.27548681640625,10.649998182439804,5.018342541277408,-1.0344495770968496
1761506909155644000,7.295643798828125,9.792169054704903,5.514794517844915,-1.1882229654870926
1761506909175800800,7.31580078125,8.055123727813363,5.2848956288903945,-1.134223445078358
1761506909195958000,7.3359580078125,6.733178374448419,2.7959435549378395,-0.8486609018951654
1761506909216115000,7.356114990234375,4.094085423389077,0.16182108576744794,-1.172323458630964
1761506909236271900,7.37627197265625,-0.4479138633698225,-1.6178005233079193,-0.4738671467285603
1761506909256428000,7.396427978515625,-6.059611589130759,-2.1895134925648567,1.3444988382175564
1761506909276585000,7.4165849609375,-13.491724998909234,-3.6646857063531875,2.2019886509954927
1761506909296742000,7.436741943359375,-18.441748621720073,-3.887798880690336,2.1349761389523745
1761506909316898800,7.45689892578125,-20.46676274921894,-4.495596724285185,0.6623471799060702
1761506909337056000,7.477055908203125,-21.622458386719227,-3.045162938173115,1.3578810284905134
1761506909357212700,7.497212646484375,-20.05593504618406,-2.864085655532777,2.6382383800566194
1761506909377369900,7.517369873046875,-15.59367155944109,-2.7838845760926603,2.7904642467439174
1761506909397525800,7.53752587890625,-9.189554458966851,-2.581992176699638,1.8278727220252156
1761506909417683000,7.557682861328125,-2.379044423034787,-2.4052502929151056,0.6563841798484324
1761506909437840000,7.57783984375,2.266757768025994,-1.1159987101450561,-0.6587636223308742
1761506909457996800,7.597996826171875,4.692611873030662,0.9123837247431278,-1.6265217360325157
1761506909478154000,7.618154052734375,7.216327217328548,2.7842195071354507,-2.192752620616555
1761506909498311000,7.638310791015625,9.490872570490836,3.859410406073928,-1.8840116656154393
1761506909518467800,7.6584677734375,11.484667383861542,4.092519489246607,-1.2494243070334194
1761506909538623700,7.678623779296875,12.614997109436988,3.428928739020228,-1.521997970110178
1761506909558781000,7.698781005859375,13.002986373198032,3.1510905795440074,-1.444884481421858
1761506909578938000,7.718938232421875,12.178195591711997,3.2229531619668004,-1.127841342825815
1761506909599094800,7.7390947265625,11.344693095982073,3.5904420740127563,-0.7895577016718686
1761506909619252000,7.759251953125,10.18455626116395,4.1006937356129285,-0.41974677641913294
1761506909639409000,7.779408935546875,9.251210996934772,4.496887056356668,-0.26705482659004626
1761506909659565800,7.79956591796875,8.220523548850416,5.006467979088425,-0.2358274022206664
1761506909679722000,7.819721923828125,7.2771233390748495,4.831129824621975,-0.26399076284430917
1761506909699878000,7.8398779296875,5.58328703931272,2.8804285953074693,-0.4166304710295051
1761506909720035000,7.86003515625,3.4411452465146777,-0.07615092726647854,-1.0643944873750208
1761506909740192000,7.88019189453125,-1.9465128377139567,-1.25286451061517,-1.3448834536209702
1761506909760349000,7.900348876953125,-10.627412256622314,0.9361645594336092,-0.060336176084354515
1761506909780506000,7.920506103515625,-15.326421137213707,-1.2658996410161256,2.1823563142865896
1761506909800663000,7.9406630859375,-20.516924079704282,-0.10426993729174136,2.6635440862268207
1761506909820820000,7.960820068359375,-23.01382155970335,-0.5799849769093096,3.348720645317435
1761506909840976000,7.980975830078125,-22.6375133813858,-2.116126769314706,2.564744981561601
1761506909861133000,8.001133056640626,-18.88076080123186,-4.548466436946391,1.4149398634046315
1761506909881290000,8.0212900390625,-14.908632947516441,-5.515639736497402,0.29229806198328734
1761506909901447200,8.041447265625,-10.536610288190841,-4.643768054884672,0.2684065334599465
1761506909921603800,8.061603759765624,-6.0061482944905755,-2.9083827701598404,1.0711174389544873
1761506909941761000,8.081760986328124,-1.197169803661108,-1.093374498143792,1.0921601539179682
1761506909961918200,8.101918212890626,2.627968914976716,0.8599474350631237,-0.1170111993126571
1761506909982074000,8.12207421875,5.779960535013675,2.4203607682853936,-1.3330017310388385
1761506910002231000,8.14223095703125,8.628326351106166,3.6275492771357296,-1.6506642436422407
1761506910022388000,8.162387939453126,10.938155783617496,4.37603072592318,-1.4578379248887299
1761506910042545200,8.182545166015625,11.97401040520668,4.191794394730032,-1.1660869753941894
1761506910062701800,8.202701904296875,12.131485278463362,3.6769630041241643,-1.2096730191424487
1761506910082859000,8.22285888671875,11.942241640502214,3.2711598512530324,-1.226663755301386
1761506910103016000,8.243015869140624,11.057365515887737,3.7577129496186967,-1.2232966169558466
1761506910123172000,8.263172119140625,10.210354719287157,4.556506535539031,-1.2463503064155579
1761506910143329000,8.2833291015625,9.526959782916308,5.198144981676339,-1.3667701451279222
1761506910163486000,8.30348583984375,8.962470042911171,5.478259561651945,-1.1969131985515356
1761506910183643100,8.32364306640625,8.185691889443993,4.876452482904494,-1.6675369063794612
1761506910203800000,8.343800048828125,7.1342246881812805,3.118176151935756,-1.8535782411679624
1761506910223957000,8.36395703125,3.91737042761147,-0.660290539637208,-1.991591458107531
1761506910244114000,8.384114013671875,-1.0464391439676284,-3.161633016346395,-1.2760570240236817
1761506910264272000,8.40427197265625,-4.68659246661067,-3.4991923618137832,0.11801891505047678
1761506910284429000,8.424428955078126,-8.389977613714336,-3.5605303353518245,1.7995662266038357
1761506910304586000,8.4445859375,-13.955508047062159,-5.03905916609168,2.9613112272709605
1761506910324743000,8.464742919921875,-18.012551733779905,-6.313252588200569,2.214238330107182
1761506910344900000,8.484900146484375,-21.16272256813049,-6.186625273150205,1.5390753616392612
1761506910365056000,8.505055908203126,-21.758637958490848,-4.993839383661746,3.532860238137841
1761506910385213000,8.525212890625,-17.971864334082603,-2.9693536639511584,4.575671254736185
1761506910405370000,8.5453701171875,-11.739933938306569,-3.617612405011058,3.7043560379624365
1761506910425527000,8.565527099609374,-5.888596850821376,-3.397165819534659,1.9529818875975906
1761506910445684000,8.58568408203125,-0.32367315119504925,-1.2975991398766635,-0.0395109032638371
1761506910465841200,8.605841064453125,2.743738735926151,2.742252881282568,-0.8032881208606064
1761506910485997800,8.625997802734375,6.7046729954540725,4.2660467948988074,-2.3081613531686362
1761506910506154000,8.646154052734374,10.62624321284294,5.067698400598764,-2.8015403520315885
1761506910526311000,8.666310791015626,13.147574876874685,4.964858788371086,-2.9195374936416743
1761506910546468000,8.686468017578125,13.64910284153223,4.54118709359318,-2.1882878962926564
1761506910566625000,8.706625,13.415170167016981,3.8462975342616437,-2.1535496142581105
1761506910586782000,8.726781982421874,12.279156550586222,4.443546219052374,-2.2463427565068006
1761506910606939100,8.746939208984376,11.540369981861113,4.704383267106116,-1.8113592479892073
1761506910627096000,8.767095947265625,10.270206253659724,4.987188693600893,-1.6824031977303324
1761506910647252000,8.787251953125,9.183770030346512,5.2092707713246345,-1.6891534026429056
1761506910667409000,8.807408935546874,7.583684027427434,5.7679579625308515,-1.6731623450458049
1761506910687566600,8.827566650390626,6.829065683320164,5.45432339026928,-1.5728860074348747
1761506910707723500,8.8477236328125,5.954878710502386,4.384692171284557,-0.7351767076648771
1761506910727880400,8.86788037109375,4.485509922295808,1.0425187556535005,0.4413172415837645
1761506910748037600,8.88803759765625,2.161801017513871,-1.7341893529385328,0.43543242132887244
1761506910768194600,8.908194580078124,-2.07632988871634,-2.0780258789792656,-0.7983003955759108
1761506910788350500,8.9283505859375,-8.057580473315715,-1.6230346245691178,0.4173325548842549
1761506910808507400,8.94850732421875,-15.198482155042885,-2.012093271127343,1.77867015356943
1761506910828664600,8.96866455078125,-20.596442437577245,-0.048005759886652226,2.5290052673995493
1761506910848821500,8.988821533203126,-25.280887370765207,0.22305106888636944,1.9542130368277428
1761506910868978400,9.008978515625,-24.845617300391197,-2.444391486083716,2.972918662956357
1761506910889135600,9.029135498046875,-19.698710338521003,-5.037464590376615,1.3920574388585985
1761506910909292500,9.04929248046875,-14.65514217057228,-4.848699675843119,1.084659203703329
1761506910929448700,9.06944873046875,-11.073521700918674,-2.253013758703321,1.444902893861383
1761506910949605400,9.08960546875,-6.541033169826865,0.37972500102370976,1.2977324108675121
1761506910969762600,9.109762451171875,-0.7227297524154186,2.0412536068990828,0.6817500917732715
1761506910989919500,9.12991943359375,4.98003356114924,3.4872134624674915,0.4704943092945963
1761506911010076400,9.150076416015626,8.903568941131233,4.407323105287552,0.48091585966367273
1761506911030233600,9.170233642578125,10.741958673256635,4.721587792146206,0.3347655134977773
1761506911050389500,9.190389404296875,12.242297769266367,3.8358988898441195,0.4547034869773313
1761506911070546700,9.210546630859374,13.160350187295675,2.7249668154388664,0.38559436798114327
1761506911090703400,9.230703369140626,13.56442900059223,1.8532520779535173,-0.15406579546555876
1761506911110860500,9.250860595703125,12.57855216961503,2.9403634240493175,0.0418741572298808
1761506911131017500,9.271017578125,11.087429814761876,4.145033520337939,0.08330989564303308
1761506911151174700,9.291174560546875,9.539434649085997,4.913294605350494,-0.2768430109590292
1761506911171331300,9.311331298828126,8.85783010326326,5.212848045289516,-0.21004828811874612
1761506911191487500,9.331487548828125,8.13301302317977,5.430255116939544,-0.2158432929320261
1761506911211644400,9.35164453125,7.346690796297788,5.175587112909555,-0.533876903870143
1761506911231801600,9.371801513671874,6.094491763854027,2.370238308505714,0.16922394590247422
1761506911251958500,9.39195849609375,3.3106659322112795,-0.6403004755318165,1.2765659964591265
1761506911272115500,9.412115478515625,-1.518864348259568,-2.148863502268493,0.4137106015274301
1761506911292272600,9.432272705078125,-6.301810572209954,-2.7552880116835237,-1.3184388065487145
1761506911312428500,9.452428466796874,-11.479571522027253,-4.473966491757333,-1.628674091760814
1761506911332585500,9.47258544921875,-17.231296142637728,-3.508378415571153,-0.7260101623255759
1761506911352742400,9.492742431640625,-24.064513684940337,-1.3517282049492,1.579311948829144
1761506911372899600,9.512899658203125,-26.285367195403573,-2.075356075248122,3.962027899983525
1761506911393056500,9.533056396484374,-20.820246516788004,-4.609660325838625,1.9751777911841868
1761506911413213400,9.55321337890625,-13.283538175547122,-5.938050325298309,-0.3677969185492024
1761506911433370600,9.57337060546875,-6.627628334218263,-5.370495937025547,-0.4142162494946271
1761506911453526500,9.593526611328125,-1.481333366766572,-2.229110758937895,0.13499189635701478
1761506911473683700,9.61368359375,1.7968752339541911,1.5012521192014217,0.2773030479525216
1761506911493840400,9.63384033203125,4.87822212292552,4.275936320750415,0.021667619095905682
1761506911513997600,9.65399755859375,8.019804577150941,5.679018865361809,-0.2303956960281357
1761506911534154500,9.674154541015625,11.197268492096661,5.747126771426201,0.04812330358540639
1761506911554311400,9.6943115234375,12.756776400911807,5.545505882450938,0.6208301244515926
1761506911574467300,9.71446728515625,12.448113771843909,4.468646465778351,0.30016890495624393
1761506911594624500,9.73462451171875,11.691742446589469,3.790520409721136,0.03488269547391683
1761506911614781700,9.75478173828125,10.627323409295082,4.257828709390759,0.27988015016522255
1761506911634938400,9.7749384765625,9.626263622233271,4.894641927328705,0.15848737476747482
1761506911655095600,9.795095458984376,8.34056739385724,5.438853433936834,0.057503583006933326
1761506911675252500,9.81525244140625,6.904608707821369,5.943772794598341,0.0326688918819651
1761506911695409400,9.835409423828125,6.344259720882773,5.816162313729524,0.33864520447533575
1761506911715565600,9.855565673828124,5.5334121245533225,3.728710142496228,0.3691353640787303
1761506911735722200,9.87572216796875,4.094724890336394,-0.2085059723138809,0.7649571480963379
1761506911755879400,9.89587939453125,0.807534526258707,-2.042578718023002,0.2441863209715113
1761506911776036600,9.91603662109375,-4.004299938523769,-3.6178476750716566,-0.11878968022726476
1761506911796193300,9.936193359375,-9.65067734799981,-4.758904254105687,0.6095485231870785
1761506911816350500,9.9563505859375,-14.549646490877866,-5.8656233869910235,-0.4139063067626208
1761506911836506400,9.97650634765625,-18.49217064896822,-6.735386113625765,-1.6744775192975998
1761506911856663600,9.99666357421875,-22.942689921903607,-4.9391135217398405,-0.06494868398164398
1761506911876820200,10.0168203125,-22.44203990912437,-3.807640763609111,1.6877344757556914
1761506911896977400,10.036977294921876,-17.121477339047193,-4.057926899293065,1.7865119531109928
1761506911917134300,10.05713427734375,-9.854164615368843,-4.633831475020945,1.2945860756658016
1761506911937291300,10.077291259765625,-2.4515333206623793,-3.4657959959074853,1.2797101397037505
1761506911957447200,10.097447265625,3.616546237084269,-0.521712966813147,1.3857758743710815
1761506911977604400,10.117604248046876,7.150922725003958,3.0212533625364304,1.1613560744147746
1761506911997761500,10.137761474609375,9.105776690083742,4.976408940911293,0.03891374108828604
1761506912017918500,10.15791845703125,10.953542737841605,5.838918919938802,-0.7809257746659218
1761506912038075400,10.178075439453124,12.926945920568704,4.8109407308131455,-0.988698829595372
1761506912058232300,10.198232421875,12.411770538830757,3.5026702670574186,-0.8114645591840147
1761506912078388500,10.218388427734375,10.733072771489619,3.392990287415683,-0.602968706405349
1761506912098545400,10.23854541015625,8.892392298078537,4.648622509178519,-0.05740297217667102
1761506912118702300,10.258702392578124,8.33245306098461,5.371004471069574,-0.13427476106360553
1761506912138859300,10.278859375,6.399199517816305,5.914393555378913,0.0018473448997363448
1761506912159016400,10.299016357421875,7.0345753964275115,5.086501300746202,-1.133005959047377
1761506912179173400,10.31917333984375,6.4884530877619975,3.985439462970197,-0.8659816006608306
1761506912199329300,10.339329345703124,5.88780540818274,1.5047753248915074,-0.8126319955281913
