time,seconds_elapsed,z,y,x
1761506901939491600,0.07949169921875,-0.1565699428319931,-0.5078614354133606,0.08848242461681366
1761506901959648500,0.0996484375,-0.08162519335746765,-0.3467543125152588,0.012786931358277798
1761506901979805400,0.119805419921875,-0.007132195867598057,-0.1738143116235733,-0.12314571440219879
1761506901999961600,0.139961669921875,0.010443872772157192,-0.053718023002147675,-0.16732469201087952
1761506902020118500,0.160118408203125,0.017606498673558235,0.053498245775699615,-0.1206187829375267
1761506902040275500,0.180275390625,-0.0036754440516233444,0.13552235066890717,-0.012835092842578888
1761506902060432600,0.2004326171875,-0.04167516902089119,0.17794787883758545,0.09345419704914093
1761506902080589600,0.220589599609375,-0.03537918999791145,0.1449662446975708,0.12285523116588593
1761506902100746800,0.240746826171875,-0.001555479597300291,0.07913661003112793,0.10259880870580673
1761506902120902700,0.260902587890625,0.018960094079375267,0.09370448440313339,0.08012951165437698
1761506902141059600,0.2810595703125,0.010492198169231415,0.1371980607509613,0.058928851038217545
1761506902161216500,0.301216552734375,-0.012698663398623466,0.1451287716627121,0.060535650700330734
1761506902181373700,0.321373779296875,-0.03344358503818512,0.0804341733455658,0.034640196710824966
1761506902201530400,0.3415302734375,-0.00903924647718668,0.05703897029161453,-0.09207618981599808
1761506902221687600,0.3616875,0.03269616514444351,0.13814151287078857,-0.20908306539058685
1761506902241844700,0.3818447265625,0.07462603598833084,0.22903600335121155,-0.21612952649593353
1761506902262000600,0.402000732421875,0.12239716202020645,0.3302586078643799,-0.11718679219484329
1761506902282157600,0.422157470703125,0.15396033227443695,0.4209827184677124,-0.046311844140291214
1761506902302314500,0.442314453125,0.11325016617774963,0.3880188763141632,0.0037150534335523844
1761506902322471700,0.4624716796875,0.08694720268249512,0.37614905834198,0.011717320419847965
1761506902342628400,0.48262841796875,0.04844691604375839,0.3980107307434082,-0.03702044114470482
1761506902362785500,0.50278564453125,-0.006729042157530785,0.4251863360404968,-0.09592550247907639
1761506902382941400,0.52294140625,0.0038575204089283943,0.4609287679195404,-0.11965090781450272
1761506902403098600,0.5430986328125,0.020273439586162567,0.6279320120811462,0.1052115187048912
1761506902423255600,0.563255615234375,-0.08524186909198761,0.6597420573234558,0.39113926887512207
1761506902443412500,0.58341259765625,-0.11495950073003769,0.643531322479248,0.4868563711643219
1761506902463569700,0.603569580078125,-0.0305793359875679,0.3722147047519684,0.7406985759735107
1761506902483726600,0.6237265625,0.19004929065704346,-0.5417085886001587,1.2267383337020874
1761506902503882800,0.6438828125,0.4944324493408203,-1.2650750875473022,1.5648865699768066
1761506902524039400,0.664039306640625,0.6669583320617676,-1.5177754163742065,1.5868264436721802
1761506902544196600,0.684196533203125,0.6806250810623169,-1.317439317703247,1.4786990880966187
1761506902564353500,0.704353515625,0.7707696557044983,-0.30698713660240173,1.2910244464874268
1761506902584510500,0.724510498046875,0.9095810055732727,1.1157102584838867,0.696434736251831
1761506902604667600,0.744667724609375,0.9240105748176575,1.8272901773452759,-0.0493912436068058
1761506902624823600,0.764823486328125,0.9760633707046509,1.5692765712738037,-0.4309900403022766
1761506902644980700,0.784980712890625,1.029584288597107,0.7067070007324219,-0.5564178228378296
1761506902665137400,0.805137451171875,0.8816015720367432,-0.235422283411026,-0.4665083885192871
1761506902685294600,0.825294677734375,0.5875115394592285,-1.0386747121810913,-0.3087690472602844
1761506902705451800,0.84545166015625,0.15002353489398956,-1.3547229766845703,-0.30872437357902527
1761506902725608700,0.865608642578125,-0.526637852191925,-1.6673516035079956,-0.7848650217056274
1761506902745764600,0.8857646484375,-1.0309433937072754,-1.3901633024215698,-1.1266793012619019
1761506902765921500,0.905921630859375,-0.8715307712554932,-0.624567449092865,-0.9166979789733887
1761506902786078700,0.92607861328125,-0.44898390769958496,0.2496093511581421,-0.23820526897907257
1761506902806235600,0.946235595703125,-0.06330447643995285,0.942352831363678,0.5357370972633362
1761506902826392600,0.966392578125,0.09337429702281952,1.3414937257766724,0.9086673259735107
1761506902846549800,0.9865498046875,-0.2536831498146057,1.1864330768585205,0.9368309378623962
1761506902866705700,1.00670556640625,-0.5404016971588135,0.6638962626457214,0.9172420501708984
1761506902886862800,1.02686279296875,-0.4784848392009735,0.7448447942733765,0.8207847476005554
1761506902907019500,1.04701953125,-0.5594110488891602,0.8203924298286438,1.0098730325698853
1761506902927176700,1.0671767578125,-0.6179810166358948,0.6982722878456116,1.181543231010437
1761506902947333600,1.087333740234375,-0.6240760684013367,0.6352351903915405,1.517752766609192
1761506902967490600,1.107490478515625,-0.629749596118927,0.18198895454406738,1.6194899082183838
1761506902987647500,1.1276474609375,-0.24653537571430206,-0.6110016107559204,1.2870571613311768
1761506903007803600,1.1478037109375,-0.042564645409584045,-0.8082869052886963,0.9607552289962769
1761506903027960600,1.167960693359375,-0.16498911380767822,-0.8988983631134033,1.0210797786712646
1761506903048117800,1.18811767578125,-0.02748715877532959,-0.8857288956642151,1.190937876701355
1761506903068274700,1.208274658203125,0.2369108498096466,-0.6779627799987793,0.9395503997802734
1761506903088431600,1.228431640625,0.31312376260757446,-0.7564576864242554,0.04285837337374687
1761506903108588800,1.2485888671875,0.29258817434310913,-0.7975859642028809,-0.7972150444984436
1761506903128744700,1.26874462890625,0.4074804186820984,0.13264800608158112,-1.311911702156067
1761506903148901600,1.288901611328125,0.4181877672672272,0.40877071022987366,-1.821431040763855
1761506903169058600,1.30905859375,0.4560439884662628,0.1092224270105362,-1.8194681406021118
1761506903189215700,1.3292158203125,0.5161733627319336,-0.1884137988090515,-1.6356819868087769
1761506903209372700,1.34937255859375,-0.03626183420419693,-0.8568375706672668,-2.0206704139709473
1761506903229529600,1.369529541015625,-0.9045992493629456,-1.6248186826705933,-2.4441611766815186
1761506903249685500,1.389685546875,-1.1302871704101562,-1.1356958150863647,-2.398716449737549
1761506903269842700,1.4098427734375,-0.9201871752738953,0.040716033428907394,-2.199848175048828
1761506903289999600,1.42999951171875,-0.6543199419975281,0.8890008926391602,-1.8446381092071533
1761506903310156500,1.450156494140625,-0.6839666366577148,0.2282078117132187,-1.0233054161071777
1761506903330313700,1.470313720703125,-0.7409027814865112,-0.6539191603660583,-0.44224870204925537
1761506903350470700,1.490470703125,-0.5308973789215088,-0.37949347496032715,-0.05060394108295441
1761506903370626800,1.510626708984375,-0.28889694809913635,0.45499587059020996,0.06967407464981079
1761506903390783500,1.530783447265625,-0.03038860112428665,1.2827227115631104,-0.056867945939302444
1761506903410940700,1.550940673828125,0.209734246134758,2.0166964530944824,0.05079863965511322
1761506903431097900,1.571097900390625,0.2728850245475769,1.843678593635559,0.3693833649158478
1761506903451254500,1.591254638671875,0.18190807104110718,0.674056887626648,0.7871741652488708
1761506903471411700,1.61141162109375,0.18482044339179993,0.1152101457118988,1.3186514377593994
1761506903491567600,1.631567626953125,0.36941471695899963,0.2861650884151459,1.6696569919586182
1761506903511724800,1.651724853515625,0.43636494874954224,0.5312264561653137,1.5140578746795654
1761506903531881500,1.671881591796875,0.33751586079597473,0.5391634106636047,1.2509407997131348
1761506903552038700,1.69203857421875,0.22754590213298798,0.2367759793996811,1.6584413051605225
1761506903572195600,1.712195556640625,0.44875890016555786,-0.092716284096241,2.261385917663574
1761506903592352500,1.7323525390625,0.7033883333206177,-0.7340030670166016,2.0339744091033936
1761506903612508400,1.75250830078125,0.8337516784667969,-0.8675532937049866,1.261627435684204
1761506903632665600,1.77266552734375,0.7872427701950073,-0.9252040982246399,0.39923903346061707
1761506903652822800,1.79282275390625,0.7035055756568909,-0.48584818840026855,0.02893379144370556
1761506903672979200,1.812979248046875,0.702266275882721,0.11013554036617279,0.014481198973953724
1761506903693136100,1.83313623046875,0.9371592998504639,1.2549594640731812,-0.6742960214614868
1761506903713293000,1.85329296875,0.603359043598175,1.7812955379486084,-1.342004656791687
1761506903733449200,1.87344921875,0.34589970111846924,-0.11993414908647537,-1.4446582794189453
1761506903753606100,1.893606201171875,0.18042811751365662,-0.29144829511642456,-1.8531310558319092
1761506903773763000,1.91376318359375,0.01652306690812111,-0.14902427792549133,-1.679793357849121
1761506903793920300,1.933920166015625,0.0017835390754044056,0.5271625518798828,-1.03921639919281
1761506903814077200,1.9540771484375,-0.08632422238588333,1.1187666654586792,-0.47368523478507996
1761506903834234000,1.974234130859375,-0.34021949768066406,1.0039100646972656,-0.07206626981496811
1761506903854390300,1.994390380859375,-0.22397476434707642,0.702360212802887,0.09513945877552032
1761506903874547200,2.014547119140625,-0.07294254004955292,0.5351241230964661,0.10379818081855774
1761506903894704000,2.0347041015625,-0.07127493619918823,0.5112353563308716,0.12734857201576233
1761506903914861300,2.054861328125,0.024390030652284622,0.1345122754573822,0.25117769837379456
1761506903935018200,2.075018310546875,0.11505294591188431,-0.11438378691673279,0.39248141646385193
1761506903955175200,2.095175048828125,0.04278746619820595,-0.2889173626899719,0.3829372227191925
1761506903975332400,2.115332275390625,0.061828646808862686,-0.08894647657871246,0.4962649345397949
1761506903995488300,2.13548828125,0.12667974829673767,-0.5279013514518738,0.7533226609230042
1761506904015645200,2.155645263671875,0.3852558732032776,-0.3086884915828705,1.2275432348251343
1761506904035802000,2.175802001953125,0.6125845909118652,-0.28160253167152405,1.2025703191757202
1761506904055959300,2.195959228515625,0.5012882947921753,-0.7959844470024109,0.7403001189231873
1761506904076116000,2.216115966796875,0.04862978309392929,-0.8914028406143188,0.26161813735961914
1761506904096273200,2.236273193359375,-0.15890422463417053,-0.49923449754714966,-0.2509889006614685
1761506904116429000,2.256428955078125,0.06938223540782928,-0.21065227687358856,-0.14091424643993378
1761506904136586200,2.276586181640625,0.2142578363418579,-0.04880897328257561,0.07597942650318146
1761506904156743200,2.2967431640625,-0.04623870551586151,0.19184577465057373,-0.4424690008163452
1761506904176900000,2.316900146484375,-0.3774503767490387,0.8929542899131775,-0.29874470829963684
1761506904197057300,2.337057373046875,-0.7355576753616333,0.7915370464324951,-0.16229024529457092
1761506904217214200,2.357214111328125,-0.48930439352989197,0.24769721925258636,0.2238226979970932
1761506904237370400,2.377370361328125,0.20390161871910095,-0.3517114222049713,0.23541834950447083
1761506904257527000,2.397527099609375,0.362797349691391,-0.2030988484621048,-0.37633848190307617
1761506904277684200,2.417684326171875,0.407439649105072,0.1927599459886551,-0.8636810779571533
1761506904297841200,2.437841064453125,0.3954051434993744,0.41154730319976807,-0.9778859615325928
1761506904317998000,2.457998046875,0.34253478050231934,0.378326416015625,-0.5410178899765015
1761506904338155300,2.4781552734375,0.20055954158306122,0.3029874563217163,0.10130429267883301
1761506904358312200,2.498312255859375,0.06222941353917122,0.4001202881336212,0.4960935711860657
1761506904378468400,2.51846826171875,0.03186463564634323,0.6808790564537048,0.6043395400047302
1761506904398625000,2.538625,0.1302262842655182,0.7549124360084534,0.675627589225769
1761506904418782200,2.5587822265625,0.28151771426200867,0.6610544323921204,0.7011523842811584
1761506904438939100,2.578939208984375,0.3674798607826233,0.3629346489906311,0.6199260354042053
1761506904459096300,2.599096435546875,0.34864282608032227,0.009279634803533554,0.39684414863586426
1761506904479253200,2.619253173828125,0.2538764774799347,-0.3587512671947479,0.013629881665110588
1761506904499409200,2.6394091796875,0.23149952292442322,-0.815295934677124,-0.20536957681179047
1761506904519566300,2.65956640625,0.1382235735654831,-1.1166044473648071,-0.28490132093429565
1761506904539723300,2.67972314453125,0.3210200071334839,-1.343811273574829,-0.5057807564735413
1761506904559880200,2.699880126953125,0.10633143037557602,-1.9019231796264648,-0.5736276507377625
1761506904580037000,2.720037109375,-0.6669114232063293,-2.3258492946624756,-0.9527820348739624
1761506904600194300,2.7401943359375,-0.8505809903144836,-0.8652961254119873,-1.5236071348190308
1761506904620351000,2.76035107421875,-0.46009907126426697,0.9748829007148743,-1.6279340982437134
1761506904640507100,2.780507080078125,-0.3935813307762146,0.7202199697494507,-1.4259942770004272
1761506904660664000,2.8006640625,-0.41215401887893677,-0.08836358785629272,-0.3834053874015808
1761506904680821000,2.820821044921875,-0.3316677212715149,-0.21765032410621643,0.35780203342437744
1761506904700978000,2.84097802734375,-0.08408669382333755,0.19159524142742157,0.1254715919494629
1761506904721134800,2.861134765625,0.0790465697646141,-0.024068346247076988,0.02822973020374775
1761506904741292000,2.8812919921875,0.046264275908470154,-0.1427592933177948,0.06287284940481186
1761506904761448000,2.901447998046875,-0.25777697563171387,0.25390785932540894,0.1673874855041504
1761506904781605000,2.921605224609375,-0.27817878127098083,0.4246973693370819,0.0761687234044075
1761506904801761800,2.94176171875,-0.37503984570503235,0.04409909248352051,-0.35602590441703796
1761506904821919000,2.9619189453125,-0.48603659868240356,-0.5458951592445374,-0.642186164855957
1761506904842076000,2.982075927734375,-0.5030198693275452,-0.8582951426506042,-0.5282042026519775
1761506904862232800,3.00223291015625,-0.26912403106689453,-0.4524381756782532,-0.31636497378349304
1761506904882389800,3.0223896484375,0.042947202920913696,0.2172917276620865,-0.08954628556966782
1761506904902546000,3.0425458984375,0.3862549364566803,0.6255447268486023,0.040699079632759094
1761506904922702800,3.062702880859375,0.5732738971710205,0.9018400311470032,-0.0699770450592041
1761506904942859800,3.08285986328125,0.5546320676803589,1.202537178993225,-0.5250097513198853
1761506904963017000,3.103016845703125,0.4092353880405426,0.7026952505111694,-0.7956690192222595
1761506904983174000,3.123173828125,0.4009576737880707,0.03745069354772568,-0.5149773359298706
1761506905003331000,3.1433310546875,0.352820485830307,-0.5087521076202393,-0.023379100486636162
1761506905023487700,3.16348779296875,0.3900463581085205,-0.8590853214263916,0.3386038839817047
1761506905043644000,3.183643798828125,0.36596283316612244,-0.9084504842758179,0.17060095071792603
1761506905063800800,3.20380078125,0.29303762316703796,-0.9070637226104736,-0.18580596148967743
1761506905083958000,3.2239580078125,0.47065111994743347,-0.7588433027267456,-0.4290621280670166
1761506905104115000,3.244114990234375,0.6232842206954956,-0.507981538772583,-0.4908376634120941
1761506905124271900,3.26427197265625,0.25978508591651917,-0.6638954281806946,-0.6068456172943115
1761506905144429000,3.284428955078125,-0.07907217741012573,-0.6844414472579956,-0.611516535282135
1761506905164585000,3.3045849609375,-0.11885064840316772,-0.11719093471765518,-0.6498297452926636
1761506905184742000,3.324741943359375,-0.14608842134475708,0.667402446269989,-0.4651103913784027
1761506905204898800,3.34489892578125,-0.07644383609294891,1.2357814311981201,0.15486393868923187
1761506905225056000,3.365055908203125,0.34459879994392395,1.3626279830932617,0.7254716157913208
1761506905245212700,3.385212646484375,0.3393140435218811,0.8788359761238098,0.7416143417358398
1761506905265369900,3.405369873046875,0.025108372792601585,0.2052750438451767,0.16611076891422272
1761506905285527000,3.425527099609375,-0.2141331285238266,-0.0072643933817744255,-0.3331564664840698
1761506905305683000,3.445682861328125,-0.40302199125289917,0.009572090581059456,-0.2159688025712967
1761506905325840000,3.46583984375,-0.557226836681366,-0.06565126776695251,0.09548301994800568
1761506905345996800,3.485996826171875,-0.6245576739311218,-0.2807522714138031,0.4120836853981018
1761506905366154000,3.506154052734375,-0.6472763419151306,-0.7123796939849854,0.9069581627845764
1761506905386311000,3.526310791015625,-0.4998331367969513,-0.8699823021888733,1.2040610313415527
1761506905406467800,3.5464677734375,-0.3957254886627197,-0.49802500009536743,1.0638371706008911
1761506905426624800,3.566624755859375,-0.29353347420692444,-0.08047700673341751,0.4781394302845001
1761506905446781000,3.586781005859375,-0.1799178421497345,-0.04626685753464699,-0.005742485169321299
1761506905466937900,3.606937744140625,-0.11536934971809387,-0.048088233917951584,-0.0027494796086102724
1761506905487094800,3.6270947265625,-0.09015640616416931,-0.06389928609132767,0.2658953368663788
1761506905507252000,3.647251953125,-0.12335781753063202,-0.04313109070062637,0.47129857540130615
1761506905527409000,3.667408935546875,-0.17578567564487457,0.10114076733589172,0.4539644420146942
1761506905547565800,3.68756591796875,-0.20059116184711456,0.4207635223865509,0.061162032186985016
1761506905567722800,3.70772265625,-0.10853737592697144,0.6694145202636719,-0.3619830906391144
1761506905587879000,3.72787890625,0.10220061242580414,0.5901867151260376,-0.5610598921775818
1761506905608035800,3.748035888671875,0.2558385729789734,0.09241481870412827,-0.6058409810066223
1761506905628193000,3.768193115234375,0.014540396630764008,-0.545666515827179,-0.8449783325195312
1761506905648350000,3.788349853515625,-0.12341877073049545,-1.0563194751739502,-1.0199137926101685
1761506905668507400,3.80850732421875,0.035510193556547165,-0.23046742379665375,-0.6583477854728699
1761506905688664300,3.828664306640625,0.1474674642086029,0.5683359503746033,-0.6304585933685303
1761506905708821200,3.8488212890625,0.07962378859519958,0.9585025310516357,-0.9790692925453186
1761506905728977400,3.868977294921875,0.09963252395391464,0.9422432780265808,-0.5239012837409973
1761506905749134300,3.88913427734375,0.02391241118311882,0.2910972833633423,0.2726651728153229
1761506905769291500,3.90929150390625,-0.1647944301366806,-0.39210477471351624,1.1155816316604614
1761506905789448400,3.929448486328125,-0.43089279532432556,-0.7718894481658936,1.1266446113586426
1761506905809605400,3.94960546875,-0.6131449937820435,-0.6690300107002258,0.005783468950539827
1761506905829762600,3.969762451171875,-0.6452553272247314,-0.8992455005645752,-0.7708789110183716
1761506905849919200,3.989919189453125,-0.49725890159606934,-1.0667457580566406,-0.7829824686050415
1761506905870074400,4.010074462890625,-0.3185080289840698,-1.0638794898986816,-0.08675794303417206
1761506905890231300,4.030231201171875,-0.24055787920951843,-0.6415827870368958,0.4637695848941803
1761506905910388500,4.050388427734375,-0.28068920969963074,-0.10536879301071167,0.4292824864387512
1761506905930544400,4.07054443359375,-0.3876122534275055,0.15610834956169128,0.12275254726409912
1761506905950701600,4.09070166015625,-0.43247443437576294,0.023806214332580566,0.03878111019730568
1761506905970858200,4.110858154296875,-0.38045215606689453,-0.280871719121933,0.10538841784000397
1761506905991015400,4.131015380859375,-0.15214495360851288,-0.3594230115413666,0.10794902592897415
1761506906011172400,4.15117236328125,-0.006677465047687292,-0.09853578358888626,0.13098275661468506
1761506906031329300,4.171329345703125,-0.14612196385860443,0.43073388934135437,0.03967191278934479
1761506906051486500,4.191486572265625,-0.07735924422740936,0.27193620800971985,-0.2545738220214844
1761506906071643400,4.211643310546875,-0.12869928777217865,-0.3670363426208496,-0.21764057874679565
1761506906091799600,4.231799560546875,-0.018712179735302925,-0.9815022349357605,-0.15096352994441986
1761506906111956500,4.25195654296875,0.32288670539855957,-0.8372365832328796,-0.4317709803581238
1761506906132113400,4.272113525390625,0.42025142908096313,-0.6269190907478333,-0.9004418253898621
1761506906152270300,4.292270263671875,0.2786718010902405,-0.534791886806488,-0.8162577748298645
1761506906172427500,4.312427490234375,0.3167957365512848,0.4287972152233124,0.26214298605918884
1761506906192584200,4.332584228515625,0.35610195994377136,1.4967080354690552,1.1381357908248901
1761506906212741400,4.352741455078125,0.27468883991241455,2.028447389602661,0.801449716091156
1761506906232897300,4.372897216796875,0.33553630113601685,1.710145354270935,0.21421952545642853
1761506906253054500,4.393054443359375,0.43505650758743286,1.305632472038269,0.24502964317798615
1761506906273211400,4.41321142578125,0.18630795180797577,0.6218224763870239,0.6754550933837891
1761506906293368300,4.433368408203125,-0.38867390155792236,0.2773151695728302,0.891281008720398
1761506906313525500,4.453525390625,-0.8353609442710876,0.12411179393529892,0.5444819331169128
1761506906333682200,4.47368212890625,-1.0384976863861084,-0.10829658806324005,-0.1807854175567627
1761506906353839400,4.49383935546875,-0.9329992532730103,-0.18288078904151917,-1.0152837038040161
1761506906373996500,4.51399658203125,-0.4449089467525482,-0.1659441441297531,-1.1119940280914307
1761506906394152400,4.53415234375,-0.07323584705591202,-0.2838209569454193,-0.5391626358032227
1761506906414309400,4.554309326171875,0.10420460253953934,-0.2454340159893036,-0.16954760253429413
1761506906434466300,4.57446630859375,0.14700499176979065,0.040083110332489014,-0.17827501893043518
1761506906454623500,4.59462353515625,0.1103924810886383,0.042605429887771606,-0.21265751123428345
1761506906474780400,4.614780517578125,0.1418331414461136,-0.011402720585465431,-0.12939909100532532
1761506906494937300,4.634937255859375,0.17137929797172546,0.13332751393318176,0.002597512910142541
1761506906515094300,4.65509423828125,0.1332215517759323,0.21613809466362,-0.032613903284072876
1761506906535250400,4.67525048828125,0.03714946657419205,0.2544538676738739,-0.2443399578332901
1761506906555407400,4.695407470703125,-0.014259870164096355,0.3290136158466339,-0.4456144869327545
1761506906575564300,4.715564208984375,-0.09192603826522827,0.4836074709892273,-0.5314552783966064
1761506906595721500,4.735721435546875,-0.16679276525974274,0.37755751609802246,-0.6031452417373657
1761506906615878400,4.75587841796875,-0.1291542649269104,0.2776494026184082,-0.5282063484191895
1761506906636035300,4.776035400390625,0.09278907626867294,0.22459271550178528,-0.6679826974868774
1761506906656192300,4.796192138671875,0.3066931664943695,0.38243240118026733,-1.2337318658828735
1761506906676348200,4.81634814453125,0.2927980124950409,0.3490369915962219,-2.065204620361328
1761506906696505000,4.836505126953125,0.42948776483535767,0.1802608072757721,-1.8821732997894287
1761506906716662300,4.856662353515625,0.32781779766082764,0.17969322204589844,-0.6031292080879211
1761506906736819000,4.87681884765625,0.22730779647827148,0.37439626455307007,0.09905023127794266
1761506906756976000,4.89697607421875,0.269064337015152,0.9585415124893188,0.2515997290611267
1761506906777133300,4.91713330078125,0.3910445272922516,1.246339201927185,0.5530045032501221
1761506906797290000,4.9372900390625,0.3984099328517914,1.0769007205963135,0.5263353586196899
1761506906817447200,4.957447265625,0.19537542760372162,0.6213439702987671,0.3019266426563263
1761506906837603000,4.97760302734375,-0.0916321650147438,-0.00022920314222574234,0.2275364100933075
1761506906857760300,4.99776025390625,-0.3262856900691986,-0.37229904532432556,-0.20003913342952728
1761506906877917000,5.0179169921875,-0.5741758942604065,-0.6344649791717529,-0.824065089225769
1761506906898074000,5.03807421875,-0.6275001168251038,-0.8052998781204224,-0.8774276375770569
1761506906918231300,5.058231201171875,-0.44300931692123413,-1.1893137693405151,-0.18562063574790955
1761506906938388200,5.07838818359375,-0.09417830407619476,-1.4910390377044678,0.8616534471511841
1761506906958545200,5.098545166015625,0.22501087188720703,-1.4339085817337036,1.6667468547821045
1761506906978702000,5.1187021484375,0.4182012379169464,-1.083428144454956,1.7731332778930664
1761506906998858200,5.138858154296875,0.48877689242362976,-0.5244383811950684,1.2516028881072998
1761506907019015200,5.15901513671875,0.6334173083305359,-0.11019954085350037,0.46362367272377014
1761506907039172000,5.179172119140625,0.7793020009994507,0.3882797062397003,0.09875286370515823
1761506907059329000,5.1993291015625,0.8680436015129089,0.22889010608196259,0.10677169263362885
1761506907079486200,5.219486328125,0.8222173452377319,-0.2615659832954407,0.3163079023361206
1761506907099643100,5.23964306640625,0.8298261761665344,-0.9665117263793945,0.3184950053691864
1761506907119800000,5.259800048828125,1.008469820022583,-1.3189823627471924,-0.09977513551712036
1761506907139956200,5.279956298828125,1.1837013959884644,-1.3094855546951294,-0.6535786390304565
1761506907160113200,5.300113037109375,1.2643522024154663,-0.3919670879840851,-0.6363250017166138
1761506907180270000,5.32027001953125,1.2624359130859375,1.004055380821228,-0.6410465836524963
1761506907200427000,5.340427001953125,1.003708839416504,1.4679594039916992,-1.1600496768951416
1761506907220584200,5.360584228515625,0.5626165270805359,1.4753985404968262,-1.091206431388855
1761506907240741400,5.380741455078125,-0.17405277490615845,1.8269031047821045,-0.9433591961860657
1761506907260898000,5.40089794921875,-0.4617164433002472,1.917762279510498,-1.1088992357254028
1761506907281055200,5.42105517578125,-0.6559301018714905,1.4280694723129272,-1.0517865419387817
1761506907301211100,5.441211181640625,-0.6454564332962036,0.438477098941803,-0.655610203742981
1761506907321368300,5.461368408203125,-0.6586655974388123,-0.019643360748887062,-0.11609812825918198
1761506907341525000,5.48152490234375,-0.680180013179779,-0.18017661571502686,0.431418240070343
1761506907361682200,5.50168212890625,-0.6746453046798706,-0.35460346937179565,0.7412084937095642
1761506907381839000,5.521839111328125,-0.5957295894622803,-0.622072696685791,0.24942776560783386
1761506907401996000,5.54199609375,-0.5281068682670593,-0.9756465554237366,-0.5102939009666443
1761506907422153200,5.5621533203125,-0.6327928900718689,-1.4896893501281738,-0.899799108505249
1761506907442309000,5.58230908203125,-0.7514959573745728,-1.729191780090332,-0.66214519739151
1761506907462466300,5.60246630859375,-0.5985834002494812,-1.3835583925247192,0.021552080288529396
1761506907482623000,5.622623046875,-0.45768657326698303,-0.4259163737297058,0.6829649806022644
1761506907502780200,5.6427802734375,-0.12431070953607559,0.26367872953414917,0.8803028464317322
1761506907522937000,5.66293701171875,0.14663457870483398,0.4029470682144165,0.6960960030555725
1761506907543094300,5.68309423828125,0.3181605339050293,0.3516136705875397,0.41439908742904663
1761506907563251200,5.703251220703125,0.3575883209705353,0.3342236578464508,0.15117664635181427
1761506907583408000,5.723408203125,0.3559948801994324,0.4000304341316223,-0.027147306129336357
1761506907603564000,5.74356396484375,0.23521912097930908,0.380357563495636,-0.04985092580318451
1761506907623721200,5.76372119140625,0.17469422519207,0.46767622232437134,0.11474614590406418
1761506907643878100,5.783878173828125,0.2714269459247589,0.6446573138237,0.1927414983510971
1761506907664035000,5.80403515625,0.5551332235336304,0.7631489634513855,0.2249372899532318
1761506907684192800,5.82419287109375,0.9129893183708191,0.9499642848968506,-0.14565175771713257
1761506907704350000,5.844349853515625,0.4742787778377533,0.08113047480583191,-1.3232313394546509
1761506907724507000,5.8645068359375,-0.12569327652454376,-0.6334342360496521,-2.066671371459961
1761506907744663000,5.8846630859375,-0.43224281072616577,-0.28852009773254395,-0.9742676615715027
1761506907764820000,5.904820068359375,-0.1352871209383011,0.524895191192627,0.543799102306366
1761506907784977000,5.924976806640625,0.3215910494327545,1.1584978103637695,0.8267431855201721
1761506907805133800,5.9451337890625,0.6390107870101929,1.4998968839645386,0.6260175108909607
1761506907825291000,5.965291015625,0.5191330909729004,1.3939262628555298,0.2898619771003723
1761506907845447700,5.98544775390625,-0.21477080881595612,0.6252903938293457,-0.11943554133176804
1761506907865604900,6.00560498046875,-0.8446558713912964,-0.34019285440444946,-0.2011050432920456
1761506907885762000,6.025761962890625,-0.9930911660194397,-0.929661750793457,-0.2859787046909332
1761506907905918000,6.04591796875,-0.7342876195907593,-1.390580415725708,-0.8659153580665588
1761506907926075000,6.066074951171875,-0.4952333867549896,-1.4079656600952148,-1.4547264575958252
1761506907946231800,6.086231689453125,-0.36391299962997437,-1.2470303773880005,-1.5689417123794556
1761506907966389000,6.106388916015625,-0.3202489912509918,-1.2316354513168335,-1.0841277837753296
1761506907986546000,6.1265458984375,-0.3101031184196472,-1.1021658182144165,-0.33409571647644043
1761506908006702800,6.146702880859375,-0.14870932698249817,-0.6594149470329285,0.25909850001335144
1761506908026860000,6.166860107421875,-0.013568844646215439,-0.1894102245569229,0.6503556966781616
1761506908047017000,6.187016845703125,0.049969032406806946,0.307162344455719,0.862913966178894
1761506908067173000,6.207173095703125,-0.09810661524534225,0.7426722049713135,0.8781553506851196
1761506908087329800,6.227329833984375,-0.19798603653907776,0.8695243000984192,0.7942320108413696
1761506908107487000,6.247487060546875,-0.27160412073135376,0.8463819026947021,0.807997465133667
1761506908127644000,6.267643798828125,-0.3023892045021057,0.7417957186698914,0.8607180118560791
1761506908147800800,6.28780078125,-0.35449764132499695,0.6767286062240601,0.858779788017273
1761506908167957800,6.307957763671875,-0.3853073716163635,0.7561674118041992,0.6511289477348328
1761506908188115000,6.328114990234375,-0.6624268889427185,0.9970629811286926,0.5047242641448975
1761506908208270800,6.348270751953125,-0.39646396040916443,0.8894408941268921,0.7481303215026855
1761506908228427800,6.368427734375,-0.21819975972175598,0.3059849143028259,0.357915461063385
1761506908248585000,6.3885849609375,-0.04130855202674866,-0.4682154655456543,-0.4858187139034271
1761506908268742000,6.408741943359375,0.10997191816568375,-0.19848167896270752,-0.5527838468551636
1761506908288899000,6.428899169921875,-0.10976667702198029,0.10361896455287933,-1.3854185342788696
1761506908309055700,6.4490556640625,-0.3526274263858795,-0.1638108342885971,-1.8884129524230957
1761506908329213000,6.469212890625,-0.19183340668678284,-0.42055419087409973,-1.3993580341339111
1761506908349368800,6.489368896484375,0.20175853371620178,-0.4912570118904114,-0.6820763349533081
1761506908369526000,6.509526123046875,0.3433595597743988,-0.5719738006591797,-0.05883866176009178
1761506908389683000,6.529682861328125,0.2734282314777374,-0.7545050978660583,0.3351653218269348
1761506908409839900,6.54983984375,-0.001792833092622459,-0.6515599489212036,0.12032661586999893
1761506908429997000,6.5699970703125,-0.29477423429489136,0.10753031820058823,-0.565764844417572
1761506908450153700,6.59015380859375,-0.46091869473457336,0.5124574899673462,-0.6435542702674866
1761506908470311000,6.610310791015625,-0.3795678913593292,0.6276556849479675,0.25695717334747314
1761506908490467800,6.6304677734375,-0.18132111430168152,0.2589194178581238,1.4875454902648926
1761506908510624000,6.6506240234375,-0.021472731605172157,-0.2692234516143799,1.8573405742645264
1761506908530780700,6.67078076171875,0.11361998319625854,-0.5706756114959717,1.6429730653762817
1761506908550937900,6.690937744140625,0.13728934526443481,-0.5863324403762817,1.20663321018219
1761506908571095000,6.711094970703125,0.11416272073984146,-0.433595210313797,0.6227912902832031
1761506908591252000,6.731251953125,0.10589248687028885,-0.03757800906896591,0.04187769442796707
1761506908611409000,6.751408935546875,0.1777828186750412,0.23554456233978271,-0.3396312892436981
1761506908631565800,6.77156591796875,0.3956122398376465,-0.0341455414891243,-0.6702500581741333
1761506908651722000,6.791721923828125,0.4677962362766266,-0.20005683600902557,-0.6678265929222107
1761506908671879000,6.81187890625,-0.045054011046886444,-0.010041353292763233,-0.379024863243103
1761506908692035800,6.832035888671875,-0.033547431230545044,-0.48534852266311646,-0.38283514976501465
1761506908712192800,6.85219287109375,-0.005656678229570389,-0.7994734644889832,-0.590559184551239
1761506908732350000,6.872349853515625,0.2104114294052124,-1.0477397441864014,-0.5624207258224487
1761506908752507000,6.8925068359375,0.5261233448982239,-1.3121905326843262,-0.5758699178695679
1761506908772663800,6.912663818359375,0.7199305295944214,-1.0724207162857056,-0.3027002513408661
1761506908792821000,6.932821044921875,0.4255584478378296,-0.45439809560775757,0.126011461019516
1761506908812977000,6.952976806640625,0.03816851228475571,0.34346023201942444,-0.3031802773475647
1761506908833133800,6.9731337890625,-0.04945781081914902,0.5401194095611572,-0.3630707263946533
1761506908853290800,6.993290771484375,0.38804498314857483,0.9369233846664429,-0.028263617306947708
1761506908873448000,7.013447998046875,0.7091519832611084,1.3014510869979858,0.7153199911117554
1761506908893605000,7.033605224609375,0.46034666895866394,1.4064128398895264,1.0143495798110962
1761506908913761800,7.05376171875,-0.020878367125988007,0.8828718066215515,0.14293071627616882
1761506908933919000,7.0739189453125,-0.7238011360168457,0.7967193126678467,-0.9550301432609558
1761506908954075000,7.094074951171875,-0.6762852668762207,0.4918231964111328,-1.310876488685608
1761506908974232000,7.114232177734375,0.2884548604488373,-0.15529818832874298,-0.5146145224571228
1761506908994388700,7.134388671875,0.0565294586122036,-0.6390829086303711,0.9546950459480286
1761506909014546000,7.1545458984375,0.1257152259349823,-0.9296574592590332,1.804816722869873
1761506909034702800,7.174702880859375,0.055660706013441086,-0.41182270646095276,1.7932002544403076
1761506909054859800,7.19485986328125,0.08687382936477661,0.1891615092754364,1.166733741760254
1761506909075017000,7.215016845703125,0.36341920495033264,0.3306475579738617,0.4133695960044861
1761506909095172900,7.2351728515625,0.3251558244228363,0.39173340797424316,0.17555145919322968
1761506909115330000,7.255330078125,0.3020414710044861,0.3716166913509369,0.24649235606193542
1761506909135486700,7.27548681640625,0.25388404726982117,0.7377622127532959,0.2710830867290497
1761506909155644000,7.295643798828125,0.23710142076015472,0.8840875029563904,0.07576446235179901
1761506909175800800,7.31580078125,0.2954251170158386,0.5595666766166687,-0.06302608549594879
1761506909195958000,7.3359580078125,0.36666449904441833,0.2018270343542099,-0.09289661794900894
1761506909216115000,7.356114990234375,0.345021516084671,-0.06982264667749405,-0.4363749325275421
1761506909236271900,7.37627197265625,0.2850383520126343,-0.0390627421438694,-1.2133657932281494
1761506909256428000,7.396427978515625,0.2332654744386673,-0.11491077393293381,-1.7414774894714355
1761506909276585000,7.4165849609375,0.19309157133102417,-0.5947503447532654,-1.5650135278701782
1761506909296742000,7.436741943359375,-0.1313188523054123,-0.5561808943748474,-1.1067609786987305
1761506909316898800,7.45689892578125,-0.3430265486240387,0.3798573911190033,-1.242333173751831
1761506909337056000,7.477055908203125,-0.21014724671840668,0.9595685005187988,-1.303520917892456
1761506909357212700,7.497212646484375,0.12877480685710907,0.8301202654838562,-0.5471488237380981
1761506909377369900,7.517369873046875,0.1592918485403061,0.23904603719711304,0.27993062138557434
1761506909397525800,7.53752587890625,-0.07673674821853638,-0.21312971413135529,0.6172184348106384
1761506909417683000,7.557682861328125,-0.24035055935382843,-0.25047072768211365,0.5610737204551697
1761506909437840000,7.57783984375,-0.2981472313404083,-0.21653975546360016,0.4577115774154663
1761506909457996800,7.597996826171875,-0.2111266702413559,-0.5187678337097168,0.5547574758529663
1761506909478154000,7.618154052734375,-0.06313967704772949,-0.773584246635437,0.9215389490127563
1761506909498311000,7.638310791015625,0.027747033163905144,-0.7247090339660645,1.1612166166305542
1761506909518467800,7.6584677734375,0.04922952502965927,-0.4688871502876282,1.0236711502075195
1761506909538623700,7.678623779296875,0.023767756298184395,-0.15642422437667847,0.6492873430252075
1761506909558781000,7.698781005859375,-0.009444049559533596,0.16657668352127075,0.23055601119995117
1761506909578938000,7.718938232421875,0.007456319872289896,0.258262574672699,-0.22926530241966248
1761506909599094800,7.7390947265625,0.045765094459056854,0.22354961931705475,-0.5856276750564575
1761506909619252000,7.759251953125,0.07154159247875214,0.2103549838066101,-0.8528600335121155
1761506909639409000,7.779408935546875,0.021201247349381447,0.23923689126968384,-0.9112944006919861
1761506909659565800,7.79956591796875,-0.11118844151496887,0.19901928305625916,-0.8355482220649719
1761506909679722000,7.819721923828125,-0.12531553208827972,0.04921889677643776,-0.6515929102897644
1761506909699878000,7.8398779296875,-0.0769801139831543,-0.1976163536310196,-0.48065629601478577
1761506909720035000,7.86003515625,-0.07245239615440369,-0.35575035214424133,-0.8830735683441162
1761506909740192000,7.88019189453125,-0.3652454912662506,-0.6610798835754395,-2.0134761333465576
1761506909760349000,7.900348876953125,-0.33051785826683044,-0.6338979601860046,-2.791727304458618
1761506909780506000,7.920506103515625,0.2554793059825897,0.2326108068227768,-1.025844693183899
1761506909800663000,7.9406630859375,0.33712857961654663,0.5386815071105957,-0.17193704843521118
1761506909820820000,7.960820068359375,0.0862395167350769,0.48670095205307007,-0.7159873843193054
1761506909840976000,7.980975830078125,-0.45136889815330505,-0.18509630858898163,-0.2269955277442932
1761506909861133000,8.001133056640626,-0.6816348433494568,-0.28863775730133057,0.5206179618835449
1761506909881290000,8.0212900390625,-0.38045546412467957,0.25112318992614746,0.46708980202674866
1761506909901447200,8.041447265625,0.025023095309734344,0.7686398029327393,0.7647945880889893
1761506909921603800,8.061603759765624,0.0038747689686715603,0.7589808106422424,1.4873408079147339
1761506909941761000,8.081760986328124,-0.24071702361106873,0.42477554082870483,1.5819941759109497
1761506909961918200,8.101918212890626,-0.41988039016723633,-0.021119367331266403,1.2374062538146973
1761506909982074000,8.12207421875,-0.40483126044273376,-0.258968323469162,1.0000760555267334
1761506910002231000,8.14223095703125,-0.2067357748746872,-0.212987020611763,1.074768304824829
1761506910022388000,8.162387939453126,-0.016932092607021332,0.00672161765396595,1.3281203508377075
1761506910042545200,8.182545166015625,-0.02830297127366066,0.05488962680101395,1.5294444561004639
1761506910062701800,8.202701904296875,-0.17176775634288788,-0.10443384200334549,1.3450847864151
1761506910082859000,8.22285888671875,-0.2556544542312622,-0.20654979348182678,0.6825088262557983
1761506910103016000,8.243015869140624,-0.2181195169687271,-0.17429468035697937,0.04736509546637535
1761506910123172000,8.263172119140625,-0.13363291323184967,0.006488087587058544,-0.23164968192577362
1761506910143329000,8.2833291015625,-0.11271543055772781,0.15846970677375793,-0.24076052010059357
1761506910163486000,8.30348583984375,-0.13497832417488098,0.21642407774925232,-0.2631457448005676
1761506910183643100,8.32364306640625,-0.16492050886154175,0.23698554933071136,-0.3044458031654358
1761506910203800000,8.343800048828125,-0.18197079002857208,0.1053028553724289,-0.3367723822593689
1761506910223957000,8.36395703125,-0.23167000710964203,-0.2810705304145813,-0.6862955093383789
1761506910244114000,8.384114013671875,-0.283433198928833,-0.7189821004867554,-1.0989391803741455
1761506910264272000,8.40427197265625,-0.35292401909828186,-0.5554519891738892,-0.8235324621200562
1761506910284429000,8.424428955078126,-0.3734111189842224,-0.042036302387714386,-0.17638815939426422
1761506910304586000,8.4445859375,-0.4941522181034088,-0.01365893054753542,-0.15452927350997925
1761506910324743000,8.464742919921875,-0.6500692963600159,-0.2527082860469818,-0.7963327765464783
1761506910344900000,8.484900146484375,-0.34738606214523315,-0.06933668255805969,-1.3790780305862427
1761506910365056000,8.505055908203126,-0.14669767022132874,-0.3269466459751129,-0.3636023998260498
1761506910385213000,8.525212890625,0.005848766304552555,-0.25541603565216064,0.5047376155853271
1761506910405370000,8.5453701171875,0.19290991127490997,0.3081413209438324,0.9269628524780273
1761506910425527000,8.565527099609374,0.279282808303833,0.6514958143234253,1.1195710897445679
1761506910445684000,8.58568408203125,0.3262377679347992,0.7853518724441528,1.1465128660202026
1761506910465841200,8.605841064453125,0.0775134488940239,0.12464801967144012,1.391471266746521
1761506910485997800,8.625997802734375,0.05748140439391136,-0.14561764895915985,1.7485581636428833
1761506910506154000,8.646154052734374,0.27704665064811707,0.11338400840759277,1.624011516571045
1761506910526311000,8.666310791015626,0.4133111238479614,0.570641040802002,1.3463963270187378
1761506910546468000,8.686468017578125,0.29261118173599243,0.5367118120193481,1.0860397815704346
1761506910566625000,8.706625,0.03570093587040901,0.15390102565288544,0.4977547228336334
1761506910586782000,8.726781982421874,-0.268376886844635,-0.344791054725647,-0.22030045092105865
1761506910606939100,8.746939208984376,-0.36499708890914917,-0.6346805095672607,-0.6949527263641357
1761506910627096000,8.767095947265625,-0.30075162649154663,-0.5293627977371216,-1.0958223342895508
1761506910647252000,8.787251953125,-0.30142250657081604,-0.22403307259082794,-1.3003356456756592
1761506910667409000,8.807408935546874,-0.2802231013774872,-0.1511639952659607,-1.1165332794189453
1761506910687566600,8.827566650390626,-0.07904613018035889,-0.1084936335682869,-0.7175438404083252
1761506910707723500,8.8477236328125,0.0394836887717247,-0.1912054717540741,-0.5724886655807495
1761506910727880400,8.86788037109375,-0.008207593113183975,-0.3256012797355652,-0.6501255035400391
1761506910748037600,8.88803759765625,-0.043634310364723206,-0.4082108438014984,-1.2888301610946655
1761506910768194600,8.908194580078124,-0.09508179128170013,-0.45040610432624817,-2.2517905235290527
1761506910788350500,8.9283505859375,-0.04196181148290634,-0.76676344871521,-2.347212553024292
1761506910808507400,8.94850732421875,-0.16898128390312195,-1.2144663333892822,-1.921875238418579
1761506910828664600,8.96866455078125,-0.21838496625423431,-0.47437584400177,-2.288874626159668
1761506910848821500,8.988821533203126,-0.2407899647951126,0.17474527657032013,-1.797107458114624
1761506910868978400,9.008978515625,-0.40971997380256653,-0.034224849194288254,0.39454683661460876
1761506910889135600,9.029135498046875,-0.17924261093139648,0.1404625028371811,1.0597639083862305
1761506910909292500,9.04929248046875,0.22170518338680267,0.07478038221597672,0.6965600848197937
1761506910929448700,9.06944873046875,0.1086948812007904,-0.578323483467102,0.866385281085968
1761506910949605400,9.08960546875,-0.1885426640510559,-1.2443797588348389,1.6711881160736084
1761506910969762600,9.109762451171875,-0.17750409245491028,-1.3173797130584717,2.1319162845611572
1761506910989919500,9.12991943359375,0.001434307312592864,-0.7246244549751282,1.8335360288619995
1761506911010076400,9.150076416015626,0.1334279179573059,-0.3184688091278076,1.582188606262207
1761506911030233600,9.170233642578125,0.0571787990629673,-0.24012522399425507,1.725955843925476
1761506911050389500,9.190389404296875,0.013882545754313469,-0.12146389484405518,1.7511066198349
1761506911070546700,9.210546630859374,0.10098695755004883,-0.036476876586675644,1.4458346366882324
1761506911090703400,9.230703369140626,0.20771369338035583,0.2103181928396225,0.8699246048927307
1761506911110860500,9.250860595703125,0.1953924298286438,0.48658671975135803,0.1860819309949875
1761506911131017500,9.271017578125,0.07904797047376633,0.6233541965484619,-0.1029030978679657
1761506911151174700,9.291174560546875,-0.04177118092775345,0.62198805809021,-0.0864877924323082
1761506911171331300,9.311331298828126,0.06843430548906326,0.5978689193725586,-0.1285112202167511
1761506911191487500,9.331487548828125,0.248329758644104,0.5028204917907715,-0.28177401423454285
1761506911211644400,9.35164453125,0.35620254278182983,0.4214983284473419,-0.1209520772099495
1761506911231801600,9.371801513671874,0.5209027528762817,0.38212457299232483,-0.01696462370455265
1761506911251958500,9.39195849609375,0.5424547791481018,0.19423940777778625,-0.35819104313850403
1761506911272115500,9.412115478515625,0.2911519706249237,-0.1478816568851471,-1.1060311794281006
1761506911292272600,9.432272705078125,0.16302134096622467,-0.11549807339906693,-1.4544488191604614
1761506911312428500,9.452428466796874,0.19634076952934265,-0.08125084638595581,-1.1054728031158447
1761506911332585500,9.47258544921875,0.03586633503437042,0.05499953776597977,-2.1136538982391357
1761506911352742400,9.492742431640625,-0.039976779371500015,0.4565819501876831,-2.2782623767852783
1761506911372899600,9.512899658203125,-0.19203858077526093,-0.17344790697097778,0.3727744221687317
1761506911393056500,9.533056396484374,-0.20608438551425934,-0.10045456886291504,1.36465322971344
1761506911413213400,9.55321337890625,-0.040652673691511154,0.09957872331142426,1.3509255647659302
1761506911433370600,9.57337060546875,0.07082320004701614,-0.17051590979099274,1.4645543098449707
1761506911453526500,9.593526611328125,-0.040591705590486526,-0.5342006087303162,1.209836721420288
1761506911473683700,9.61368359375,-0.2114972174167633,-0.8043091893196106,0.9556728005409241
1761506911493840400,9.63384033203125,-0.2713647484779358,-1.056354284286499,1.1310091018676758
1761506911513997600,9.65399755859375,-0.1888384073972702,-1.0621204376220703,1.3826963901519775
1761506911534154500,9.674154541015625,0.043960586190223694,-0.5413625836372375,1.4641085863113403
1761506911554311400,9.6943115234375,0.1705160140991211,-0.13770659267902374,1.0334694385528564
1761506911574467300,9.71446728515625,0.13447408378124237,-0.11334620416164398,0.4517587423324585
1761506911594624500,9.73462451171875,0.08203718811273575,-0.08104453235864639,0.07852131873369217
1761506911614781700,9.75478173828125,-0.005528702400624752,-0.06350753456354141,-0.23348507285118103
1761506911634938400,9.7749384765625,-0.041379716247320175,0.16123637557029724,-0.5263723134994507
1761506911655095600,9.795095458984376,-0.05761565640568733,0.4792602062225342,-0.6366633176803589
1761506911675252500,9.81525244140625,-0.11534415185451508,0.6476067304611206,-0.48971229791641235
1761506911695409400,9.835409423828125,-0.10549815744161606,0.5200961828231812,-0.27013352513313293
1761506911715565600,9.855565673828124,-0.02851013094186783,0.26437053084373474,-0.22569964826107025
1761506911735722200,9.87572216796875,0.12767234444618225,0.07049611210823059,-0.41100114583969116
1761506911755879400,9.89587939453125,0.13637961447238922,0.235452339053154,-0.9261525273323059
1761506911776036600,9.91603662109375,0.1263074427843094,0.3134692311286926,-1.0662171840667725
1761506911796193300,9.936193359375,0.08929526060819626,-0.21244902908802032,-0.8655002117156982
1761506911816350500,9.9563505859375,-0.08405505865812302,-0.46833816170692444,-1.1563650369644165
1761506911836506400,9.97650634765625,-0.09678040444850922,0.3354656398296356,-2.0577332973480225
1761506911856663600,9.99666357421875,-0.2726860046386719,0.5613331198692322,-1.3369944095611572
1761506911876820200,10.0168203125,-0.351306676864624,0.30549609661102295,0.23124273121356964
1761506911896977400,10.036977294921876,-0.2759982645511627,0.2129592001438141,0.9540520310401917
1761506911917134300,10.05713427734375,-0.1866133213043213,0.010866529308259487,1.2902331352233887
1761506911937291300,10.077291259765625,-0.07249051332473755,-0.07135739922523499,1.146146535873413
1761506911957447200,10.097447265625,0.08726190030574799,0.12810735404491425,0.7780163288116455
1761506911977604400,10.117604248046876,0.2147948145866394,0.05098860710859299,0.5210559368133545
1761506911997761500,10.137761474609375,0.1654554009437561,-0.24039512872695923,0.4365289807319641
1761506912017918500,10.15791845703125,0.10689432919025421,-0.33036863803863525,0.4633532762527466
1761506912038075400,10.178075439453124,0.17551107704639435,0.10822968930006027,0.42061978578567505
1761506912058232300,10.198232421875,0.20788848400115967,0.48737525939941406,0.14652346074581146
1761506912078388500,10.218388427734375,0.22499603033065796,0.44010257720947266,-0.23654024302959442
1761506912098545400,10.23854541015625,0.24445725977420807,0.20658326148986816,-0.37408822774887085
1761506912118702300,10.258702392578124,0.3284539580345154,0.5670008063316345,0.04585758224129677
1761506912138859300,10.278859375,0.21389885246753693,0.3948759436607361,-0.46365582942962646
1761506912159016400,10.299016357421875,0.12503747642040253,0.3864843547344208,-0.8224263191223145
1761506912179173400,10.31917333984375,0.13500267267227173,0.3044617176055908,-0.6798614859580994
1761506912199329300,10.339329345703124,0.09547960013151169,0.050956591963768005,-0.45727819204330444
