time,seconds_elapsed,z,y,x
1761430186771080000,0.078079833984375,-0.38666298359334467,0.22596067272275686,-0.2871101744839921
1761430186791023000,0.098023193359375,-0.524189878320694,0.3960071505218744,-0.23253416936155408
1761430186810967000,0.117967041015625,-0.3523889580696821,0.49253041920959945,-0.24978468896783887
1761430186830911200,0.1379111328125,0.17118132704794406,0.5431728112101555,-0.27121874133646484
1761430186850855200,0.157855224609375,0.33414836798012254,0.6365408307373523,-0.5625881076348945
1761430186870799000,0.177799072265625,0.05102291575074196,0.6512403872191905,-0.6066960198327899
1761430186890742000,0.197741943359375,-0.1411293031334877,0.49167964759916066,-0.6680292441304773
1761430186910686000,0.21768603515625,-0.13371639652848244,0.4244982087299227,-1.0604947034575045
1761430186930630000,0.2376298828125,-0.14214754026532173,0.3772039581134915,-1.2361067064292728
1761430186950574000,0.257573974609375,-0.43505788892805575,0.34777181966304777,-1.1118027928251772
1761430186970517200,0.277517333984375,-0.6576268733859062,0.1272927932217717,-0.9791220960199832
1761430186990461200,0.297461181640625,-0.22044775452017784,-0.18912322645187377,-0.9983869876559823
1761430187010405000,0.317405029296875,0.31165655018687244,-0.13108575576394796,-1.1017523042581976
1761430187030349000,0.33734912109375,0.5612000508099794,0.10880787298232317,-0.8868101614169775
1761430187050293000,0.35729296875,0.3551473168671131,0.2274865671157837,-0.6800235602416098
1761430187070236000,0.37723583984375,0.4820382512897253,0.9885115633949637,-0.5906693064004183
1761430187090180000,0.39718017578125,0.03475684060454368,1.152133561104536,-0.33844065834656356
1761430187110124000,0.4171240234375,-0.17153788540065287,0.533794449751079,-0.38773368156477805
1761430187130068000,0.43706787109375,0.3096902185499668,0.04057780184298754,-0.18054763274304567
1761430187150011100,0.45701123046875,1.3455635448396206,-0.0608417144536972,0.24605865418203174
1761430187169957400,0.476957275390625,2.1712088973283765,0.2835594597324729,0.4973974772566929
1761430187189901300,0.4969013671875,2.0061282252430916,0.7912105834454297,0.3300926263159141
1761430187209845200,0.51684521484375,1.2950567619174718,0.948605377203226,0.17782304835105314
1761430187229789200,0.5367890625,0.8813993884146213,0.3683016897335648,0.23758520567342636
1761430187249732400,0.556732421875,0.7339654321789741,-0.614579174298048,0.6873649359803646
1761430187269676500,0.576676513671875,0.7955348763853312,-0.865480227009952,1.1115187882520259
1761430187289620500,0.596620361328125,1.1859563357293605,-1.2723285050198434,1.1526091427270322
1761430187309564400,0.616564453125,1.2041221070170403,-1.409015734052658,0.7561067560341209
1761430187329508400,0.63650830078125,0.09395838663578032,-1.4714958633631467,0.9011491409581154
1761430187349451300,0.656451171875,-1.1147136387705803,-0.9522695987991988,0.6957371160715818
1761430187369395200,0.676395263671875,-2.0427584585040806,-0.8713397666931152,0.8042468828901648
1761430187389339400,0.69633935546875,-2.6606407660007476,-0.8056466666854918,0.5291957237839698
1761430187409283300,0.716283447265625,-2.7307839772850273,-0.7630012647882104,0.06399857104942203
1761430187429226500,0.7362265625,-1.7825065168619154,-0.7367116621471941,0.08360343522951007
1761430187449170400,0.75617041015625,-0.6326075829416513,-0.5937346853204071,0.3793034146107733
1761430187469114400,0.7761142578125,-0.05186053561866283,0.001803688421100378,0.6118064216490835
1761430187489058300,0.796058349609375,-0.10043372012972832,0.015877368089556695,0.8210624816779046
1761430187509001200,0.816001220703125,-0.0036743045985698696,0.06143836517259478,0.5952700051289052
1761430187528945400,0.8359453125,0.22748422902822493,0.21642916652858257,0.02871807189695537
1761430187548889300,0.855889404296875,0.20378245092332362,0.13771452625393868,-0.2770672481689602
1761430187568833300,0.875833251953125,0.26277006194293495,0.08598901519179343,-0.13960077839195728
1761430187588777200,0.895777099609375,0.5005424607515335,0.014798048420250415,-0.15952164971865712
1761430187608720400,0.915720458984375,0.6780325325548648,-0.42774888108894227,-0.012456526795402168
1761430187628664300,0.935664306640625,0.4906336456775665,-0.5081028130032121,0.24413418892547487
1761430187648608500,0.9556083984375,0.27105039903223516,-0.5430231736063957,0.34523455627039074
1761430187668552400,0.975552490234375,0.1473340029925108,-0.26410467154756184,-0.06824249222949147
1761430187688495400,0.995495361328125,-0.03696107265055179,-0.5079781637102365,0.03510360821560025
1761430187708439300,1.015439208984375,-0.595709054133296,-0.6360599153526127,0.11722016588822007
1761430187728383200,1.03538330078125,-0.9222212281465529,-0.19910686032772063,-0.04081380255594849
1761430187748327200,1.0553271484375,-0.9464788865685463,0.27389175993800163,0.21083952982798218
1761430187768271400,1.075271240234375,-0.7830278615117072,0.3528288107916713,0.13686521594822407
1761430187788214500,1.095214599609375,-0.2745984469026327,0.2575618257753551,-0.09977511009052395
1761430187808158500,1.115158447265625,0.2230290031850338,0.07748173747882246,0.10344751499295234
1761430187828102400,1.135102294921875,0.28324411017298695,-0.04605740229785442,0.35166254349127407
1761430187848046300,1.15504638671875,0.21618191376924514,-0.058887803906947374,0.26848434793651105
1761430187867989200,1.1749892578125,0.14466332247853278,-0.33378859475702044,0.14275778111815451
1761430187887933200,1.19493310546875,0.03476619295477867,-0.26542043032124635,-0.1666342582028359
1761430187907877400,1.21487744140625,-0.4341740918308496,-0.046494478540867565,-0.08293189264349639
1761430187927821300,1.2348212890625,-0.5374807370483875,0.0959409387551248,0.12270758432336151
1761430187947765200,1.25476513671875,0.07483166136145591,0.08669745572209357,0.1066646504085511
1761430187967708400,1.27470849609375,0.519262358790636,-0.08568623285293579,0.05106251710876822
1761430187987652400,1.29465234375,0.44017128641903397,-0.19716332504451273,0.019463702143728733
1761430188007596300,1.31459619140625,0.3253711872845888,-0.33109102623611686,0.1113897061690688
1761430188027540500,1.33454052734375,0.5783078374773264,-0.4511028686694801,0.255930132920295
1761430188047483400,1.3544833984375,0.7852706720024347,-0.30100510005205866,0.32152474098950623
1761430188067427300,1.37442724609375,0.7943950587004422,-0.057727527955919504,0.3264629280440509
1761430188087371300,1.394371337890625,0.6251970144242048,-0.13731602845564483,0.25334216225370765
1761430188107315200,1.414315185546875,0.6448381189614534,-0.39840895096659656,0.04990545602813363
1761430188127258400,1.43425830078125,0.5175888726204634,-0.6043297290928662,-0.22971827169060705
1761430188147202300,1.454202392578125,-0.08519464994370937,-0.6985114030905067,-0.40688028058335185
1761430188167143700,1.474143798828125,-0.35730303359627724,-0.7021991516925394,0.05334127569571137
1761430188187087600,1.494087646484375,-0.5901753854036331,0.009443900975957513,-0.15905805079489946
1761430188207030500,1.514030517578125,-0.7643143932133912,0.043894452110305425,0.25457360374480487
1761430188226974500,1.533974365234375,-0.978068787574768,0.09700038468018174,0.12971373675838113
1761430188246918400,1.55391845703125,-0.8255681955993175,-0.042838221055641765,-0.07005567913129926
1761430188266862300,1.5738623046875,-0.4957879597008228,-0.3188422969724983,-0.05999386545270681
1761430188286806500,1.593806640625,-0.379894220110774,-0.44870625585652885,-0.21166765121519565
1761430188306749700,1.613749755859375,-0.23514731100201605,-0.4329399469260126,-0.13146116494759916
1761430188326693600,1.633693603515625,0.0032552024036645887,-0.2889422487493604,-0.24253639834001658
1761430188346637600,1.653637451171875,-0.01026654247045517,-0.10977949449345469,-0.049922114901989695
1761430188366581500,1.67358154296875,-0.239772632715106,-0.2990530161362141,0.3555338319666683
1761430188386524400,1.6935244140625,-0.15202712924480438,0.007715615878626704,0.18217063083499668
1761430188406468400,1.71346826171875,-0.036873978888988496,0.10236563804037868,-0.07874868867471814
1761430188426412500,1.73341259765625,0.16452303820252417,0.24394107750616967,-0.226359974238649
1761430188446356500,1.7533564453125,0.1741688184261322,0.2902141683813184,-0.12880385537184774
1761430188466299600,1.773299560546875,0.07324059277772903,0.04030380720719695,0.23678989057727157
1761430188486243600,1.79324365234375,0.10630699607729911,0.04158149899281561,0.005044350842759013
1761430188506187500,1.8131875,0.4858849898457527,0.028156711687147614,0.026918109802901744
1761430188526131500,1.83313134765625,0.8922381778150796,0.02967131750117987,0.18201127555482088
1761430188546074400,1.853074462890625,0.6755284407794475,0.10021434175800531,0.15487974219694733
1761430188566018600,1.8730185546875,0.19286767367720603,0.1764910873612389,0.1666841617591679
1761430188585962500,1.89296240234375,-0.07240706456303596,0.11602931213583796,0.12500716650262475
1761430188605906400,1.912906494140625,-0.019749825608730315,-0.04743599717468023,0.0656874739844352
1761430188625849600,1.932849609375,-0.045676878547668456,-0.25985812001898884,0.013217939621955156
1761430188645793500,1.95279345703125,-0.24836627353727816,-0.11163052918761968,-0.025262889941781757
1761430188665737500,1.972737548828125,-0.21275252384245394,0.016155198650248347,0.03953296896517276
1761430188685681700,1.992681640625,-0.08297463580667971,0.07866754972990601,-0.014062281491607426
1761430188705625600,2.01262548828125,-0.1921113023519516,0.0160360657826066,-0.07344239896014332
1761430188725568500,2.032568603515625,-0.3256938433676958,-0.0813522587692365,-0.13710560057535767
1761430188745512400,2.052512451171875,-0.2645592834472656,-0.18216606425773352,-0.08172258991897105
1761430188765456400,2.072456298828125,-0.14542729258835316,-0.1865993339974433,0.010910174136236309
1761430188785400300,2.092400390625,-0.0989268226981163,-0.20774273285642264,0.07103533781841397
1761430188805343500,2.112343505859375,-0.07908230454325675,-0.18128727212920784,-0.011618906927481293
1761430188825287700,2.13228759765625,-0.017656652721762655,-0.20721410587243735,-0.04356923874393105
1761430188845231600,2.152231689453125,-0.024191022926568984,-0.2441938832234591,-0.08375511865988373
1761430188865175600,2.172175537109375,0.014076456147432326,-0.24857293855790047,-0.05405804566293954
1761430188885118500,2.192118408203125,-0.03392038978040218,-0.11855313152503222,-0.01255874506086111
1761430188905062400,2.2120625,-0.246081961992383,-0.027955928418040274,0.0484558417417109
1761430188925006300,2.23200634765625,-0.11225333726108074,0.055883872850611804,0.05581044228821993
1761430188944950500,2.251950439453125,0.20537293498516082,0.006005597090348601,0.09559504792690277
1761430188964893700,2.271893798828125,0.24919980175197123,-0.0329902327908203,0.0481911994561553
1761430188984837600,2.291837646484375,0.03815232826173305,-0.07223463060557841,0.003796177412569523
1761430189004781600,2.311781494140625,-0.10952478908002376,-0.03707348351646215,-0.06743000680282711
1761430189024725500,2.3317255859375,0.0075087681949138636,-0.06169146315082907,-0.09334975321814418
1761430189044668400,2.35166845703125,0.20368015959262847,-0.11251279191486536,-0.13199760991185902
1761430189064612400,2.3716123046875,0.176403445610404,-0.09454860761389136,-0.21299948434084653
1761430189084556500,2.391556640625,0.06955225965380668,-0.012273059987276793,-0.09462547224238514
1761430189104500500,2.41150048828125,0.1369990714609623,0.1382839236397296,-0.05356470918804407
1761430189124443600,2.431443603515625,0.27153730576634405,0.09603928456306457,-0.021205577374994754
1761430189144387600,2.4513876953125,0.3638806584209204,-0.051744800284504885,-0.10454933875501156
1761430189164331500,2.47133154296875,0.323009718850255,-0.15458507009930908,-0.20608926656097173
1761430189184276200,2.491276123046875,0.21255963161885738,-0.11884879000335931,-0.12174115044400095
1761430189204219100,2.51121923828125,0.1820195319265127,-0.043952100581675764,-0.001647182685136795
1761430189224163000,2.5311630859375,0.1945464205443859,-0.0058341129809617994,0.019972090057283638
1761430189244107000,2.55110693359375,0.244291571444273,-0.01072035065256059,0.033837241541594267
1761430189264051000,2.571051025390625,0.1416746620565653,-0.02905819057151675,0.09051716014072299
1761430189283993900,2.590993896484375,0.1499433087080717,0.019986118582636117,0.08529562610015273
1761430189303938000,2.61093798828125,0.06285539236366748,-0.13573445835262538,0.38919250207096334
1761430189323882000,2.630882080078125,0.007712181812524795,0.0870952228680253,0.0014868775568902491
1761430189343826200,2.650826171875,-0.19398586405217647,0.03370294763743877,0.12125322079658507
1761430189363770000,2.67077001953125,-0.27850363764762875,-0.028583485731855034,0.16794512160569428
1761430189383713000,2.690713134765625,0.002757774275541305,-0.08691898951828479,-0.015438099889457225
1761430189403657000,2.710656982421875,0.25982056448757646,-0.14660269304327667,0.11869096909314393
1761430189423601200,2.73060107421875,0.14467150578498839,-0.09340926485303788,0.15345862335264682
1761430189443544000,2.7505439453125,-0.10414894126057624,0.017260419945791364,0.12801394710317254
1761430189463488000,2.770488037109375,-0.1647533398270607,-0.0187836839903146,0.04030380720719695
1761430189483432000,2.790431884765625,-0.0029576807618141173,-0.08408961131125688,-0.10784911095276474
1761430189503376100,2.810376220703125,0.2273597258657217,-0.15118391988631338,-0.1129943648867309
1761430189523320000,2.830320068359375,0.21941081268787382,-0.22664178685471414,-0.025045009407401085
1761430189543263000,2.850262939453125,0.012238719326257705,-0.17492950060032308,-0.01870981503650546
1761430189563207200,2.870207275390625,-0.07064590010941028,-0.10778368103373795,-0.03451514080315828
1761430189583151000,2.890151123046875,-0.06026186873912811,-0.06048117404561489,-0.034845980192720886
1761430189603095000,2.910094970703125,0.05909925470054149,-0.10122096151728183,-0.04158887858167291
1761430189623038000,2.930037841796875,0.07540916898846625,-0.1271266794072464,-0.022375644067674873
1761430189642982000,2.94998193359375,0.04157821105718613,-0.08799746893737465,-0.04443813053295016
1761430189662926000,2.969926025390625,0.08496084118783473,0.00011982698738574981,-0.029695611692219973
1761430189682870300,2.989870361328125,0.09531564646363258,0.03144731419775635,-0.0838473269879818
1761430189702813200,3.009813232421875,0.07563479443788527,-0.027923341322690247,-0.049370472368597984
1761430189722757000,3.029757080078125,-0.07740589576363563,-0.021318791958503423,-0.12433423567712307
1761430189742701000,3.049701171875,0.01780161415040493,0.02319576481152326,-0.1029679147824645
1761430189762645000,3.06964501953125,0.23054653920829296,0.0041767376953735945,-0.032046850993484255
1761430189782588000,3.089587890625,0.27779285902976986,-0.02240929060894996,-0.13376944188997147
1761430189802531800,3.10953173828125,0.10268296036124229,-0.05854673538431525,-0.0642043227545917
1761430189822476000,3.12947607421875,-0.03985328696072101,0.05227642294317483,-0.039008506699651474
1761430189842420200,3.149420166015625,-0.1420961023390293,0.08678243059180676,0.004131400716304779
1761430189862363100,3.169363037109375,-0.12307692909240722,0.09478950369767844,-0.13878493196442723
1761430189882307000,3.18930712890625,-0.05082710091769695,0.08640994401760399,-0.1439059282399714
1761430189902251000,3.2092509765625,0.10367489400804042,-0.021076434569992124,-0.1667792926967144
1761430189922195000,3.22919482421875,0.16851356914341448,-0.1679060317043215,-0.23164047192484138
1761430189942137900,3.249137939453125,0.22016718401312826,-0.2870187333408743,-0.18920885890871286
1761430189962082000,3.26908203125,0.1492068111270666,-0.2823649161856621,-0.13541545553132892
1761430189982026000,3.28902587890625,0.036007717448472976,-0.1444319979406893,0.0017931670270860194
1761430190001970200,3.30897021484375,0.1444569862514734,-0.09968582437187433,0.16430822640806436
1761430190021913000,3.3289130859375,-0.00746317548751831,0.01102203701287508,-0.019181670331954954
1761430190041857000,3.34885693359375,-0.02340776359438896,-0.16265271428599953,0.054592444800585505
1761430190061801000,3.368801025390625,-0.057063949480652805,-0.15272709420770406,0.10114537553042173
1761430190081745200,3.3887451171875,0.09512859945893287,-0.019128551905229687,0.12200257785916328
1761430190101688000,3.40868798828125,0.25942367412447925,0.02775952906310558,0.20815569757148622
1761430190121632000,3.428632080078125,0.25004735849201676,0.16180581513307987,0.21932065018638966
1761430190141576000,3.448575927734375,0.14515198277831076,0.2594573937309906,0.27076486008912326
1761430190161520000,3.46852001953125,0.12536708585619927,0.2232532403949648,0.2437185938619077
1761430190181462300,3.488462158203125,0.12224047826826571,0.09691245066840201,0.11875833524093031
1761430190201406200,3.50840625,0.16556465620994568,-0.08521996704805641,-0.010534253495931624
1761430190221350100,3.52835009765625,0.21839491364359853,-0.1731440784882754,-0.17662454101517797
1761430190241294000,3.548294189453125,0.08556991299688815,-0.12995737278852612,-0.17081380890980363
1761430190261237200,3.5682373046875,-0.1629489207535982,-0.15963172249700874,-0.11335881428495048
1761430190281181400,3.588181396484375,-0.34741000061333177,-0.14041289849244057,-0.19167817163169382
1761430190301125400,3.60812548828125,-0.28136837942898274,-0.12157383105307817,-0.1017500634253025
1761430190321068300,3.628068359375,-0.1358136610686779,-0.16187763826027513,0.044888358518481254
1761430190341012200,3.64801220703125,0.020764555609226226,-0.14633246126715094,-0.06686228991746902
1761430190360956200,3.6679560546875,0.04066226525604725,-0.19222572251185774,-0.05904153316393494
1761430190380900000,3.687900146484375,-0.0442021298199892,-0.17962744915820658,-0.1606057186283171
1761430190400843300,3.70784326171875,-0.11716858183145522,-0.19076609828807412,-0.17571911660805342
1761430190420787500,3.727787353515625,-0.05524257927238941,-0.21568448564112186,-0.18910291431620715
1761430190440731400,3.7477314453125,0.09815876093506812,-0.19504841524977237,-0.07300327689051628
1761430190460675300,3.76767529296875,0.10316635996401309,-0.20214885837212204,-0.061723027332872146
1761430190480618200,3.7876181640625,0.0015478139638900755,-0.24775687293466178,-0.02670227509513497
1761430190500562200,3.807562255859375,-0.20784955423176288,-0.31120431290734557,0.05907236669361591
1761430190520506000,3.827506103515625,-0.32892858750522136,-0.10391571702659129,-0.015904402226954696
1761430190540450300,3.8474501953125,-0.11770049675107001,-0.03321552944667637,0.016012684907019136
1761430190560393200,3.867393310546875,0.1425795019418001,-0.007129742282070219,0.09503449143469334
1761430190580337400,3.88733740234375,0.13969488641619682,0.08772928298786282,0.14173530620262026
1761430190600281300,3.90728125,0.13081892152130603,0.250031503335759,0.13932634536474942
1761430190620225300,3.927225341796875,0.2523421914309263,0.26436529524512586,0.17718422072455287
1761430190640168200,3.947168212890625,0.4146715189814567,0.157111556369625,0.19802491030991076
1761430190660112100,3.967112060546875,0.44488311737179753,-0.020636581848002968,0.007173983282595872
1761430190680056300,3.987056396484375,0.35355040306448937,-0.021048706312850118,-0.03929039238095283
1761430190700000300,4.007000244140625,0.26952830403149125,0.06656864073313773,0.02858852723315358
1761430190719943200,4.026943115234375,0.22014497218132018,0.09640398968961089,0.07591229620501398
1761430190739887400,4.046887451171875,0.2618108615219593,0.06377630660086869,0.015408581534028052
1761430190759831300,4.066831298828125,0.31971359991431236,-0.0010797215281054377,0.0029226094484329224
1761430190779775200,4.086775146484375,0.34333179138898845,-0.08121149859167635,0.03925385976284742
1761430190799718100,4.10671826171875,0.28643910682201384,-0.1302705669235438,0.005003361245244741
1761430190819662300,4.126662353515625,0.268120775321126,-0.2033982008460909,-0.0724174398265779
1761430190839606300,4.146606201171875,0.06946633493602275,-0.1800854585913941,-0.07053703290745615
1761430190859550200,4.16655029296875,-0.041105917370319364,-0.17592530670464038,-0.047151627275347704
1761430190879493000,4.1864931640625,-0.11419979515373706,-0.13327574008889495,0.06401274570524693
1761430190899437300,4.206437255859375,-0.16160101327598095,-0.06765782420933246,0.07508125220835209
1761430190919381200,4.22638134765625,-0.286384746286273,-0.03771569041013718,0.07413944131359458
1761430190939325400,4.246325439453125,-0.30370939057469365,-0.06627122868914156,-0.001062076273560524
1761430190959268400,4.266268310546875,-0.10794307284653186,-0.0784945677831769,-0.06513093608021736
1761430190979212300,4.28621240234375,0.07803717940449714,-0.1309071112614125,-0.06669979283213615
1761430190999156200,4.30615625,-0.0025958617120981214,-0.07489720087833703,-0.03334025180488825
1761430191019099100,4.32609912109375,-0.1276443831384182,-0.05259332513893023,0.0007110708788037299
1761430191039043000,4.34604296875,-0.1578419530034065,-0.05447389645483344,-0.02469590370878577
1761430191058987300,4.3659873046875,-0.12634674454331396,-0.12477427106220275,-0.0575466184310615
1761430191078931500,4.385931396484375,-0.21184709943532942,-0.12468200793517753,-0.11288944320753216
1761430191098874400,4.405874267578125,-0.10752513969540595,-0.1749708189914003,-0.039164720174670216
1761430191118818300,4.425818359375,0.03593815934360027,-0.12902484117876736,0.07869900431409478
1761430191138762200,4.44576220703125,-0.03917582609057426,-0.08146496189609169,0.031763796268403525
1761430191158706200,4.4657060546875,0.016359598648548124,-0.0965444941388443,0.0551459870301187
1761430191178649900,4.48564990234375,0.10010814143717288,-0.05312178772613406,0.046022330984473225
1761430191198593800,4.50559375,0.1049912373036146,-0.04663103746734559,0.04211275632530451
1761430191218537700,4.525537841796875,0.06904197204411029,-0.04166632773205638,-0.011673778919875621
1761430191238481700,4.545481689453125,0.2041536223232746,-0.08480312987547367,-0.0366208809107542
1761430191258424800,4.5654248046875,0.3036819180458784,-0.07596037313044071,-0.01862710518911481
1761430191278369000,4.585369140625,0.23733108478188514,-0.07265899349749087,-0.011598813987523316
1761430191298313000,4.60531298828125,0.06421265219151974,-0.11842534042689949,-0.016900865918397904
1761430191318257000,4.6252568359375,0.1704389842480421,-0.265164884657599,0.04048530125394463
1761430191338199800,4.64519970703125,0.3721393682003021,-0.2984684211812913,-0.012505845829844474
1761430191358143700,4.665143798828125,0.33869711732566354,-0.24623967330474406,-0.05947919392883777
1761430191378087700,4.685087646484375,-0.179680275323987,-0.10526428209133445,-0.13626082031428813
1761430191398032000,4.705031982421875,-0.44660862599015233,0.03280570653676986,-0.17296894111707806
1761430191417975000,4.72497509765625,-0.15271101985573768,0.0897530073678121,-0.15159852856919168
1761430191437919000,4.7449189453125,0.23965748190283773,0.08701412045583129,-0.07293985626548528
1761430191457863000,4.76486279296875,0.12513093901276587,0.0695030867498368,0.0010113689996302127
1761430191477805800,4.784805908203125,-0.019959084445238112,0.03146612849608064,0.061390580508112906
1761430191497749800,4.804749755859375,-0.055472296375036236,-0.028359686913341283,0.09437938852682709
1761430191517693700,4.824693603515625,0.03921382001340389,-0.02504336543958634,0.08908347407579421
1761430191537638000,4.844637939453125,0.16489596316814423,-0.07221172465402632,0.06033420332297682
1761430191557581000,4.8645810546875,0.0824918207257986,-0.06578530833572149,0.00500146154910326
1761430191577525000,4.88452490234375,0.036762919729948045,-0.11860204870067537,-0.01662117219418287
1761430191597469000,4.904468994140625,0.032844869503378865,-0.16220573770347982,-0.06971461060866713
1761430191617412900,4.924412841796875,-0.021225158858299255,-0.16033786147236823,-0.04710355034992098
1761430191637355800,4.944355712890625,-0.15006196665167806,-0.08121551717966795,-0.0640942865088582
1761430191657299700,4.9642998046875,-0.0005202244818210602,-0.14357234890405088,-0.022005203320086
1761430191677244000,4.984243896484375,0.3075514529556036,-0.20555541541259734,0.02052972394004464
1761430191697187800,5.004187744140625,0.41494156809449195,-0.24557697161231187,-0.034474662662297484
1761430191717131000,5.024131103515625,0.27467560379207134,-0.2539393244292587,0.09980945075154304
1761430191737075000,5.044074951171875,-0.023667291313409805,-0.11872205835115164,0.23684797744005917
1761430191757019000,5.064018798828125,-0.13971885181367397,0.06764207865092903,0.27412410738915205
1761430191776962800,5.083962890625,-0.1437654968559742,0.15066848117746412,0.18008111120983958
1761430191796905700,5.10390576171875,-0.1303372754842043,0.15483188446722923,0.15509820725321768
1761430191816850000,5.123849853515625,0.10638473748862742,-0.003651837038435042,0.15910057476237416
1761430191836793900,5.1437939453125,0.1872919193714857,-0.10280172790270298,0.13631488858908414
1761430191856737000,5.163737060546875,-0.051344987311959266,-0.070110003134422,0.09075009211376309
1761430191876681000,5.183680908203125,-0.2331231116980314,-0.02750029360502958,-0.01694251310303807
1761430191896625000,5.203625,-0.17615794641673563,-0.05283982897959649,-0.047299657443910834
1761430191916568800,5.22356884765625,-0.019534137031435965,-0.08399510142821819,-0.08036708365678787
1761430191936511700,5.24351171875,0.14024550603628158,-0.10233221069481223,-0.08537702077329158
1761430191956456000,5.2634560546875,0.14161971699893475,-0.01546951794102788,-0.06062646426782012
1761430191976400000,5.28339990234375,-0.022054010897874832,0.016581388173066078,-0.11480974374562501
1761430191996343800,5.30334375,-0.004635258585214614,-0.0035379283351823685,-0.2529283207558095
1761430192016287000,5.323286865234375,0.05175590620040893,0.06021846798881888,-0.2356964693173766
1761430192036231000,5.34323095703125,0.17819617424607276,0.08765548709928989,-0.0530883238479495
1761430192056174800,5.3631748046875,0.28953999544680115,0.1091125550173223,0.005177402637898921
1761430192076119000,5.383119140625,0.18281389717459678,0.07078731787409633,-0.05294263176694512
1761430192096062000,5.40306201171875,0.1360784494847059,0.0116385249434039,-0.11047945945635437
1761430192116006000,5.423005859375,0.03982464538812637,-0.05462749784765765,-0.05876432365775108
1761430192135949800,5.44294970703125,-0.007932546564936638,-0.0012063070498406886,-0.027960604593157766
1761430192155892700,5.462892822265625,0.022620997130870818,0.0648565395856276,0.035724370462447405
1761430192175837000,5.4828369140625,-0.002175590473413467,0.029225108103640377,-0.055629532763361925
1761430192195780900,5.50278076171875,-0.0658610039204359,-0.07305897086681798,-0.18218728970885276
1761430192215724800,5.522724853515625,-0.02399170096218586,-0.10146430528648197,-0.13925138043239713
1761430192235667700,5.542667724609375,-0.10850421386063099,-0.0824520367046818,-0.0649583559922874
1761430192255612000,5.56261181640625,-0.21573183191418646,-0.04841713543282822,-0.02472001523673534
1761430192275555800,5.582555908203125,-0.09032675213515758,0.0016102482082322239,-0.06721563339978456
1761430192295499800,5.602499755859375,0.08791559934020042,0.03423911860706284,0.032416707219183445
1761430192315442700,5.622442626953125,0.04287935678362846,0.052893824189156294,0.0885547740265727
1761430192335387000,5.642386962890625,-0.029518355429172513,0.048993510548677295,0.17278233250379563
1761430192355330800,5.662330810546875,0.07340250534117221,-0.061507503152359276,0.19285715228319167
1761430192375275000,5.68227490234375,0.24496903231441974,-0.1389205045102164,0.1271522157073021
1761430192395218000,5.702218017578125,0.3054822454661131,-0.12117823759792372,0.12175196409896015
1761430192415161900,5.722161865234375,0.27659517367780206,-0.024225655848532913,0.2538447049483657
1761430192435105800,5.742105712890625,0.24829203925728796,-0.00904288242701441,0.40650852466151116
1761430192455048700,5.762048583984375,0.20783026500940321,-0.0886678972785361,0.2946148144930601
1761430192474992600,5.78199267578125,0.20412147361934183,-0.1990448096758686,0.11975757541134953
1761430192494936800,5.801936767578125,0.16112521245777606,-0.1301267380060628,0.13022533954232932
1761430192514880800,5.821880859375,0.1302975279957056,-0.13595237541962416,0.11479790717735885
1761430192534824000,5.841823974609375,0.1624170058339834,-0.23981093716518953,-0.0009127309307456016
1761430192554768000,5.861767822265625,0.030049101305007934,-0.28299959736000746,-0.1348496383421123
1761430192574711800,5.8817119140625,-0.034331893190741536,-0.18404133834401146,-0.235196849232167
1761430192594655700,5.90165576171875,-0.12712649674415588,-0.05227426751870662,-0.12748992322906852
1761430192614598700,5.9215986328125,-0.32054829717278477,-0.00488433797545731,-0.1747637155793607
1761430192634542600,5.94154248046875,-0.30192367620170113,-0.0819864467532374,-0.3087902009703219
1761430192654486800,5.96148681640625,-0.17975977030098436,-0.07121020119497552,-0.18284005452916025
1761430192674430000,5.981429931640625,-0.19515432330965995,0.044371458504907785,-0.05879428040459752
1761430192694374000,6.001373779296875,-0.19331775553226468,0.1683560952930711,0.019217180036753417
1761430192714317800,6.02131787109375,-0.22073943094313142,0.2635001480494626,-0.02170329776406288
1761430192734261800,6.04126171875,-0.06622983723282813,0.12276523279473185,-0.08657792099565267
1761430192754204700,6.06120458984375,0.08620937994420527,-0.018559647709783165,-0.20757921285778283
1761430192774148600,6.081148681640625,0.23964345337748527,-0.033556945029180496,-0.17045345116481184
1761430192794092800,6.1010927734375,0.4291121322661638,-0.004158763647265732,-0.06413914856389165
1761430192814036700,6.12103662109375,0.41530864784121513,-0.013897007927298545,-0.050812341739982364
1761430192833980000,6.14097998046875,0.27012568540275095,0.002955781065672636,-0.0675743837095797
1761430192853923800,6.160923828125,0.1775023467630148,-0.013615341441705823,-0.08052227421849965
1761430192873867800,6.18086767578125,0.20301438916027545,-0.028753417204972355,-0.0686113255418837
1761430192893811700,6.200811767578125,0.13268588443696497,0.0006403254638426006,-0.00038812253475189204
1761430192913754600,6.220754638671875,0.0007604629784822463,0.030721502407547084,0.15735051622465251
1761430192933698800,6.24069873046875,-0.05044891525506973,0.0024829393895342946,0.15524506837800145
1761430192953642800,6.260642822265625,-0.055740591922402376,-0.03510656735766679,0.09071808954030275
1761430192973586000,6.2805859375,0.1489192263573408,-0.11854982532309367,0.0830028389878571
1761430192993529900,6.30052978515625,0.11839432423412799,-0.1757863731579855,0.07947393420934677
1761430193013473800,6.320473876953125,-0.03671615797877312,-0.07433657132089137,0.1349813018977642
1761430193033417700,6.340417724609375,-0.02826630954146385,-0.047437714207731185,0.20813918482810256
1761430193053360600,6.360360595703125,0.02864624876976013,-0.01883592563420534,0.1677858393907547
1761430193073304800,6.380304931640625,0.09488485383093356,-0.1013004199616611,0.14128098656386137
1761430193093248800,6.400248779296875,0.005534837773442268,-0.10547942267935723,0.07507540698945522
1761430193113192700,6.420192626953125,0.014873159483075141,-0.18295173474270848,0.04694061487317085
1761430193133136000,6.440135986328125,-0.009430091646313667,-0.1801393442030996,-0.016604659450799225
1761430193153079800,6.460079833984375,-0.144797177991271,-0.09698538804044947,-0.10893369131907821
1761430193173024500,6.4800244140625,-0.11586860514879226,-0.055948846111912275,-0.13604220912754536
1761430193192967400,6.499967529296875,0.11965572247207164,0.0068473999430425465,-0.0773091573908925
1761430193212911400,6.519911376953125,0.3485550789952278,-0.08292506104391068,0.014223463402688503
1761430193232855300,6.539855224609375,0.2189016941219568,-0.24645908820908516,-0.04536562064141035
1761430193252799200,6.55979931640625,0.02576981655061245,-0.20395230933120473,-0.05276610615625977
1761430193272742100,6.5797421875,0.057252750051021574,-0.04193654124187305,-0.02755786901116371
1761430193292686300,6.599686279296875,-0.16607611286342144,-0.036331487776432185,0.06025266251936554
1761430193312630500,6.619630615234375,-0.3042231853157282,0.032401710579451175,-0.03795052207931876
1761430193332574500,6.639574462890625,-0.08850304383933544,-0.0076892027957364915,0.006526771420240402
1761430193352517400,6.659517333984375,0.21966975588500498,0.04185839797174558,0.04119651826322079
1761430193372461300,6.67946142578125,0.44259880582690236,0.05800241764085367,0.07200315993726253
1761430193392405200,6.6994052734375,0.23758768989145754,-0.12679207715801893,-0.04035056895837188
1761430193412348200,6.71934814453125,-0.05585340464711189,-0.2163919215244241,-0.11847776473388075
1761430193432292000,6.7392919921875,-0.060332011365890496,-0.16606814875267445,-0.07292801969721913
1761430193452236300,6.759236328125,-0.033983518144488335,-0.2303613553671166,-0.002422550971806049
1761430193472180500,6.779180419921875,-0.0008265139520168304,-0.19215705945612863,-0.04194178367257118
1761430193492123400,6.799123291015625,-0.1014057800322771,-0.1478177131225355,-0.06676511315330863
1761430193512067300,6.8190673828125,0.0139817636013031,-0.12353908497774972,-0.021069822166115044
1761430193532011300,6.83901123046875,0.1635375342965126,-0.15751661177286877,-0.009203735544532536
1761430193551954200,6.8589541015625,0.07278174309432506,-0.06458102884618565,-0.02408858546540141
1761430193571898000,6.878898193359375,0.0773684863626957,0.11531793072978033,0.045919162870943546
1761430193591842300,6.89884228515625,0.009815291571617125,0.3521954813241958,0.1595402813538909
1761430193611786200,6.9187861328125,-0.056094227665662764,0.35206400043163444,0.017985884676128626
1761430193631729400,6.9387294921875,-0.16119886221587656,0.01176375875826925,-0.3273275820493698
1761430193651673300,6.95867333984375,0.03261749048829078,-0.11987648908328265,-0.43424131184816356
1761430193671617300,6.9786171875,0.3075491148680448,-0.07126107286568731,-0.2963578587681055
1761430193691561200,6.998561279296875,0.411157373380661,-0.016742716214619577,-0.1469270296268165
1761430193711504100,7.018504150390625,0.17007482711076735,0.085595157035999,-0.15227730461359024
1761430193731448300,7.0384482421875,-0.13260580493807791,0.0843257033557631,-0.12132350955381989
1761430193751392300,7.058392333984375,-0.15826865398287773,0.013662669448461383,-0.08572861068993806
1761430193771335400,7.07833544921875,-0.048774260041117665,-0.0611887012604624,-0.09473886948898434
1761430193791279400,7.098279296875,-0.09759878896474837,-0.17817978936685247,-0.07013648928254843
1761430193811223300,7.118223388671875,-0.1211345628529787,-0.24471122162844985,-0.09861161926910281
1761430193831167200,7.138167236328125,0.009696633628010749,-0.3337280967414379,-0.35126842960715293
1761430193851110100,7.158110107421875,0.03491583055853843,-0.48694045371543615,-0.26961130613982676
1761430193871054300,7.178054443359375,-0.3171399500340223,-0.36396793484557416,-0.08417349020242691
1761430193890998300,7.197998291015625,-0.5956722292542457,-0.16072682425733656,0.029002660991996526
1761430193910942200,7.217942138671875,-0.33362405184507365,-0.12207272048592567,0.12555588642656804
1761430193930885400,7.237885498046875,0.22487726140022277,0.08708287484310567,-0.2649718097709119
1761430193950829300,7.257829345703125,0.2673217338979244,-0.14125910352561621,0.20020123143568633
1761430193970773200,7.277773193359375,0.23641689254641532,0.06158166436711326,0.2816192854501307
1761430193990716200,7.297716064453125,0.3015606881082058,0.2022039860928431,0.54469373716712
1761430194010660400,7.317660400390625,0.35646073755323887,0.32626477512344715,0.341713834798336
1761430194030604300,7.337604248046875,0.30983225736916065,0.3659622139353305,0.3406504433505237
1761430194050548200,7.35754833984375,0.1952571991622448,0.25737943667946384,0.38694033923000093
1761430194070491400,7.377491455078125,0.3136076842546463,0.12238439851729199,0.29604630860090253
1761430194090435300,7.397435302734375,0.28840368489325047,-0.06070389515189454,0.2725166721925139
1761430194110379300,7.417379150390625,0.3086345720171928,-0.18963554162187501,0.118382195404917
1761430194130322200,7.437322265625,0.4525274946451187,-0.28097391848498954,-0.04160919071733951
1761430194150266400,7.457266357421875,0.5698445450365544,-0.332160591696389,-0.07366071788594127
1761430194170210300,7.477210205078125,0.3616635668933391,-0.40036410362236197,0.08257599187791347
1761430194190154000,7.497154052734375,-0.1320095926105976,-0.14498399666710757,0.07956453510224819
1761430194210097200,7.51709716796875,-0.3084124536991119,0.1394016847564373,-0.14030337370336055
1761430194230041300,7.537041259765625,-0.13963234257400034,0.05591337750630918,-0.22346681008040903
1761430194249985300,7.5569853515625,-0.028886487266421318,-0.1880034286417067,-0.04582271675914526
1761430194269928200,7.57692822265625,-0.27970833726227284,-0.2091712860885076,-0.04711275656968355
1761430194289872100,7.5968720703125,-0.3962731079816818,-0.22896917035635558,-0.09647884502410888
1761430194309816000,7.616816162109375,-0.09888064546883106,-0.09830600565234199,-0.24303777199089527
1761430194329760000,7.636760009765625,0.02950724951326847,-0.2476226155631244,-0.16470438611879945
1761430194349703200,7.656703125,-0.16043313854038715,-0.3321513854766264,0.14006445038095117
1761430194369647400,7.6766474609375,-0.2490355511009693,-0.03190002640131861,-0.05249868739172816
1761430194389591300,7.69659130859375,-0.33947102430760856,0.06557583943665958,-0.07339476042613387
1761430194409534200,7.7165341796875,-0.2618628839701414,0.00429650075067766,-0.14881079754680393
1761430194429478100,7.73647802734375,0.06727613141536712,-0.0754978199528763,-0.11013137667104601
1761430194449422000,7.756422119140625,0.16683073062300682,-0.039870338560221714,-0.04924538468420505
1761430194469366000,7.776365966796875,0.17511983554065227,0.002338690346945077,0.05346892066337168
1761430194489309200,7.79630908203125,0.19422902515828608,-0.08631452081911266,0.1263623805038631
1761430194509253400,7.81625341796875,0.13865326840877532,-0.058245117522659706,0.03848324071653187
1761430194529197300,7.836197265625,0.11682312939465045,0.08946268265172838,0.07364091720692813
1761430194549140200,7.85614013671875,0.24393910474479197,0.1572728844111785,0.17008096459060906
1761430194569084200,7.876084228515625,0.2116425167739391,0.06851365558737889,0.04088504116125405
1761430194589028000,7.896028076171875,0.10533435165286063,-0.01988237964694854,-0.020510653913393614
1761430194608972000,7.915971923828125,0.12018354573845863,-0.006438877936833887,0.015325798621401189
1761430194628915000,7.9359150390625,0.08733926075696945,0.04656205475120805,0.1258020432073623
1761430194648859100,7.955859130859375,0.1658499028921127,0.09068798666298389,0.1667490436889231
1761430194668803300,7.97580322265625,0.17113631886243819,-0.010150795719854068,0.16313976715058087
1761430194688746200,7.995746337890625,0.2244096438884735,-0.10248292601080611,0.06395531642958521
1761430194708690200,8.015690185546875,0.22449498408436774,-0.14501258344077506,0.04528481049016118
1761430194728634000,8.035634033203126,0.20606383985877036,-0.14977890279344283,0.05153218044713139
1761430194748578000,8.055578125,0.07566928122937679,-0.11374622443364932,0.028928718972951174
1761430194768521000,8.07552099609375,0.037294250127673144,-0.07094097863242495,0.007882277682423592
1761430194788465200,8.095465087890625,0.16814882748425006,-0.031140748449636154,0.042862697909772395
1761430194808409000,8.1154091796875,0.21246786168217657,0.0491081590374466,0.09408084397166967
1761430194828353300,8.135353271484375,0.04336509447395801,-0.049747808647854254,0.010823445700854062
1761430194848296200,8.155296142578125,-0.22263854256272314,-0.16737223535487428,-0.15993351845517753
1761430194868240100,8.175240234375,-0.2182137118577957,-0.1818502945731394,-0.2241808035686612
1761430194888184000,8.19518408203125,-0.11164777258336543,-0.11960477773612364,-0.2012104084782302
1761430194908127000,8.215126953125,-0.05062368730008602,-0.05133258905468974,-0.10461349003240465
1761430194928071200,8.2350712890625,-0.07023030504584311,-0.015385844545834696,-0.040626609420776366
1761430194948015000,8.25501513671875,-0.015341361516714095,-0.06568771144645288,-0.051369244970381256
1761430194967959000,8.274958984375,0.11088438699543475,-0.20035057677850127,-0.08709843773841858
1761430194987902200,8.294902099609375,0.1487362710058689,-0.25379028961369765,-0.09695669166892766
1761430195007846100,8.31484619140625,0.1849123307585716,-0.23940400033211334,-0.11999255321100354
1761430195027790000,8.3347900390625,0.20357260756492612,-0.2090504361878149,-0.025899726540595292
1761430195047733000,8.35473291015625,0.27007892365157604,-0.12457772557679563,0.03469108189195394
1761430195067677200,8.37467724609375,0.4432826964378357,-0.09977911954536102,0.09389920379444956
1761430195087621000,8.39462109375,0.3038426615655422,0.07387506388952024,0.09854016146808862
1761430195107565000,8.41456494140625,0.05674947670400143,0.18638004695726557,0.17871479129269718
1761430195127508200,8.43450830078125,0.041237434795498844,0.18048662327080964,0.061071869947761294
1761430195147452200,8.4544521484375,-0.008943184912204742,-0.07072602527406997,0.26217574931159615
1761430195167396000,8.47439599609375,-0.12378069344758987,-0.1657201390326023,0.001463058289885521
1761430195187338500,8.49433837890625,-0.21996727752685546,-0.09707690224880353,-0.12366846524477004
1761430195207282700,8.51428271484375,-0.29602818842232226,-0.09000367592694238,0.042578766401857135
1761430195227226600,8.5342265625,-0.3162392018020153,0.018527225011214614,0.0033228608123958107
1761430195247170600,8.554170654296875,-0.2642272750139236,-0.023256527688587082,0.07948167912438511
1761430195267113700,8.57411376953125,-0.08937339693307876,-0.09400521231903694,-0.043336599031835794
1761430195287057700,8.5940576171875,0.021508651974797247,-0.1644083623142913,-0.017618366537988185
1761430195307001600,8.614001708984375,-0.11579963156580925,-0.09389493861128576,0.07431435948908328
1761430195326944500,8.633944580078126,-0.1049614266872406,-0.04645746186557226,0.029656740986555814
1761430195346888700,8.653888671875,-0.0009457564175128936,-0.10965446160798892,0.04350844846740365
1761430195366832600,8.67383251953125,0.20421850425302981,-0.11357638429207727,-0.011897796934098004
1761430195386776600,8.693776611328126,0.28616555057764054,-0.0844858166877646,0.019083470654487608
1761430195406719700,8.7137197265625,0.22882044606804847,-0.02468480235945899,0.04926116677522659
1761430195426663700,8.73366357421875,0.0902256298482418,-0.026316271452233194,0.0936800080858171
1761430195446607600,8.753607666015625,0.19605097988843917,0.05373185048245359,0.11818448087573051
1761430195466550500,8.773550537109376,0.2590910811692476,0.09537923148544504,0.13381430394500493
1761430195486494700,8.79349462890625,0.12601941228508948,0.06618221696512773,0.040956133636087175
1761430195506438700,8.813438720703125,-0.006115268009901046,-0.053491730716801245,-0.10396671656146644
1761430195526381800,8.8333818359375,-0.06428337934017181,-0.15217499501658602,-0.22665260050967334
1761430195546325800,8.85332568359375,0.02010170778632164,-0.14718973568361252,-0.224459035988152
1761430195566269700,8.873269775390625,0.052421092110872265,-0.08278963462859391,-0.14498700147494673
1761430195586213600,8.893213623046876,0.0004728782087564468,-0.13072155296090057,-0.1399944538846612
1761430195606156500,8.913156494140624,-0.18304712140858173,-0.19382451774431392,-0.20334259820133446
1761430195626100700,8.933100830078125,-0.165358904504776,-0.17974451793292537,-0.23746610933840273
1761430195646044700,8.953044677734376,-0.00763093326985836,-0.1358903886998538,-0.06824570709988474
1761430195665987800,8.97298779296875,0.14164426691830156,-0.0480968631030526,-0.007147533667087555
1761430195685931800,8.992931884765625,0.0775379977107048,0.0031130265871528533,0.021367928329855203
1761430195705875700,9.012875732421875,-0.02340951716005802,0.05111851247916929,0.0034774668522179124
1761430195725819600,9.032819580078124,0.0012543839752674102,0.0390537066814024,0.01143923951163888
1761430195745762600,9.052762451171875,0.0329611893594265,0.051320693120919164,0.07212254853323101
1761430195765706800,9.072706787109375,0.08781739966273307,0.11432675513480789,0.15861235285401343
1761430195785650700,9.092650634765626,0.10482289499938488,0.10735485202926211,0.23853417696133256
1761430195805593900,9.11259375,0.09802198281288146,0.0795656128144823,0.1321735510006547
1761430195825537800,9.132537841796875,0.15546119534671304,-0.0020552154967561362,0.10720935174450277
1761430195845481700,9.152481689453126,0.2437204935580492,-0.08415308673521503,0.0275963013254106
1761430195865425700,9.17242578125,0.3290314633578062,-0.18125130576668305,-0.05729366658329963
1761430195885368600,9.19236865234375,0.2818278136342764,-0.2327517576349899,-0.14562106159478425
1761430195905312800,9.212312744140625,0.26622458631098267,-0.14498478211839683,-0.07715104421973228
1761430195925256700,9.232256591796874,0.1458610078305006,-0.14224979506339877,-0.10117504001632333
1761430195945199600,9.25219970703125,0.020493921974301336,-0.12916194809451698,-0.10101897267177701
1761430195965143800,9.272143798828125,-0.10087561867833136,-0.12993814749824814,-0.00566547841578722
1761430195985087700,9.292087646484376,-0.09506780918240547,-0.0961215377527289,0.015594605625420808
1761430196005030700,9.31203076171875,-0.0057435120880603785,-0.1189953862666618,0.016096856059134006
1761430196024974600,9.331974609375,-0.06655775401294231,-0.10394413940347731,0.01676306488290429
1761430196044918800,9.351918701171876,-0.15570026479959487,-0.0648293090854073,0.08294657875597476
1761430196064862700,9.37186279296875,-0.21746844644844532,0.03480213191783987,0.1587559991084039
1761430196084805600,9.3918056640625,-0.19025135369896887,0.08715308140194974,0.06484890426844359
1761430196104749600,9.41174951171875,-0.12995499816834927,0.057675715570291504,0.035895196984708305
1761430196124693800,9.43169384765625,-0.03028407910466194,0.04039285546382889,0.138331196847558
1761430196144636700,9.45163671875,0.109776133492589,0.02527314190773759,0.17479571815282105
1761430196164580600,9.47158056640625,0.1866045216292143,-0.055781544987298544,0.14547799986228346
1761430196184525000,9.491525146484374,0.16633680962622166,-0.11622612248272635,-0.043346389773488044
1761430196204469000,9.511468994140625,0.12732874131798744,-0.13371149202450178,-0.05937967907711863
1761430196224412000,9.531411865234375,0.09823767139017581,-0.11714679925790987,-0.0024877251625061033
1761430196244355800,9.55135595703125,0.0272445652782917,-0.10922466448913327,0.0016170798078179358
1761430196264299800,9.5712998046875,-0.0007353285372257233,-0.13271353962887078,-0.02972206130772829
1761430196284243000,9.591242919921875,0.14468319622278214,-0.11486735568437724,-0.005904401738196611
1761430196304187100,9.611187255859376,0.19175123686790466,-0.10996064148033037,-0.06064326927214861
1761430196324131000,9.631131103515624,-0.02084931128323078,-0.05852767449081875,-0.1590704718850553
1761430196344074000,9.651073974609375,-0.13859656978547572,0.15772464676667003,-0.08754092080891132
1761430196364018000,9.671017822265625,0.051285950601100916,0.20193569054547697,0.013859598526358603
1761430196383961900,9.6909619140625,0.1382709910929203,0.08506640218785032,-0.10125088173151016
1761430196403905800,9.71090576171875,0.23134324254393576,-0.10431775848884135,-0.07041589074581861
1761430196423849000,9.730848876953125,0.3787999951332807,-0.16192677463162689,-0.17486366882249713
1761430196443793200,9.750793212890626,0.48575171885490415,-0.3173139914266765,-0.10682590538486837
1761430196463737000,9.770737060546875,0.1753629966467619,-0.3825018818585202,-0.08130480289831757
1761430196483680000,9.790679931640625,-0.14069558789134023,-0.0915375070312526,-0.045468642624467606
1761430196503624000,9.8106240234375,-0.506416321220994,-0.008612037278676871,0.1765142125084996
1761430196523567900,9.83056787109375,-0.49186055712401866,0.07694998695598915,0.025646044040471314
1761430196543511000,9.850510986328125,-0.339317295050621,-0.004513237357453908,0.10349427674412727
1761430196563455000,9.870455078125,0.02122574338018894,-0.08434614335559308,0.03511559091433882
1761430196583399200,9.890399169921874,0.24491700986623763,-0.03695648780697956,0.1287077745862305
1761430196603343000,9.910343017578125,0.3385048096239567,0.013866389026748947,0.040916240017116065
1761430196623286000,9.9302861328125,0.2271457908540964,-0.09881105996449477,-0.08776318525746464
1761430196643230000,9.95022998046875,0.07918225778639316,-0.14580461973445488,-0.11381854075118898
1761430196663174000,9.970173828125,0.08729951326847075,-0.1014948465552181,-0.0027007833912968634
1761430196683116800,9.99011669921875,0.1680897907733917,-0.02072866687851492,0.03701397188156843
1761430196703061000,10.01006103515625,0.18592296910583972,-0.0373043513965793,0.052698740008473396
1761430196723005200,10.030005126953125,0.26674130366146565,-0.13907107369573787,0.022419775470346213
1761430196742948000,10.049947998046875,0.27969372421503064,-0.12196490359674207,0.006367196944355964
1761430196762892000,10.06989208984375,-0.037246903854608535,0.032411158827808685,-0.037738779024779796
1761430196782836000,10.0898359375,-0.2843710683763027,0.0007807910971692763,0.007722995467483997
1761430196802780000,10.10977978515625,-0.06616086364984512,-0.038629211358749305,-0.11469064741060137
1761430196822722800,10.129722900390625,0.18558979162871836,-0.06378680516199674,-0.07400777775794268
