time,seconds_elapsed,z,y,x
1761430186771080000,0.078079833984375,0.05119071528315544,-0.005523585248738527,-0.05783119797706604
1761430186791023000,0.098023193359375,0.09142124652862549,-0.004259896464645863,0.03993840888142586
1761430186810967000,0.117967041015625,0.11222564429044724,0.0030734408646821976,0.08394606411457062
1761430186830911200,0.1379111328125,0.1509941816329956,0.019869845360517502,-0.07026778161525726
1761430186850855200,0.157855224609375,0.14334635436534882,0.13432341814041138,-0.2760995924472809
1761430186870799000,0.177799072265625,0.18025809526443481,0.29521623253822327,-0.38704824447631836
1761430186890742000,0.197741943359375,0.16857928037643433,0.38108766078948975,-0.3770773410797119
1761430186910686000,0.21768603515625,0.1466420441865921,0.46582815051078796,-0.291770339012146
1761430186930630000,0.2376298828125,0.13291224837303162,0.42344754934310913,-0.14472058415412903
1761430186950574000,0.257573974609375,0.1571563482284546,0.3716679513454437,0.04694100096821785
1761430186970517200,0.277517333984375,0.19264370203018188,0.4191291630268097,0.17475757002830505
1761430186990461200,0.297461181640625,0.1895274668931961,0.3506578803062439,0.1539280265569687
1761430187010405000,0.317405029296875,0.10705874115228653,0.12575052678585052,0.018986713141202927
1761430187030349000,0.33734912109375,0.08735238015651703,-0.06663653254508972,-0.0804736465215683
1761430187050293000,0.35729296875,0.03717352822422981,-0.06703345477581024,-0.0956975594162941
1761430187070236000,0.37723583984375,0.05005570501089096,-0.039330244064331055,-0.1095060333609581
1761430187090180000,0.39718017578125,-0.03180079162120819,-0.014740729704499245,0.056538503617048264
1761430187110124000,0.4171240234375,-0.07481551915407181,-0.13882368803024292,0.30251628160476685
1761430187130068000,0.43706787109375,-0.04495959356427193,-0.3366589844226837,0.4884224236011505
1761430187150011100,0.45701123046875,0.04950380325317383,-0.5175472497940063,0.3064644932746887
1761430187169957400,0.476957275390625,0.12444031238555908,-0.7021762728691101,-0.08035431057214737
1761430187189901300,0.4969013671875,0.14112167060375214,-0.7137369513511658,-0.32172995805740356
1761430187209845200,0.51684521484375,0.1234014704823494,-0.7702304124832153,-0.317666232585907
1761430187229789200,0.5367890625,0.05430399626493454,-0.9776974320411682,-0.1770898848772049
1761430187249732400,0.556732421875,-0.06288017332553864,-1.3319183588027954,-0.032111283391714096
1761430187269676500,0.576676513671875,-0.11711764335632324,-1.480506420135498,-0.05358219891786575
1761430187289620500,0.596620361328125,-0.07946396619081497,-1.5082449913024902,-0.42943474650382996
1761430187309564400,0.616564453125,-0.04683738574385643,-1.2086396217346191,-0.9670904278755188
1761430187329508400,0.63650830078125,-0.022118696942925453,-0.867030680179596,-1.3274482488632202
1761430187349451300,0.656451171875,-0.06912191957235336,-0.6905621886253357,-1.403397560119629
1761430187369395200,0.676395263671875,-0.028217602521181107,-0.36398136615753174,-1.236681580543518
1761430187389339400,0.69633935546875,0.0170101597905159,0.0488307885825634,-0.8660779595375061
1761430187409283300,0.716283447265625,0.018507270142436028,0.49046987295150757,-0.37907522916793823
1761430187429226500,0.7362265625,0.004980128258466721,0.5598189234733582,-0.08712385594844818
1761430187449170400,0.75617041015625,-0.009100226685404778,0.291573166847229,0.01256206352263689
1761430187469114400,0.7761142578125,0.13803565502166748,0.18684139847755432,0.04335229471325874
1761430187489058300,0.796058349609375,0.3856910467147827,0.24280166625976562,0.1261824518442154
1761430187509001200,0.816001220703125,0.5495705604553223,0.1589544415473938,0.25351083278656006
1761430187528945400,0.8359453125,0.5726837515830994,0.05669773370027542,0.3949127197265625
1761430187548889300,0.855889404296875,0.42563310265541077,-0.03378044813871384,0.5028958916664124
1761430187568833300,0.875833251953125,0.2616066038608551,-0.23079068958759308,0.5435318946838379
1761430187588777200,0.895777099609375,0.09393569827079773,-0.24284674227237701,0.427007794380188
1761430187608720400,0.915720458984375,0.02004649117588997,-0.1449809968471527,0.21162907779216766
1761430187628664300,0.935664306640625,0.08373953402042389,0.0014210636727511883,0.021772129461169243
1761430187648608500,0.9556083984375,0.08732207864522934,-0.0499560721218586,-0.07433942705392838
1761430187668552400,0.975552490234375,-0.007398154586553574,-0.1264519989490509,-0.1247379332780838
1761430187688495400,0.995495361328125,-0.08243162930011749,-0.13311786949634552,-0.1696680337190628
1761430187708439300,1.015439208984375,-0.17054398357868195,-0.08658506721258163,-0.1350531429052353
1761430187728383200,1.03538330078125,-0.229031041264534,-0.04122481867671013,-0.04343807324767113
1761430187748327200,1.0553271484375,-0.15693017840385437,0.10442537814378738,0.052520133554935455
1761430187768271400,1.075271240234375,-0.07140015810728073,0.28767848014831543,0.14266185462474823
1761430187788214500,1.095214599609375,-0.045475736260414124,0.32425209879875183,0.16916115581989288
1761430187808158500,1.115158447265625,0.0038943509571254253,0.17765559256076813,0.13189007341861725
1761430187828102400,1.135102294921875,0.07095461338758469,-0.013923423364758492,0.07650617510080338
1761430187848046300,1.15504638671875,0.11618070304393768,-0.13235710561275482,0.0391741544008255
1761430187867989200,1.1749892578125,0.11947570741176605,-0.15422682464122772,0.0020728977397084236
1761430187887933200,1.19493310546875,0.07550718635320663,-0.1362113356590271,-0.003580193966627121
1761430187907877400,1.21487744140625,0.09519165754318237,-0.03687785565853119,0.08236064016819
1761430187927821300,1.2348212890625,0.1776954084634781,0.055031657218933105,0.13691049814224243
1761430187947765200,1.25476513671875,0.26231130957603455,0.059967346489429474,0.057161588221788406
1761430187967708400,1.27470849609375,0.296779602766037,0.006100998260080814,-0.04829997196793556
1761430187987652400,1.29465234375,0.31654202938079834,-0.041404832154512405,-0.06358177959918976
1761430188007596300,1.31459619140625,0.3126007616519928,-0.14825434982776642,-0.014432156458497047
1761430188027540500,1.33454052734375,0.3029332756996155,-0.22711583971977234,-0.03501618653535843
1761430188047483400,1.3544833984375,0.30802372097969055,-0.2180732786655426,-0.08413191884756088
1761430188067427300,1.37442724609375,0.3432628810405731,-0.16946767270565033,-0.13065670430660248
1761430188087371300,1.394371337890625,0.35131603479385376,-0.15925389528274536,-0.18273304402828217
1761430188107315200,1.414315185546875,0.2693957984447479,-0.21733085811138153,-0.3282957375049591
1761430188127258400,1.43425830078125,0.03465304523706436,-0.19394512474536896,-0.5112084746360779
1761430188147202300,1.454202392578125,-0.04279334843158722,0.010333368554711342,-0.5849177241325378
1761430188167143700,1.474143798828125,-0.04876391962170601,0.09337149560451508,-0.5933770537376404
1761430188187087600,1.494087646484375,-0.07259529829025269,0.12665584683418274,-0.5346201062202454
1761430188207030500,1.514030517578125,0.02809157408773899,0.10349510610103607,-0.4662639796733856
1761430188226974500,1.533974365234375,0.08146102726459503,0.1651805341243744,-0.3361486792564392
1761430188246918400,1.55391845703125,0.1226399764418602,0.17214477062225342,-0.2004237174987793
1761430188266862300,1.5738623046875,0.1048918291926384,0.0805698111653328,-0.12446030974388123
1761430188286806500,1.593806640625,0.05952420458197594,0.038059234619140625,-0.07741597294807434
1761430188306749700,1.613749755859375,0.004672333598136902,0.010446706786751747,-0.10799799859523773
1761430188326693600,1.633693603515625,-0.05843643099069595,0.046368371695280075,-0.18162956833839417
1761430188346637600,1.653637451171875,-0.05553670600056648,0.11388064920902252,-0.24370186030864716
1761430188366581500,1.67358154296875,0.06969019770622253,0.1986464262008667,-0.2044978141784668
1761430188386524400,1.6935244140625,0.1344381719827652,0.22696128487586975,-0.17452460527420044
1761430188406468400,1.71346826171875,0.11046557873487473,0.2580639123916626,-0.15795978903770447
1761430188426412500,1.73341259765625,0.08036846667528152,0.25614920258522034,-0.1502777338027954
1761430188446356500,1.7533564453125,0.10095887631177902,0.2262663096189499,-0.08485493808984756
1761430188466299600,1.773299560546875,0.14935044944286346,0.1280527263879776,0.022030914202332497
1761430188486243600,1.79324365234375,0.1315120905637741,0.0726528987288475,0.10428538173437119
1761430188506187500,1.8131875,0.13748906552791595,0.04177114740014076,0.024542076513171196
1761430188526131500,1.83313134765625,0.16290295124053955,-0.009618918411433697,-0.14190572500228882
1761430188546074400,1.853074462890625,0.19562432169914246,-0.04439004138112068,-0.20922596752643585
1761430188566018600,1.8730185546875,0.22980144619941711,-0.061443082988262177,-0.1594817340373993
1761430188585962500,1.89296240234375,0.24377846717834473,-0.0655398815870285,-0.07442089170217514
1761430188605906400,1.912906494140625,0.2086450457572937,-0.13937115669250488,-0.031518012285232544
1761430188625849600,1.932849609375,0.14240600168704987,-0.20663656294345856,-0.013453580439090729
1761430188645793500,1.95279345703125,0.11742551624774933,-0.13685618340969086,-0.025894969701766968
1761430188665737500,1.972737548828125,0.12554651498794556,-0.024684440344572067,-0.08623144030570984
1761430188685681700,1.992681640625,0.14920327067375183,0.038758352398872375,-0.12973050773143768
1761430188705625600,2.01262548828125,0.15735186636447906,0.06011916697025299,-0.09515480697154999
1761430188725568500,2.032568603515625,0.14987196028232574,0.04976304993033409,-0.012489000335335732
1761430188745512400,2.052512451171875,0.15446187555789948,0.03131633996963501,0.04031004756689072
1761430188765456400,2.072456298828125,0.16547605395317078,0.030222732573747635,0.06810230761766434
1761430188785400300,2.092400390625,0.18176905810832977,-0.017137518152594566,0.07340934127569199
1761430188805343500,2.112343505859375,0.20220161974430084,0.0016326513141393661,0.08747030049562454
1761430188825287700,2.13228759765625,0.20647598803043365,-0.0146578848361969,0.08670216053724289
1761430188845231600,2.152231689453125,0.20247621834278107,-0.010376568883657455,0.07518123090267181
1761430188865175600,2.172175537109375,0.19495126605033875,-0.003541470505297184,0.05180113762617111
1761430188885118500,2.192118408203125,0.21178372204303741,-0.03297853097319603,0.08218524605035782
1761430188905062400,2.2120625,0.24175964295864105,-0.026406707242131233,0.17446459829807281
1761430188925006300,2.23200634765625,0.2734377682209015,-0.03810722753405571,0.2065931260585785
1761430188944950500,2.251950439453125,0.30121850967407227,-0.12640972435474396,0.17982278764247894
1761430188964893700,2.271893798828125,0.29602640867233276,-0.1915045529603958,0.16691860556602478
1761430188984837600,2.291837646484375,0.2918165624141693,-0.16684013605117798,0.15464025735855103
1761430189004781600,2.311781494140625,0.26628684997558594,-0.07831491529941559,0.1441303938627243
1761430189024725500,2.3317255859375,0.24486872553825378,-0.0036584215704351664,0.110663041472435
1761430189044668400,2.35166845703125,0.20985424518585205,0.01614345610141754,0.083415187895298
1761430189064612400,2.3716123046875,0.16320964694023132,0.011557376943528652,0.08806804567575455
1761430189084556500,2.391556640625,0.14506122469902039,-0.012459864839911461,0.11772315204143524
1761430189104500500,2.41150048828125,0.1463310569524765,-0.00258775451220572,0.10976117849349976
1761430189124443600,2.431443603515625,0.15612387657165527,0.0027951407246291637,0.060377076268196106
1761430189144387600,2.4513876953125,0.1305869221687317,-0.012196497060358524,0.02884690649807453
1761430189164331500,2.47133154296875,0.07848571240901947,-0.05166475474834442,0.035778287798166275
1761430189184276200,2.491276123046875,0.04313970357179642,-0.09215359389781952,0.05759410560131073
1761430189204219100,2.51121923828125,0.02908443845808506,-0.10589778423309326,0.03898310661315918
1761430189224163000,2.5311630859375,0.02860247902572155,-0.05588247999548912,-0.0010962473461404443
1761430189244107000,2.55110693359375,0.03755651041865349,-0.012410158291459084,-0.05962425470352173
1761430189264051000,2.571051025390625,0.048912856727838516,-0.005329784005880356,-0.07487799227237701
1761430189283993900,2.590993896484375,0.046815600246191025,-0.03425544127821922,-0.10519460588693619
1761430189303938000,2.61093798828125,0.10925324261188507,-0.10257448256015778,-0.10293352603912354
1761430189323882000,2.630882080078125,0.09616772085428238,-0.12133308500051498,-0.07871986925601959
1761430189343826200,2.650826171875,0.13453859090805054,-0.06266224384307861,-0.03549899533390999
1761430189363770000,2.67077001953125,0.1549319475889206,0.014489194378256798,0.005849356297403574
1761430189383713000,2.690713134765625,0.14325492084026337,0.03408138453960419,-0.0029742782935500145
1761430189403657000,2.710656982421875,0.1443142145872116,-0.030599435791373253,-0.028712444007396698
1761430189423601200,2.73060107421875,0.15426141023635864,-0.09459970146417618,-0.01626279577612877
1761430189443544000,2.7505439453125,0.1859556883573532,-0.08388156443834305,0.028551898896694183
1761430189463488000,2.770488037109375,0.1959407776594162,-0.04485335573554039,0.07016429305076599
1761430189483432000,2.790431884765625,0.1736040860414505,-0.001802009530365467,0.07065606862306595
1761430189503376100,2.810376220703125,0.14002597332000732,-0.010622834786772728,0.02138339728116989
1761430189523320000,2.830320068359375,0.10439769178628922,-0.012778359465301037,-0.03704547882080078
1761430189543263000,2.850262939453125,0.08095545321702957,0.03925604000687599,-0.047489140182733536
1761430189563207200,2.870207275390625,0.0698150172829628,0.07267505675554276,-0.014515073038637638
1761430189583151000,2.890151123046875,0.06671059131622314,0.08424066752195358,0.030940644443035126
1761430189603095000,2.910094970703125,0.05407636612653732,0.05073791742324829,0.03987596929073334
1761430189623038000,2.930037841796875,0.0460369810461998,0.05077936500310898,0.03300655633211136
1761430189642982000,2.94998193359375,0.04043986648321152,0.05478295683860779,0.014240574091672897
1761430189662926000,2.969926025390625,0.05027976259589195,0.06103476136922836,0.007341195363551378
1761430189682870300,2.989870361328125,0.04337895289063454,0.05108490586280823,0.0064707049168646336
1761430189702813200,3.009813232421875,0.03603870049118996,0.027839981019496918,0.021495742723345757
1761430189722757000,3.029757080078125,0.023526540026068687,0.056177254766225815,0.04798934608697891
1761430189742701000,3.049701171875,0.02131449617445469,0.07019930332899094,0.04412519559264183
1761430189762645000,3.06964501953125,0.03221975266933441,0.07925712317228317,-0.0012067382922396064
1761430189782588000,3.089587890625,0.017814865335822105,0.0596361868083477,-0.03310293331742287
1761430189802531800,3.10953173828125,0.01282970979809761,0.014667889103293419,-0.021162576973438263
1761430189822476000,3.12947607421875,0.023113075643777847,-0.014021676033735275,0.013066919520497322
1761430189842420200,3.149420166015625,0.036032915115356445,-0.0005684331990778446,0.04465616121888161
1761430189862363100,3.169363037109375,0.027854345738887787,0.046482186764478683,0.04355139657855034
1761430189882307000,3.18930712890625,0.039033256471157074,0.12088453024625778,0.01924729160964489
1761430189902251000,3.2092509765625,0.037114761769771576,0.10254205018281937,-0.0010126359993591905
1761430189922195000,3.22919482421875,0.016652632504701614,0.08123331516981125,0.01728745549917221
1761430189942137900,3.249137939453125,-0.015208583325147629,-0.007779361680150032,0.0447637103497982
1761430189962082000,3.26908203125,-0.05383492261171341,-0.0919121727347374,0.0760323777794838
1761430189982026000,3.28902587890625,-0.09357502311468124,-0.1610405296087265,0.074871726334095
1761430190001970200,3.30897021484375,-0.03631674870848656,-0.1556805968284607,0.027903404086828232
1761430190021913000,3.3289130859375,-0.06612959504127502,-0.017473284155130386,-0.0227824654430151
1761430190041857000,3.34885693359375,-0.07912265509366989,0.07733334600925446,-0.06943953037261963
1761430190061801000,3.368801025390625,-0.08081216365098953,0.13136489689350128,-0.06798385083675385
1761430190081745200,3.3887451171875,-0.07651140540838242,0.11510684341192245,-0.07131236046552658
1761430190101688000,3.40868798828125,-0.041233792901039124,0.09729674458503723,-0.07237204909324646
1761430190121632000,3.428632080078125,0.007610035594552755,0.05207265540957451,-0.05850288271903992
1761430190141576000,3.448575927734375,0.0592212975025177,-0.016688033938407898,-0.01767023093998432
1761430190161520000,3.46852001953125,0.12269321084022522,-0.11664631962776184,0.009855668991804123
1761430190181462300,3.488462158203125,0.13861879706382751,-0.17825867235660553,0.017665162682533264
1761430190201406200,3.50840625,0.12520186603069305,-0.18535351753234863,-0.0030575376003980637
1761430190221350100,3.52835009765625,0.0757439136505127,-0.1525600105524063,-0.05164811760187149
1761430190241294000,3.548294189453125,0.053654760122299194,-0.10623600333929062,-0.08959324657917023
1761430190261237200,3.5682373046875,0.02999206632375717,0.016100844368338585,-0.11631443351507187
1761430190281181400,3.588181396484375,0.010222453624010086,0.15104597806930542,-0.09518086910247803
1761430190301125400,3.60812548828125,0.009697713889181614,0.17962957918643951,-0.049144450575113297
1761430190321068300,3.628068359375,0.026476619765162468,0.11360654979944229,-0.00045429758029058576
1761430190341012200,3.64801220703125,0.04325191676616669,0.052525125443935394,0.0028976276516914368
1761430190360956200,3.6679560546875,0.0492209829390049,0.02286854386329651,-0.012913336046040058
1761430190380900000,3.687900146484375,0.042702388018369675,0.04764503613114357,-0.009385095909237862
1761430190400843300,3.70784326171875,0.033197324723005295,0.09957829117774963,0.004888284020125866
1761430190420787500,3.727787353515625,0.01577443815767765,0.10686127841472626,0.00032635906245559454
1761430190440731400,3.7477314453125,0.03123563900589943,0.060280151665210724,-0.017692923545837402
1761430190460675300,3.76767529296875,0.03063911572098732,0.0392470620572567,-0.03905130550265312
1761430190480618200,3.7876181640625,-0.0006050174706615508,0.021770942956209183,-0.041708990931510925
1761430190500562200,3.807562255859375,0.009304025210440159,0.053457994014024734,-0.0031084041111171246
1761430190520506000,3.827506103515625,0.004354128148406744,0.09616242349147797,0.0661100372672081
1761430190540450300,3.8474501953125,0.010733414441347122,0.11600744724273682,0.06697504967451096
1761430190560393200,3.867393310546875,0.009928077459335327,0.08863363415002823,0.013454214669764042
1761430190580337400,3.88733740234375,0.035013794898986816,0.09021853655576706,0.006346477195620537
1761430190600281300,3.90728125,0.07924025505781174,0.047840606421232224,0.036289237439632416
1761430190620225300,3.927225341796875,0.11851468682289124,-0.028348702937364578,0.06676539033651352
1761430190640168200,3.947168212890625,0.14100629091262817,-0.09128891676664352,0.05474613606929779
1761430190660112100,3.967112060546875,0.10615246742963791,-0.11545469611883163,0.01862824521958828
1761430190680056300,3.987056396484375,0.06931629776954651,-0.10565754771232605,-0.0135180139914155
1761430190700000300,4.007000244140625,0.05351903662085533,-0.08418149501085281,-0.02589162066578865
1761430190719943200,4.026943115234375,0.05424828082323074,-0.04076496884226799,-0.04775655269622803
1761430190739887400,4.046887451171875,0.05387391522526741,0.01681346818804741,-0.07590369880199432
1761430190759831300,4.066831298828125,0.05007430911064148,0.015032228082418442,-0.09090154618024826
1761430190779775200,4.086775146484375,0.04130524769425392,-0.029903056100010872,-0.08953752368688583
1761430190799718100,4.10671826171875,0.030561110004782677,-0.04229702800512314,-0.09773451089859009
1761430190819662300,4.126662353515625,0.0015124367782846093,-0.053638897836208344,-0.12078951299190521
1761430190839606300,4.146606201171875,-0.020064128562808037,-0.002885858528316021,-0.1284748911857605
1761430190859550200,4.16655029296875,-0.024511558935046196,0.0004559336230158806,-0.1314014494419098
1761430190879493000,4.1864931640625,-0.007514879107475281,-0.00048617925494909286,-0.12710927426815033
1761430190899437300,4.206437255859375,0.01018008217215538,-0.042259879410266876,-0.09718870371580124
1761430190919381200,4.22638134765625,0.027824638411402702,-0.041686464101076126,-0.02835497446358204
1761430190939325400,4.246325439453125,0.0298484954982996,-0.01489492692053318,0.01879510097205639
1761430190959268400,4.266268310546875,0.02522503212094307,-0.019767388701438904,0.0012376649538055062
1761430190979212300,4.28621240234375,0.019004272297024727,-0.03976575285196304,-0.05752502754330635
1761430190999156200,4.30615625,0.02721956931054592,-0.04455466568470001,-0.07276247441768646
1761430191019099100,4.32609912109375,0.03966374695301056,-0.08586027473211288,-0.037872761487960815
1761430191039043000,4.34604296875,0.04350532963871956,-0.12447135895490646,0.017176823690533638
1761430191058987300,4.3659873046875,0.02780655212700367,-0.1582346111536026,0.04990262910723686
1761430191078931500,4.385931396484375,0.005540225654840469,-0.06997870653867722,0.07252925634384155
1761430191098874400,4.405874267578125,-0.017804943025112152,-0.04192456603050232,0.05855686590075493
1761430191118818300,4.425818359375,-0.01719300076365471,-0.003494430333375931,0.031039586290717125
1761430191138762200,4.44576220703125,-0.01749410480260849,0.06271373480558395,0.016396965831518173
1761430191158706200,4.4657060546875,-0.009088589809834957,0.05710462108254433,0.021386735141277313
1761430191178649900,4.48564990234375,0.0005596786504611373,0.011987361125648022,0.04730304330587387
1761430191198593800,4.50559375,0.007649473380297422,-0.0041874246671795845,0.08073967695236206
1761430191218537700,4.525537841796875,0.0168493390083313,0.0181431844830513,0.08491846174001694
1761430191238481700,4.545481689453125,0.013954774476587772,0.006742476020008326,0.043736305087804794
1761430191258424800,4.5654248046875,0.016088498756289482,-0.009470315650105476,0.003261050907894969
1761430191278369000,4.585369140625,0.024334419518709183,-0.028819020837545395,0.008805932477116585
1761430191298313000,4.60531298828125,0.03335776925086975,-0.04453402757644653,0.0640181452035904
1761430191318257000,4.6252568359375,0.016513079404830933,-0.149256631731987,0.07872959971427917
1761430191338199800,4.64519970703125,0.000622142048086971,-0.25461116433143616,0.06534919887781143
1761430191358143700,4.665143798828125,-0.03224600851535797,-0.31763479113578796,0.039477646350860596
1761430191378087700,4.685087646484375,-0.05812738463282585,-0.13846182823181152,0.043558310717344284
1761430191398032000,4.705031982421875,-0.08367980271577835,0.09488257020711899,0.03158453851938248
1761430191417975000,4.72497509765625,-0.09415626525878906,0.19321700930595398,-0.02467629499733448
1761430191437919000,4.7449189453125,-0.0888221338391304,0.16138750314712524,-0.09830555319786072
1761430191457863000,4.76486279296875,-0.06252114474773407,0.12204452604055405,-0.09520620107650757
1761430191477805800,4.784805908203125,-0.04961812496185303,0.03677169233560562,-0.021930841729044914
1761430191497749800,4.804749755859375,-0.03123057261109352,-0.014040051959455013,0.027250105515122414
1761430191517693700,4.824693603515625,-0.009387250989675522,0.0019451160915195942,0.017358480021357536
1761430191537638000,4.844637939453125,0.0063115982338786125,-0.008720562793314457,-0.03459245339035988
1761430191557581000,4.8645810546875,0.02190501242876053,0.006897622253745794,-0.051751844584941864
1761430191577525000,4.88452490234375,0.032166872173547745,0.027129296213388443,-0.04321114346385002
1761430191597469000,4.904468994140625,0.029570993036031723,0.012602478265762329,-0.02055789716541767
1761430191617412900,4.924412841796875,0.01691468432545662,-0.02614910528063774,0.0220930315554142
1761430191637355800,4.944355712890625,0.021099913865327835,0.03626907616853714,0.05900672823190689
1761430191657299700,4.9642998046875,0.022712385281920433,0.08037920296192169,0.032894544303417206
1761430191677244000,4.984243896484375,0.019373483955860138,0.13736918568611145,-0.06355010718107224
1761430191697187800,5.004187744140625,-0.001815497176721692,0.15130648016929626,-0.13679172098636627
1761430191717131000,5.024131103515625,-0.021025218069553375,0.05784729868173599,-0.12739570438861847
1761430191737075000,5.044074951171875,0.00100813084281981,-0.03477882966399193,-0.054337725043296814
1761430191757019000,5.064018798828125,0.04014592245221138,-0.05337543785572052,-0.00003098126035183668
1761430191776962800,5.083962890625,0.06691550463438034,-0.016176918521523476,0.034412916749715805
1761430191796905700,5.10390576171875,0.0907096192240715,0.04576299712061882,0.043065495789051056
1761430191816850000,5.123849853515625,0.08622954785823822,0.02141759544610977,-0.007965169847011566
1761430191836793900,5.1437939453125,0.086719810962677,-0.02514992281794548,-0.05851692706346512
1761430191856737000,5.163737060546875,0.08460681885480881,-0.008350230753421783,-0.04140344262123108
1761430191876681000,5.183680908203125,0.08310539275407791,0.04854348674416542,0.017727410420775414
1761430191896625000,5.203625,0.07632080465555191,0.07412508875131607,0.056511446833610535
1761430191916568800,5.22356884765625,0.06284242123365402,0.05196373164653778,0.0590924397110939
1761430191936511700,5.24351171875,0.04482359439134598,-0.010457436554133892,0.026257935911417007
1761430191956456000,5.2634560546875,0.046541839838027954,-0.013572042807936668,0.007934235967695713
1761430191976400000,5.28339990234375,0.040359869599342346,0.02707182988524437,0.01435919851064682
1761430191996343800,5.30334375,0.004726631101220846,0.06841114908456802,0.01206662505865097
1761430192016287000,5.323286865234375,-0.014077320694923401,0.09862851351499557,0.009162585251033306
1761430192036231000,5.34323095703125,-0.011377989314496517,0.03394293412566185,-0.0018517044372856617
1761430192056174800,5.3631748046875,0.0036403024569153786,-0.007238378282636404,-0.037625379860401154
1761430192076119000,5.383119140625,0.003476131008937955,0.016219962388277054,-0.06966503709554672
1761430192096062000,5.40306201171875,-0.008590239100158215,0.02265697531402111,-0.08522237837314606
1761430192116006000,5.423005859375,-0.012103433720767498,0.013191872276365757,-0.06838740408420563
1761430192135949800,5.44294970703125,-0.005297605413943529,-0.03516249731183052,-0.035019099712371826
1761430192155892700,5.462892822265625,0.010106626898050308,-0.0791105329990387,-0.02951265126466751
1761430192175837000,5.4828369140625,0.016002986580133438,-0.041942279785871506,-0.05267234146595001
1761430192195780900,5.50278076171875,-0.011051557026803493,-0.01007169485092163,-0.06711065024137497
1761430192215724800,5.522724853515625,-0.037455081939697266,-0.055056653916835785,-0.04580080136656761
1761430192235667700,5.542667724609375,-0.053872473537921906,-0.07661819458007812,-0.0019124059472233057
1761430192255612000,5.56261181640625,-0.0695694088935852,0.005880677606910467,-0.0026876521296799183
1761430192275555800,5.582555908203125,-0.08294409513473511,0.0968792513012886,-0.057803452014923096
1761430192295499800,5.602499755859375,-0.07591904699802399,0.09955137223005295,-0.10007213801145554
1761430192315442700,5.622442626953125,-0.06792159378528595,0.08397239446640015,-0.06787309050559998
1761430192335387000,5.642386962890625,-0.0391724556684494,0.0474570095539093,0.003927743062376976
1761430192355330800,5.662330810546875,-0.03519541397690773,0.030599642544984818,0.021993527188897133
1761430192375275000,5.68227490234375,-0.04965562745928764,0.03694269806146622,-0.010141492821276188
1761430192395218000,5.702218017578125,-0.05097803473472595,0.07500952482223511,-0.043974414467811584
1761430192415161900,5.722161865234375,-0.030368506908416748,0.06187839061021805,-0.047384634613990784
1761430192435105800,5.742105712890625,0.02191777154803276,0.036049384623765945,-0.03526712581515312
1761430192455048700,5.762048583984375,0.03299649432301521,0.02557353302836418,-0.031696707010269165
1761430192474992600,5.78199267578125,0.030840521678328514,0.01820388250052929,-0.03363340348005295
1761430192494936800,5.801936767578125,0.051010213792324066,0.023741640150547028,-0.02082003839313984
1761430192514880800,5.821880859375,0.08668933063745499,0.004386238753795624,-0.021006636321544647
1761430192534824000,5.841823974609375,0.09069475531578064,-0.06233283132314682,-0.03188555687665939
1761430192554768000,5.861767822265625,0.0743950754404068,-0.1035889983177185,-0.02431567944586277
1761430192574711800,5.8817119140625,0.06150713935494423,-0.16013997793197632,-0.0006279819062910974
1761430192594655700,5.90165576171875,0.05639825016260147,-0.1676260083913803,0.014517824165523052
1761430192614598700,5.9215986328125,0.049931563436985016,-0.04774622246623039,0.016220195218920708
1761430192634542600,5.94154248046875,0.008406974375247955,0.017602143809199333,-0.0017618815181776881
1761430192654486800,5.96148681640625,-0.010970259085297585,-0.010961134918034077,0.007264482323080301
1761430192674430000,5.981429931640625,-0.00992562249302864,-0.06321914494037628,0.044454850256443024
1761430192694374000,6.001373779296875,0.0055449469946324825,-0.08067270368337631,0.06967765092849731
1761430192714317800,6.02131787109375,0.032176848500967026,-0.021758772432804108,0.08613641560077667
1761430192734261800,6.04126171875,0.023392967879772186,-0.009458678774535656,0.094824880361557
1761430192754204700,6.06120458984375,-0.016223369166254997,0.016602275893092155,0.09172920882701874
1761430192774148600,6.081148681640625,-0.040410079061985016,0.02503024786710739,0.06618831306695938
1761430192794092800,6.1010927734375,-0.05395881086587906,-0.0007091290317475796,0.013925505802035332
1761430192814036700,6.12103662109375,-0.0710294097661972,-0.031641989946365356,-0.01547214388847351
1761430192833980000,6.14097998046875,-0.0776543840765953,-0.017071131616830826,-0.03021892160177231
1761430192853923800,6.160923828125,-0.0875832810997963,0.03008880838751793,-0.04661145433783531
1761430192873867800,6.18086767578125,-0.0961066484451294,0.04450111463665962,-0.0719001367688179
1761430192893811700,6.200811767578125,-0.08067668229341507,0.02746850997209549,-0.06454026699066162
1761430192913754600,6.220754638671875,-0.05557600408792496,-0.014046885073184967,-0.022354161366820335
1761430192933698800,6.24069873046875,-0.03733550384640694,-0.028504405170679092,-0.0006698053330183029
1761430192953642800,6.260642822265625,-0.02767396904528141,0.014437603764235973,-0.001309088198468089
1761430192973586000,6.2805859375,-0.032027341425418854,-0.0021306253038346767,-0.037076883018016815
1761430192993529900,6.30052978515625,-0.03917158767580986,-0.011447221040725708,-0.05459727346897125
1761430193013473800,6.320473876953125,-0.022181754931807518,0.014043392613530159,-0.03719279542565346
1761430193033417700,6.340417724609375,0.0076692053116858006,0.02028919756412506,-0.02092614397406578
1761430193053360600,6.360360595703125,0.029395006597042084,0.021296115592122078,-0.021008355543017387
1761430193073304800,6.380304931640625,0.035123128443956375,0.01016935147345066,-0.03159670531749725
1761430193093248800,6.400248779296875,0.04132066294550896,0.0254293791949749,-0.014557559043169022
1761430193113192700,6.420192626953125,0.028568554669618607,0.014061827212572098,-0.012061886489391327
1761430193133136000,6.440135986328125,0.025374384596943855,0.006513403728604317,-0.005807631183415651
1761430193153079800,6.460079833984375,0.023087624460458755,0.048440176993608475,0.01920989342033863
1761430193173024500,6.4800244140625,0.0305144302546978,0.06673026829957962,0.06131027638912201
1761430193192967400,6.499967529296875,0.06157049536705017,0.025821341201663017,0.07084683328866959
1761430193212911400,6.519911376953125,0.08572505414485931,-0.03396293520927429,0.0318751335144043
1761430193232855300,6.539855224609375,0.05516542121767998,-0.06248791888356209,-0.024929970502853394
1761430193252799200,6.55979931640625,0.053663596510887146,-0.0588512048125267,-0.0062106903642416
1761430193272742100,6.5797421875,0.045639317482709885,-0.12166678160429001,0.03728662058711052
1761430193292686300,6.599686279296875,0.04175979644060135,-0.07859664410352707,0.048130955547094345
1761430193312630500,6.619630615234375,0.030803285539150238,0.03508596494793892,0.05697033181786537
1761430193332574500,6.639574462890625,0.01788654364645481,0.032517459243535995,0.07639458775520325
1761430193352517400,6.659517333984375,0.03254634886980057,0.02362295798957348,0.05525747686624527
1761430193372461300,6.67946142578125,0.04195190966129303,-0.022767944261431694,-0.00919683650135994
1761430193392405200,6.6994052734375,0.02564273402094841,-0.015063110738992691,-0.047097522765398026
1761430193412348200,6.71934814453125,-0.0017790604615584016,0.004020017571747303,-0.020353959873318672
1761430193432292000,6.7392919921875,0.005904788617044687,0.027150729671120644,0.024889206513762474
1761430193452236300,6.759236328125,0.006296297535300255,0.046090640127658844,0.03127902001142502
1761430193472180500,6.779180419921875,-0.003693825099617243,0.03654632717370987,0.033927373588085175
1761430193492123400,6.799123291015625,-0.019035303965210915,0.04519246891140938,0.05981128290295601
1761430193512067300,6.8190673828125,-0.04082213714718819,0.03135566785931587,0.06637552380561829
1761430193532011300,6.83901123046875,-0.06798812747001648,0.001118829008191824,0.056375160813331604
1761430193551954200,6.8589541015625,-0.08994607627391815,0.055566124618053436,0.034517042338848114
1761430193571898000,6.878898193359375,-0.06655275076627731,0.024763073772192,0.021116161718964577
1761430193591842300,6.89884228515625,-0.010898740962147713,-0.0048490483313798904,0.0169337447732687
1761430193611786200,6.9187861328125,0.008320469409227371,-0.004041085951030254,0.04061528667807579
1761430193631729400,6.9387294921875,-0.030309239402413368,0.0650588721036911,0.07745302468538284
1761430193651673300,6.95867333984375,-0.07409906387329102,0.08501393347978592,0.0769752562046051
1761430193671617300,6.9786171875,-0.0762687623500824,0.060946375131607056,0.0059318821877241135
1761430193691561200,6.998561279296875,-0.057662732899188995,0.014177408069372177,-0.08951620012521744
1761430193711504100,7.018504150390625,-0.04067905619740486,0.011509093455970287,-0.11797931790351868
1761430193731448300,7.0384482421875,-0.02201358787715435,0.022552836686372757,-0.05060984566807747
1761430193751392300,7.058392333984375,-0.03155849874019623,0.0034093493595719337,0.014238080009818077
1761430193771335400,7.07833544921875,-0.06953438371419907,-0.05897624045610428,-0.003238989505916834
1761430193791279400,7.098279296875,-0.09075430780649185,-0.05543115362524986,-0.08098513633012772
1761430193811223300,7.118223388671875,-0.10736739635467529,0.008129961788654327,-0.18363125622272491
1761430193831167200,7.138167236328125,-0.16590352356433868,0.06714121252298355,-0.2872698903083801
1761430193851110100,7.158110107421875,-0.23034031689167023,-0.010797769762575626,-0.3083513081073761
1761430193871054300,7.178054443359375,-0.2359042763710022,0.028367113322019577,-0.16185007989406586
1761430193890998300,7.197998291015625,-0.17379248142242432,0.11401058733463287,0.03062245063483715
1761430193910942200,7.217942138671875,-0.18737785518169403,0.14293937385082245,0.11220919340848923
1761430193930885400,7.237885498046875,-0.2638305723667145,0.11025887727737427,0.06046292185783386
1761430193950829300,7.257829345703125,-0.22221748530864716,0.13023993372917175,0.002435885136947036
1761430193970773200,7.277773193359375,-0.16451863944530487,0.1202731803059578,0.023770589381456375
1761430193990716200,7.297716064453125,-0.07390668243169785,-0.02557959221303463,0.04957804083824158
1761430194010660400,7.317660400390625,-0.03410238027572632,-0.16443558037281036,0.07377573102712631
1761430194030604300,7.337604248046875,0.036208875477313995,-0.22379070520401,0.06523113697767258
1761430194050548200,7.35754833984375,0.12178496271371841,-0.1632733941078186,0.04193558916449547
1761430194070491400,7.377491455078125,0.1553110033273697,-0.18837496638298035,0.01611489988863468
1761430194090435300,7.397435302734375,0.1677117943763733,-0.22358988225460052,0.052514445036649704
1761430194110379300,7.417379150390625,0.1298861801624298,-0.3096037805080414,0.04475344717502594
1761430194130322200,7.437322265625,0.07499805837869644,-0.3073745667934418,-0.04792027547955513
1761430194150266400,7.457266357421875,0.04344381019473076,-0.20039384067058563,-0.16597400605678558
1761430194170210300,7.477210205078125,0.04913181811571121,-0.2056884467601776,-0.24671156704425812
1761430194190154000,7.497154052734375,0.06209899112582207,-0.14932002127170563,-0.2203277200460434
1761430194210097200,7.51709716796875,0.02522365190088749,-0.04795760661363602,-0.18393459916114807
1761430194230041300,7.537041259765625,0.012639269232749939,0.0844234973192215,-0.20726248621940613
1761430194249985300,7.5569853515625,0.00637369928881526,0.1337607204914093,-0.23152223229408264
1761430194269928200,7.57692822265625,-0.01308447029441595,0.16292522847652435,-0.16737286746501923
1761430194289872100,7.5968720703125,-0.03139495477080345,0.1819295734167099,-0.0642019659280777
1761430194309816000,7.616816162109375,-0.07908616960048676,0.18718017637729645,-0.062156688421964645
1761430194329760000,7.636760009765625,-0.10722116380929947,0.2361743301153183,-0.09897026419639587
1761430194349703200,7.656703125,-0.05317564681172371,0.24395033717155457,-0.08655598759651184
1761430194369647400,7.6766474609375,-0.0531587228178978,0.18160882592201233,-0.0251690112054348
1761430194389591300,7.69659130859375,-0.06812955439090729,0.1884859949350357,0.02953394502401352
1761430194409534200,7.7165341796875,-0.0649154931306839,0.30687007308006287,0.02447681501507759
1761430194429478100,7.73647802734375,-0.05244293808937073,0.32851535081863403,0.0019195184577256441
1761430194449422000,7.756422119140625,-0.04005769267678261,0.20981262624263763,0.022806357592344284
1761430194469366000,7.776365966796875,-0.023436415940523148,0.08919241279363632,0.05487748607993126
1761430194489309200,7.79630908203125,0.007372045423835516,0.011233130469918251,0.0696965828537941
1761430194509253400,7.81625341796875,0.02426069974899292,-0.003642546944320202,0.07447989284992218
1761430194529197300,7.836197265625,0.030697006732225418,-0.048685964196920395,0.07622896134853363
1761430194549140200,7.85614013671875,0.06462284177541733,-0.07556433230638504,0.04086057096719742
1761430194569084200,7.876084228515625,0.05930124223232269,-0.05036930367350578,0.004707471467554569
1761430194589028000,7.896028076171875,0.04694940894842148,0.006612102501094341,0.011557672172784805
1761430194608972000,7.915971923828125,0.034996796399354935,-0.03664432093501091,0.04255549609661102
1761430194628915000,7.9359150390625,0.03950381278991699,-0.06189655140042305,0.06709824502468109
1761430194648859100,7.955859130859375,0.05767014995217323,-0.066762275993824,0.053468864411115646
1761430194668803300,7.97580322265625,0.07304979115724564,-0.03579173609614372,0.007080256473273039
1761430194688746200,7.995746337890625,0.06499575823545456,0.0242861770093441,-0.0217488594353199
1761430194708690200,8.015690185546875,0.055889856070280075,0.0006007798947393894,-0.030410882085561752
1761430194728634000,8.035634033203126,0.03802065551280975,-0.06805013120174408,-0.019852284342050552
1761430194748578000,8.055578125,0.03568091616034508,-0.09275185316801071,0.010883331298828125
1761430194768521000,8.07552099609375,0.036800168454647064,-0.08931326121091843,0.020657775923609734
1761430194788465200,8.095465087890625,0.0471886545419693,-0.09116895496845245,0.0018790009198710322
1761430194808409000,8.1154091796875,0.07632959634065628,-0.12947838008403778,-0.010690414346754551
1761430194828353300,8.135353271484375,0.06766439229249954,-0.14412720501422882,-0.0182043369859457
1761430194848296200,8.155296142578125,0.030626842752099037,-0.0689023956656456,-0.002263931091874838
1761430194868240100,8.175240234375,0.0015993285924196243,-0.005518454592674971,-0.0009310496388934553
1761430194888184000,8.19518408203125,-0.011061991564929485,0.04710014536976814,-0.020091839134693146
1761430194908127000,8.215126953125,-0.00595135660842061,0.07468515634536743,-0.027620622888207436
1761430194928071200,8.2350712890625,0.0163300521671772,0.05043662711977959,0.0052605182863771915
1761430194948015000,8.25501513671875,0.015462679788470268,-0.039082273840904236,0.04876513406634331
1761430194967959000,8.274958984375,-0.00007964810356497765,-0.09715157747268677,0.04175981134176254
1761430194987902200,8.294902099609375,-0.019678261131048203,-0.05479814112186432,-0.00005346164107322693
1761430195007846100,8.31484619140625,-0.0424547977745533,-0.009925613179802895,-0.054752007126808167
1761430195027790000,8.3347900390625,-0.046882230788469315,-0.01747080311179161,-0.06805220991373062
1761430195047733000,8.35473291015625,-0.03199005499482155,-0.05599576607346535,-0.07256681472063065
1761430195067677200,8.37467724609375,-0.014923572540283203,-0.11819962412118912,-0.09509916603565216
1761430195087621000,8.39462109375,0.010414982214570045,-0.11663007736206055,-0.10244707018136978
1761430195107565000,8.41456494140625,0.05057333782315254,-0.1062370240688324,-0.06816604733467102
1761430195127508200,8.43450830078125,0.0567607544362545,-0.1344643086194992,-0.055787619203329086
1761430195147452200,8.4544521484375,0.08337315171957016,-0.13882236182689667,-0.05528933182358742
1761430195167396000,8.47439599609375,0.054370228201150894,-0.08958771824836731,-0.06460310518741608
1761430195187338500,8.49433837890625,0.033321358263492584,0.027812350541353226,-0.07654790580272675
1761430195207282700,8.51428271484375,0.03342829644680023,0.0778445154428482,-0.0514955036342144
1761430195227226600,8.5342265625,0.04076274111866951,0.06042245030403137,0.00852029025554657
1761430195247170600,8.554170654296875,0.04479539394378662,0.038104478269815445,0.06524161249399185
1761430195267113700,8.57411376953125,0.028506193310022354,0.03793458640575409,0.08029049634933472
1761430195287057700,8.5940576171875,0.0037952344864606857,-0.015491129830479622,0.09423258900642395
1761430195307001600,8.614001708984375,0.013986080884933472,-0.0057985298335552216,0.11657030880451202
1761430195326944500,8.633944580078126,0.013194062747061253,0.03375684469938278,0.09891628473997116
1761430195346888700,8.653888671875,-0.00007390824612230062,0.10729623585939407,0.0545649416744709
1761430195366832600,8.67383251953125,-0.015722449868917465,0.18065643310546875,-0.012653474695980549
1761430195386776600,8.693776611328126,-0.010752144269645214,0.2288474291563034,-0.05420511215925217
1761430195406719700,8.7137197265625,-0.010325285606086254,0.1373952031135559,-0.025336438789963722
1761430195426663700,8.73366357421875,0.0007398817106150091,0.07019220292568207,0.023989832028746605
1761430195446607600,8.753607666015625,0.020572902634739876,-0.026250790804624557,0.04036598652601242
1761430195466550500,8.773550537109376,0.05912089720368385,-0.060882702469825745,0.012885707430541515
1761430195486494700,8.79349462890625,0.07550445199012756,-0.047012683004140854,-0.0046622552908957005
1761430195506438700,8.813438720703125,0.07299032807350159,-0.04715791717171669,-0.008150785230100155
1761430195526381800,8.8333818359375,0.05068829283118248,-0.01230958104133606,0.009401999413967133
1761430195546325800,8.85332568359375,0.04251202568411827,-0.014620233327150345,0.0015512123936787248
1761430195566269700,8.873269775390625,0.04630172997713089,-0.04489289969205856,0.0027079880237579346
1761430195586213600,8.893213623046876,0.03874232620000839,-0.09304262697696686,0.01827353797852993
1761430195606156500,8.913156494140624,0.01122901402413845,-0.08841663599014282,0.05676223337650299
1761430195626100700,8.933100830078125,-0.02309591695666313,-0.06363322585821152,0.0809725895524025
1761430195646044700,8.953044677734376,-0.029039103537797928,-0.05655832216143608,0.07006645202636719
1761430195665987800,8.97298779296875,-0.033587198704481125,-0.08172541856765747,0.02450195699930191
1761430195685931800,8.992931884765625,-0.025821998715400696,-0.05307652801275253,0.002799068111926317
1761430195705875700,9.012875732421875,-0.018887637183070183,-0.02431650087237358,0.016789350658655167
1761430195725819600,9.032819580078124,-0.03089956007897854,-0.019581401720643044,0.04642980173230171
1761430195745762600,9.052762451171875,-0.034853436052799225,-0.031210755929350853,0.06788703799247742
1761430195765706800,9.072706787109375,-0.01737365499138832,-0.019638409838080406,0.06063812971115112
1761430195785650700,9.092650634765626,0.010974389500916004,-0.04072796553373337,0.06038929522037506
1761430195805593900,9.11259375,0.023715011775493622,-0.07239294052124023,0.06923351436853409
1761430195825537800,9.132537841796875,0.036263205111026764,-0.07137907296419144,0.05496526136994362
1761430195845481700,9.152481689453126,0.03498489037156105,-0.043332021683454514,0.007854013703763485
1761430195865425700,9.17242578125,0.014721820130944252,-0.025013890117406845,-0.042237430810928345
1761430195885368600,9.19236865234375,-0.012280968017876148,-0.008944272994995117,-0.0938563272356987
1761430195905312800,9.212312744140625,-0.0056342752650380135,0.00727276224642992,-0.1297132968902588
1761430195925256700,9.232256591796874,-0.01095075998455286,0.014434467069804668,-0.12359283864498138
1761430195945199600,9.25219970703125,-0.018772080540657043,-0.02345658466219902,-0.08520535379648209
1761430195965143800,9.272143798828125,-0.012936464510858059,-0.03372617065906525,-0.03978322446346283
1761430195985087700,9.292087646484376,-0.014222581870853901,-0.051488444209098816,-0.01216700579971075
1761430196005030700,9.31203076171875,-0.016091587021946907,-0.04490617662668228,-0.01761583425104618
1761430196024974600,9.331974609375,-0.022436564788222313,-0.028988752514123917,-0.01737208105623722
1761430196044918800,9.351918701171876,-0.022079601883888245,-0.05032270774245262,-0.007236568722873926
1761430196064862700,9.37186279296875,-0.003451739437878132,-0.03497450798749924,0.020965123549103737
1761430196084805600,9.3918056640625,0.008417894132435322,0.04647582396864891,0.02679482102394104
1761430196104749600,9.41174951171875,0.023318305611610413,0.10010365396738052,0.035586878657341
1761430196124693800,9.43169384765625,0.04637574031949043,0.0628625750541687,0.06377916783094406
1761430196144636700,9.45163671875,0.06786889582872391,-0.023249804973602295,0.08608328551054001
1761430196164580600,9.47158056640625,0.07925023883581161,-0.05068967491388321,0.06540185213088989
1761430196184525000,9.491525146484374,0.05630327761173248,-0.019665781408548355,0.035179104655981064
1761430196204469000,9.511468994140625,0.04230720177292824,0.02158116176724434,0.02407073602080345
1761430196224412000,9.531411865234375,0.03665505349636078,0.018220650032162666,0.03222092613577843
1761430196244355800,9.55135595703125,0.029745927080512047,0.00988403707742691,0.047174058854579926
1761430196264299800,9.5712998046875,0.02013486437499523,0.002687951549887657,0.048542220145463943
1761430196284243000,9.591242919921875,0.02247229591012001,0.0012130760587751865,0.027571793645620346
1761430196304187100,9.611187255859376,0.004787917714565992,0.022564755752682686,-0.014155985787510872
1761430196324131000,9.631131103515624,-0.017346709966659546,0.12252198904752731,-0.006658624392002821
1761430196344074000,9.651073974609375,-0.008370889350771904,0.14101088047027588,0.04721200838685036
1761430196364018000,9.671017822265625,0.008825505152344704,0.11909981817007065,0.06137688830494881
1761430196383961900,9.6909619140625,0.005237018223851919,0.10695592314004898,0.05560417100787163
1761430196403905800,9.71090576171875,0.006046788301318884,0.15183700621128082,-0.004945780150592327
1761430196423849000,9.730848876953125,-0.019079409539699554,0.18754459917545319,-0.06603965163230896
1761430196443793200,9.750793212890626,-0.046632181853055954,0.09720779955387115,-0.1252058744430542
1761430196463737000,9.770737060546875,-0.07772262394428253,0.05174480378627777,-0.16686856746673584
1761430196483680000,9.790679931640625,-0.07200925052165985,0.033776819705963135,-0.13167564570903778
1761430196503624000,9.8106240234375,-0.02782563865184784,0.012735886499285698,-0.02222297340631485
1761430196523567900,9.83056787109375,-0.018003441393375397,0.026475057005882263,0.0852242261171341
1761430196543511000,9.850510986328125,0.001790017238818109,0.005928562954068184,0.14892330765724182
1761430196563455000,9.870455078125,-0.011026711203157902,-0.0405888706445694,0.11795048415660858
1761430196583399200,9.890399169921874,0.01392826996743679,-0.06974000483751297,0.05561259388923645
1761430196603343000,9.910343017578125,0.015647729858756065,-0.06965520977973938,0.0054953149519860744
1761430196623286000,9.9302861328125,-0.00021350436145439744,-0.03722105547785759,-0.0043047573417425156
1761430196643230000,9.95022998046875,-0.018454555422067642,-0.005918285343796015,-0.0066703734919428825
1761430196663174000,9.970173828125,-0.01951952651143074,0.014077811501920223,-0.013974195346236229
1761430196683116800,9.99011669921875,-0.006518461275845766,0.01996399089694023,-0.03386615216732025
1761430196703061000,10.01006103515625,0.0032315407879650593,0.05763937160372734,-0.07539553940296173
1761430196723005200,10.030005126953125,-0.003647049656137824,0.06341803818941116,-0.10025357455015182
1761430196742948000,10.049947998046875,-0.00888749212026596,0.04571103677153587,-0.11549455672502518
1761430196762892000,10.06989208984375,-0.01032792404294014,0.017550848424434662,-0.026508329436182976
1761430196782836000,10.0898359375,-0.0015744452830404043,-0.062048740684986115,0.06062222272157669
1761430196802780000,10.10977978515625,-0.018402356654405594,-0.02766379341483116,0.045447688549757004
1761430196822722800,10.129722900390625,-0.011630332097411156,0.017390679568052292,-0.008943405002355576
