time,seconds_elapsed,z,y,x
1761481523276837400,0.06783740234375,1.5770312905460595,3.800115921062231,-1.1145726228646933
1761481523296780300,0.0877802734375,2.534944009798765,3.0237101080387827,-2.873912929803133
1761481523316722400,0.107722412109375,3.531991638609767,2.9954893912047145,-3.043359980404377
1761481523336664300,0.127664306640625,4.280723262766004,3.3419542199224233,-1.4056963803716003
1761481523356607500,0.147607421875,4.888536596190929,3.62876040649116,-0.004354637845815159
1761481523376549000,0.167549072265625,4.932091660279036,4.226558541858196,0.8366630055874585
1761481523396492300,0.1874921875,4.428320885130763,4.649582878643274,0.9410181369446218
1761481523416434200,0.20743408203125,3.8194507361292835,4.611886477455497,0.49485999466832725
1761481523436377300,0.22737744140625,3.477325982442498,4.546498351743817,-0.2138060514833778
1761481523456319200,0.2473193359375,2.604150817015767,4.458734143573046,-0.18404497333951295
1761481523476262400,0.267262451171875,1.3116507538437843,4.269956954079866,0.9445940226700157
1761481523496204300,0.287204345703125,0.613337065282464,1.6850865915954112,2.1817304374732074
1761481523516147500,0.3071474609375,0.5986486147165299,-2.9315725070893763,2.587382053044438
1761481523536089300,0.32708935546875,-0.20406828212738035,-5.401992314529418,0.46803212043214587
1761481523556032500,0.347032470703125,-4.123955660995841,-5.620783534014224,0.02283189993519336
1761481523575974100,0.36697412109375,-7.345487850248813,-5.448348407512903,2.9297578588828443
1761481523595917300,0.386917236328125,-7.68513072399199,-6.313700331968069,3.6780633665814992
1761481523615859200,0.406859130859375,-6.183942317676544,-7.388104756703973,1.2907296924985945
1761481523635801300,0.42680126953125,-6.028355450123549,-8.301697857236862,1.5812247967131434
1761481523655744300,0.446744140625,-5.435392479828,-8.268574170792101,1.7415093205630778
1761481523675686400,0.466686279296875,-4.94650012485981,-7.300425304207205,0.5634227683607489
1761481523695629300,0.48662939453125,-2.85023277900815,-5.605448017716408,0.1203568564787507
1761481523715571500,0.506571533203125,-1.7579811474144458,-3.536828557246923,0.2536426795702427
1761481523735514400,0.526514404296875,-0.9021510845422744,-0.05608779792487621,1.1203604855511338
1761481523755456500,0.54645654296875,1.8046762630939484,2.794144396561384,1.1993855800144373
1761481523775399400,0.5663994140625,3.8404765730232,3.9492181027710433,-0.5376886807106435
1761481523795341300,0.58634130859375,4.094441397219896,4.3421968453824515,-3.0091195648893714
1761481523815284200,0.6062841796875,2.7374825981408355,5.096140066707134,-4.165184035702049
1761481523835226400,0.626226318359375,1.9448481193721294,5.945073355802894,-3.339190600427985
1761481523855169300,0.646169189453125,2.2025860323667525,6.550157556524872,-1.7303385227292776
1761481523875111400,0.666111328125,2.705673501425981,6.842989579254389,-1.658883644324541
1761481523895054300,0.686054443359375,3.3395103339016434,6.595054098349809,-1.97784817943722
1761481523914996500,0.70599658203125,4.4122225677669045,5.329055088612437,-0.9151704328522086
1761481523934938400,0.7259384765625,5.165509955531358,5.1319291729688645,-1.1767146062619984
1761481523954881500,0.745881591796875,3.8438197459712624,5.082081730738282,-2.3131068467468023
1761481523974823200,0.7658232421875,1.6070447360157967,4.374003604009747,-1.754848548477143
1761481523994766300,0.785766357421875,1.5044436087191104,2.937087471118569,-0.5802689084172249
1761481524014708200,0.805708251953125,1.9679829112440346,2.279300438734889,0.7709343958750366
1761481524034651400,0.8256513671875,0.7782321516677737,0.6111649819403886,2.0655324542395768
1761481524054593300,0.84559326171875,1.645229797503352,-3.2406706049650906,2.6260686343133446
1761481524074536400,0.865536376953125,-0.43338703310638665,-5.0010593980431555,-0.47556876301467416
1761481524094478300,0.885478271484375,-8.663400002574921,-5.322072974640131,-1.5497433245174586
1761481524114421200,0.905421142578125,-13.453503112542629,-5.803419736534357,0.6988812593162059
1761481524134363400,0.92536328125,-7.840143591049313,-4.953947518256307,3.254371505798399
1761481524154306300,0.945306396484375,0.33751989023983475,-5.2077527679771185,2.9459406396597623
1761481524174248200,0.965248291015625,4.548530442093313,-7.965549839872121,3.4882986273556944
1761481524194190300,0.9851904296875,3.2978754242211576,-9.117408091166615,2.6708798359423875
1761481524214133200,1.00513330078125,-0.2570341486394405,-7.132718375271558,0.5726494463894516
1761481524234075400,1.025075439453125,-4.772963759118318,-3.5355373483926056,-1.7643005596943198
1761481524254018300,1.045018310546875,-5.480036508196592,-0.11146014105677604,-2.140459831060469
1761481524273960400,1.06496044921875,-3.429906936402619,1.4801555551588534,0.5938302911819889
1761481524293903400,1.0849033203125,-1.6003773870810865,3.6485610855042934,1.2194794698204845
1761481524313845500,1.104845458984375,0.9427987367510795,4.826068741840124,0.7269619100924581
1761481524333788400,1.124788330078125,2.198241865682602,5.433440176716447,-0.8917516364071517
1761481524353730300,1.144730224609375,2.2852321668714284,6.200872994211315,-1.6850298929721117
1761481524373673200,1.164673095703125,2.7445398231759666,6.468714952591061,-0.8073451411664485
1761481524393615400,1.184615478515625,3.953918827807903,7.334905665957927,0.09664486750708892
1761481524413558300,1.204558349609375,5.766420085439085,8.15294814222753,0.6148598909355699
1761481524433500400,1.22450048828125,5.772908278414607,7.893758276858925,-0.42731965935882177
1761481524453443300,1.244443359375,4.190692863228917,6.540713436353206,-1.745089809398353
1761481524473385200,1.26438525390625,3.255397341714799,5.840443353027105,-2.3287384233817456
1761481524493327400,1.284327392578125,2.102995192801952,5.819131100407242,-1.2756954972349106
1761481524513270300,1.304270263671875,2.1950775564327834,3.626689445436001,0.5915785301998258
1761481524533212200,1.324212158203125,2.236986899140477,0.10487199483811854,1.36242407874763
1761481524553155000,1.344155029296875,2.139385479827225,-3.5510897223114966,1.1059115428294986
1761481524573097200,1.36409716796875,2.346156883433461,-6.804826729598641,1.0383618551697582
1761481524593040100,1.3840400390625,-0.6056371584296226,-9.233779385140538,-0.07753669166960753
1761481524612982300,1.403982177734375,-6.3458203943282365,-10.351826552248001,-0.994586718590185
1761481524632925200,1.42392529296875,-7.663927192443609,-10.463533361542224,1.3080426463492214
1761481524652867300,1.443867431640625,-1.808466303026676,-9.5818960727185,1.4195723455108702
1761481524672810200,1.463810302734375,-0.1008177510112524,-8.902324494028091,1.1218842610523103
1761481524692752400,1.48375244140625,-4.423296627227962,-7.954047618126869,0.2122800657588057
1761481524712694500,1.503694580078125,-8.066444747772813,-7.213962241762876,-0.23913994256844742
1761481524732637400,1.523637451171875,-5.086651522871851,-5.824933064684272,-0.6836072639472782
1761481524752579300,1.543579345703125,0.22293957133591175,-3.3087931240767237,-1.0448605695392936
1761481524772522200,1.563522216796875,3.661558806504309,-0.6117623633116483,-1.9661922284349798
1761481524792464400,1.58346435546875,3.7855171946063635,1.835098873886466,-1.603783688393235
1761481524812407300,1.6034072265625,2.314731817600131,4.098343080833554,0.26330303630847485
1761481524832349200,1.62334912109375,0.22674860823005435,5.620223562043905,0.7554650240644812
1761481524852292400,1.643292236328125,0.015877660350501536,6.106148299378156,-0.009123290719464421
1761481524872234200,1.663234130859375,1.177816283893585,6.454872889721393,-0.29021511822938917
1761481524892177400,1.683177490234375,3.310572116447985,7.278232177099585,-0.25082842586711046
1761481524912119300,1.703119384765625,5.470148151388764,7.779814502292871,0.48148441679924725
1761481524932062500,1.7230625,6.485075135761499,7.8971426586002105,0.28449316038601097
1761481524952004000,1.743004150390625,5.62513822209239,7.324062200382351,-1.15822004141137
1761481524971946200,1.7629462890625,2.9956983577802774,6.4889674670249216,-2.389772883928567
1761481524991889200,1.78288916015625,1.6551640392795204,5.970147006782889,-1.509390417471528
1761481525011831300,1.802831298828125,1.0197183103024958,5.701358707463741,-0.471947394179739
1761481525031774200,1.822774169921875,0.10127981556504964,4.526280324101448,0.21752857913784682
1761481525051716400,1.84271630859375,-1.237707565754652,2.0234365029186008,1.0716728078149258
1761481525071659300,1.8626591796875,-2.757172510255873,-1.1317968755185603,1.8351456356376408
1761481525091601400,1.882601318359375,-4.436524357591569,-3.4993104352355,0.5276728250656276
1761481525111544300,1.90254443359375,-4.30329516005814,-5.88599572841227,0.5887476906880736
1761481525131486200,1.922486328125,-3.594765782430768,-7.487581614500284,1.8606680532984434
1761481525151429000,1.94242919921875,-4.586213399277627,-9.023876990032196,4.505073869943619
1761481525171371300,1.962371337890625,-3.953935194420814,-10.373589471244811,5.684592281579971
1761481525191314200,1.982314208984375,-1.4269821833759546,-11.352983954465389,3.6482097878485917
1761481525211255800,2.002255859375,-0.3481637415900826,-11.064207929128408,0.9732921477574854
1761481525231197700,2.02219775390625,-2.236619527132809,-8.275104449343681,-0.9195623111356049
1761481525251140600,2.042140625,-2.7070959354445336,-5.062343595567345,-3.0525872429549694
1761481525271082800,2.062082763671875,-2.297745319224894,-1.7868541906774043,-4.677753911116719
1761481525291025700,2.082025634765625,-2.654829157112539,0.7557084774315357,-4.302473322281241
1761481525310967800,2.1019677734375,-2.0296102231174706,3.546789979290962,-2.369885257284343
1761481525330910700,2.12191064453125,-0.8928139318764209,6.021136020264029,0.007997282364219427
1761481525350852600,2.1418525390625,0.23012948284000156,7.515486104992031,1.1888102638557552
1761481525370795800,2.161795654296875,1.6658368244633077,7.559217110168934,0.6095677028115838
1761481525390737700,2.181737548828125,2.19671567902863,6.3759688643544905,-1.786833586280793
1761481525410680800,2.201680908203125,2.568596688553691,5.983097673770785,-3.2290108545705674
1761481525430622700,2.221622802734375,2.9773914244562385,6.829601689893007,-2.215064844059199
1761481525450564600,2.241564697265625,3.980599621723592,7.770375058296322,-0.7274019820101558
1761481525470507500,2.261507568359375,4.698053771823644,7.361777890792489,0.6089447120750323
1761481525490449700,2.28144970703125,4.323417326110601,6.475493068423867,0.2545470445314422
1761481525510392600,2.301392578125,2.637636907032132,6.090434012895822,-0.08023854363998398
1761481525530334700,2.321334716796875,0.6945575508981943,4.496699424830079,-0.052929571355972434
1761481525550277600,2.341277587890625,-0.18541472732275724,2.624647077077627,-1.2550342558696865
1761481525570219800,2.3612197265625,-0.23848405420929192,0.9038198945373296,-0.16366075881738215
1761481525590162700,2.38116259765625,-1.5835481250941752,-0.5164268431037664,3.0468127512067555
1761481525610104800,2.401104736328125,0.17392945671230553,0.07583703901171684,3.1629622191235423
1761481525630047700,2.4210478515625,1.7521365130394697,-2.243632328504324,1.62290924462378
1761481525649989600,2.44098974609375,-0.5171469740718603,-6.2684408020496365,-1.6775417291738093
1761481525669932500,2.4609326171875,-4.3282922386705875,-8.994428777229786,0.6659620824676007
1761481525689874700,2.480874755859375,-3.7777985830530523,-8.956600274094939,5.106571444350481
1761481525709816600,2.500816650390625,1.5195093681648373,-9.096168903782964,6.00511427526772
1761481525729759700,2.520759765625,3.4464421838790176,-9.687106505730748,3.8588139014855023
1761481525749701600,2.54070166015625,1.173131340947747,-9.10506883407533,1.571803034503758
1761481525769644800,2.560644775390625,-2.5197262746617195,-6.107853349730372,-0.3186109359020367
1761481525789586700,2.580586669921875,-3.0040912153333426,-1.3773527678102253,-0.8428310266979038
1761481525809529900,2.60052978515625,-1.3973656282693148,1.9543810868710279,0.2208211726761423
1761481525829471700,2.6204716796875,0.056929801706969735,3.6081647777080534,0.26165072079049423
1761481525849415000,2.640414794921875,1.6724816693052649,5.0065363681495185,0.37915195037610827
1761481525869356500,2.6603564453125,2.3699495546922087,6.988543713092803,0.24622630236651746
1761481525889299700,2.6802998046875,1.9139046995759008,8.153347955200076,0.6372452526796609
1761481525909241600,2.70024169921875,1.7293083028987049,8.07056913422644,0.17933515168074518
1761481525929183700,2.720183837890625,2.226589423766732,7.273530867540836,-1.167797213378176
1761481525949126700,2.740126708984375,2.9184271943122146,6.833489929503202,-2.1375778458833694
1761481525969068800,2.76006884765625,3.1496237218618393,6.5817492110967635,-1.5495977785669266
1761481525989011700,2.78001171875,2.8091198473751544,5.774360230788588,-0.5289359403366223
1761481526008953900,2.799953857421875,3.2477591019213197,5.3642912371665235,-0.9152792269889265
1761481526028896800,2.819896728515625,2.8200094901800155,4.440379571714997,-1.9658732256136833
1761481526048838700,2.839838623046875,1.3806968175411223,2.9760107837527987,-2.9810698207080364
1761481526068781600,2.859781494140625,-0.2239075395852327,2.5492957757562396,-2.353833409410715
1761481526088723700,2.8797236328125,-0.4832967269182205,1.9738316372722386,0.2568744828320108
1761481526108666600,2.89966650390625,0.3277759103387594,-0.26040508637726306,2.4008966277502477
1761481526128608800,2.91960888671875,-1.5739689803659915,-3.4038445666462183,2.1811276492744684
1761481526148551700,2.9395517578125,-2.6010300546467304,-5.940887010028958,5.758451298516988
1761481526168493800,2.959493896484375,-1.5993068352401256,-6.4834752993494265,5.813225675755739
1761481526188435700,2.979435791015625,1.529351840004325,-9.17788038778603,1.08166382127963
1761481526208379000,2.99937890625,-1.6598983743250368,-12.572825024139881,-5.692509630575776
1761481526228321000,3.019321044921875,-5.906834518301487,-13.54111826763153,-3.579977378621697
1761481526248264200,3.03926416015625,-7.175664952072501,-11.19973283638358,3.837513047042489
1761481526268206000,3.0592060546875,-7.062534247455001,-9.317470060262083,5.9065142003059385
1761481526288149000,3.07914892578125,-5.231463313910365,-7.86851686809659,1.692658049762994
1761481526308091000,3.0990908203125,-2.3665309784203767,-4.732552253752947,-3.4664521217286586
1761481526328034000,3.119033935546875,-1.5599240884006023,-1.825391134342551,-2.684851078149676
1761481526347976000,3.138975830078125,-2.751439811822772,-0.7307984925806522,0.8797074167396872
1761481526367918800,3.1589189453125,-3.7241198920965193,0.7735363950669765,1.6032560112573206
1761481526387861000,3.178861083984375,-2.9204864649295805,2.094188786011934,-0.33615547001883384
1761481526407803100,3.19880322265625,0.16927286307811737,3.967563322278857,-2.2814861122108994
1761481526427746000,3.21874609375,4.41879551641643,6.043274786835909,-1.525287951566279
1761481526447688200,3.238688232421875,6.752510851427912,8.057845261731744,0.6756340200457721
1761481526467631000,3.258631103515625,8.451384560835361,8.286185230806469,2.7428911791861057
1761481526487573200,3.2785732421875,9.959273341572285,7.750193271011113,2.4911773487865925
1761481526507516200,3.29851611328125,10.271645346552132,7.866115652173757,-1.4544339616641402
1761481526527458000,3.3184580078125,6.945204922103882,7.325304893919825,-3.575147181986272
1761481526547401000,3.33840087890625,2.7838749314814804,6.795009684461355,-3.985472780717909
1761481526567343000,3.358343017578125,4.605043479692935,6.869910903927684,-1.8558146219179033
1761481526587286000,3.3782861328125,6.8120520046770565,6.214313490542769,0.4087306576903909
1761481526607228200,3.398228271484375,3.8327369186818596,2.9643197614371775,0.7784226327385753
1761481526627171000,3.418171142578125,2.4337293684244155,-0.5579699828475714,1.0792150398880243
1761481526647113000,3.438113037109375,4.796988193306326,-3.8259523731082674,2.309104917629063
1761481526667055000,3.45805517578125,2.5545932976424695,-4.893882633394003,2.4059058342143893
1761481526686998000,3.477998046875,-3.9564018767952915,-7.087477550053596,3.0458257859960196
1761481526706940000,3.49793994140625,-8.085973624107242,-10.175288082081078,2.937591913509369
1761481526726882800,3.5178828125,-8.54502964373827,-10.148539191365241,0.21383699461091307
1761481526746825000,3.537824951171875,-12.29350422489047,-10.572895069015026,-3.222866652727127
1761481526766767900,3.557767822265625,-12.69015493401289,-9.68129869623482,-2.5332681855410337
1761481526786710000,3.5777099609375,-10.88833464487195,-8.351304476448894,0.22240378395877777
1761481526806653000,3.59765283203125,-8.463407007062434,-7.429722130727767,0.7107528988957404
1761481526826595000,3.617594970703125,-2.4548434681236744,-5.4891860293358565,-0.491594161272794
1761481526846538000,3.6375380859375,1.451681740346551,-3.2399060503333805,-3.050722033604979
1761481526866480000,3.657480224609375,2.739975584000349,-0.47066287079453467,-3.4318121855020522
1761481526886422300,3.67742236328125,1.3442623991131781,2.000450179606676,-2.255248385887593
1761481526906365200,3.697365234375,0.6119716221481561,4.411469703572989,-0.6902589769214391
1761481526926307000,3.71730712890625,0.5124854120016098,6.5479983326643705,-0.1981994631592184
1761481526946250000,3.73725,1.528437647768855,7.123965159973502,-1.9849875297978519
1761481526966192000,3.757192138671875,1.856881666627526,7.190845570069551,-2.7702973647668956
1761481526986135000,3.777135009765625,3.788784379708767,8.84977188449204,-0.028085217353515324
1761481527006077000,3.797076904296875,6.227481015151739,10.268004944223165,2.6641417598590253
1761481527026020000,3.81702001953125,7.692059061950444,10.144365705072879,1.7786511566080152
1761481527045962000,3.8369619140625,6.795006177330016,8.735993529620766,-1.2093847767855972
1761481527065905200,3.8569052734375,5.631344090995192,8.863966414061188,-2.7349127476528285
1761481527085847000,3.876846923828125,7.025026062315702,9.31691710255444,-0.4531649157658219
1761481527105790200,3.896790283203125,7.404567231205105,7.501084654673933,2.731615751934051
1761481527125731800,3.91673193359375,5.584710934635996,2.5049130286723376,2.8665044071123003
1761481527145674000,3.936674072265625,2.0007699130803345,-1.3690402820169925,0.3819342015057802
1761481527165617000,3.956616943359375,-0.7978489985466003,-2.3699054232895373,-0.2941819760337472
1761481527185559000,3.97655908203125,-2.5738509558200833,-5.382863251167535,2.0401820321448145
1761481527205502000,3.996501953125,-1.2989099302142857,-7.862121614101529,3.594737725380063
1761481527225443600,4.016443603515625,-1.4789911875545978,-9.065899437725543,1.8122991591878235
1761481527245386500,4.036386474609375,-5.611015004193782,-9.45210941685438,-1.0636637619476765
1761481527265328600,4.05632861328125,-12.42651451897621,-10.77863508374691,-0.19419439223632215
1761481527285271600,4.076271484375,-16.95262182459831,-12.652011373579501,2.8252123195201158
1761481527305213700,4.096213623046875,-12.631121730285882,-10.327290661406517,2.5933742791965604
1761481527325156600,4.116156494140625,-3.153566322007775,-5.610148158231377,1.7378792934976517
1761481527345098800,4.1360986328125,4.9799230865120885,-2.2601965098142625,1.0784806611988693
1761481527365041700,4.156041748046875,2.1850550518512724,-1.4620067350059747,-1.3102544771797955
1761481527384983800,4.17598388671875,-0.6382558179616927,0.339022696018219,-0.9072408088967203
1761481527404925700,4.19592578125,-2.856452091914415,2.225746543201804,0.16719298806414007
1761481527424868600,4.21586865234375,-2.008091049748659,3.9665111828774213,-1.1614357885874806
1761481527444810800,4.235810791015625,1.0434756179869173,5.4484886927664276,-2.753120019994676
1761481527464753700,4.255753662109375,3.7919443050444124,7.076549328804016,-1.7418397215612231
1761481527484695600,4.275695556640625,3.6540287032604217,7.748014757928252,0.13592055550925433
1761481527504638700,4.295638671875,3.447937390872836,6.890298442918062,0.1352675714932382
1761481527524580600,4.31558056640625,5.281429998606443,6.081506025552749,-1.114542739183083
1761481527544523800,4.335523681640625,7.1639540560126305,5.768345500543713,-2.1961554147973654
1761481527564465700,4.355465576171875,7.005418860048056,6.016034897732735,-2.340701832897961
1761481527584408800,4.375408935546875,5.6558367272168395,6.473579343757033,-1.4455791856877505
1761481527604350500,4.3953505859375,6.380001480871439,5.513971511024236,-0.04929974521994591
1761481527624293600,4.415293701171875,5.901826919272541,3.366266823402047,-0.4237150955282151
1761481527644235500,4.435235595703125,3.7824341338992116,0.9994020829826593,-1.9346224934339522
1761481527664177700,4.455177734375,2.016453219902515,-2.2717595218360422,-3.3929034859150646
1761481527684120600,4.47512060546875,-0.5199310518324375,-4.620138757494091,-1.1820878237329422
1761481527704062700,4.495062744140625,-6.055535717993974,-4.680443880853057,1.992935127801448
1761481527724005600,4.515005615234375,-10.875208621317148,-5.8968158131122586,4.280826138618588
1761481527743947800,4.53494775390625,-7.101378649634122,-8.523796886095404,3.0337405036658045
1761481527763890700,4.554890625,-4.599431485030054,-9.461299854525922,2.8432787220865485
1761481527783832600,4.57483251953125,-4.609201768416166,-8.891234944736958,5.03773463948965
1761481527803775500,4.594775390625,-5.10881074770987,-9.103684101718663,7.721676786100864
1761481527823717600,4.614717529296875,-4.67646504034996,-9.170686092367768,6.545905159777402
1761481527843660500,4.63466064453125,-3.2332629590570923,-7.925398446747661,1.4746626568309962
1761481527863602700,4.654602783203125,-1.669575718730688,-4.955331666091084,-2.378722059212625
1761481527883545600,4.674545654296875,0.38093817620575426,-2.498072953519225,-2.025482767923921
1761481527903487700,4.69448779296875,2.4132138191401955,0.5171837989509105,-0.33650194536894557
1761481527923429600,4.7144296875,4.27101318513453,3.1781279318124054,-0.19437449804358184
1761481527943372800,4.734372802734375,2.968211508178711,5.3055251599431035,-1.9752184154555201
1761481527963314700,4.754314697265625,1.3281681734025477,6.7100850836306805,-2.5614146680951118
1761481527983257900,4.7742578125,2.4421815549492836,7.949006116828322,-2.3265122717648743
1761481528003199500,4.794199462890625,4.967693719536066,8.273741344296932,-1.3963871386259794
1761481528023142700,4.814142578125,6.215286134967208,7.4873594961822025,-0.3182958420708775
1761481528043084500,4.83408447265625,4.592396764087677,7.592102311682701,0.8262875959150493
1761481528063025700,4.854025634765625,3.5225849278390404,7.316396780321002,0.04174063507728278
1761481528082968800,4.87396875,4.085748387676477,5.761697733092308,-1.773398496776819
1761481528102910700,4.89391064453125,4.230476592084766,4.815042905434966,-1.8278627851530909
1761481528122853600,4.913853515625,3.1339176186859605,4.407938606837392,-0.3711834557149559
1761481528142795500,4.93379541015625,2.281286059594154,2.6314737082272766,-0.6195658036042004
1761481528162738700,4.95373876953125,1.4443997666448354,0.14054185863435267,-2.5068892971813677
1761481528182680600,4.9736806640625,0.561717352682352,-1.8308844710618257,-3.3027702105253933
1761481528202623500,4.99362353515625,-0.964109235805273,-1.72884214669168,-1.5959743298165499
1761481528222565400,5.0135654296875,-4.490776464521884,-1.0059458055377006,0.35371034286655484
1761481528242508300,5.03350830078125,-6.166337687402963,-3.0417507916420696,2.1731305130407215
1761481528262450200,5.0534501953125,-2.509374684256315,-4.547312006214261,1.9498048649966715
1761481528282393300,5.073393310546875,-0.7533171983808279,-5.474405224311352,2.1755244224399326
1761481528302335200,5.093335205078125,-4.96173627243638,-5.470298373514414,3.1363007144302126
1761481528322277400,5.11327734375,-7.846518386778235,-5.4820028398334975,5.202216176638007
1761481528342220300,5.13322021484375,-4.20967287350893,-7.475124283987284,6.02311111972928
1761481528362162400,5.153162353515625,-1.3998364022970198,-8.119796398732065,2.151261795581877
1761481528382105300,5.173105224609375,-3.1925895878851414,-6.973522669571638,-1.676239268273115
1761481528402047500,5.193047607421875,-3.891631590721011,-4.767510754409432,-2.339276768530905
1761481528421990400,5.212990478515625,-1.9851035573929547,-2.1252964564591643,-1.2402557889327406
1761481528441933300,5.232933349609375,0.5535901603281498,-0.3332072877377271,-1.350563691214472
1761481528461875500,5.25287548828125,1.3336428054213523,1.7894962296187877,-1.0205224662922323
1761481528481818400,5.272818359375,1.7201824548959732,3.9386435172647234,-0.2650344997435808
1761481528501760300,5.29276025390625,2.2091011133491993,5.194547833967208,0.5732990694046021
1761481528521703200,5.312703125,2.319905420845747,5.873262503567338,0.38320290626734493
1761481528541645300,5.332645263671875,2.8759295303225514,6.195047649058699,-0.807121415413171
1761481528561588200,5.352588134765625,4.098689702314138,6.140543905454874,-1.961004742794484
1761481528581530400,5.3725302734375,5.240117745009065,6.681381551715731,-2.330737926635891
1761481528601473300,5.392473388671875,5.685988119852542,7.621532404306531,-2.1395511917829513
1761481528621415400,5.41241552734375,4.88670645815432,7.519590617701411,-1.934072750596702
1761481528641358300,5.4323583984375,3.2166584457367655,6.063120474034547,-1.9548463662952185
1761481528661300500,5.452300537109375,1.9686083496659994,5.34848225813806,-2.3398911010369656
1761481528681243400,5.472243408203125,3.306946034905314,3.8638843366175886,-1.7400586833633482
1761481528701185300,5.492185302734375,4.418233206358551,0.04228665158748626,1.2758908736765384
1761481528721128200,5.512128173828125,2.405311083191633,-4.167435321760177,2.1771667828194796
1761481528741070300,5.5320703125,-6.374585301041603,-4.799329203474521,-3.1885943807691333
1761481528761012200,5.55201220703125,-9.92354736367464,-5.160913859912752,-1.754426085281372
1761481528780955400,5.571955322265625,-4.546026350317895,-6.66523354999125,5.196082788449526
1761481528800897300,5.591897216796875,0.8599214238390326,-6.516016217470169,5.835683006757497
1761481528820840400,5.61184033203125,-1.360706461174786,-7.865320117881893,3.4254479111671445
1761481528840782300,5.6317822265625,-7.067447153937816,-8.526442432168126,2.5334569861114025
1761481528860725500,5.6517255859375,-8.581777950420975,-8.963913811978697,3.1760578475400805
1761481528880667400,5.67166748046875,-5.72913109600842,-7.52569068814218,2.700813494174182
1761481528900610600,5.691610595703125,-1.1926795065045357,-5.917835804787278,0.07759657776383683
1761481528920552200,5.71155224609375,1.160714342445135,-3.5882436871856447,-2.2909201493799687
1761481528940495400,5.731495361328125,1.5046628044277428,-0.459179353749752,-1.7810588022716343
1761481528960437200,5.751437255859375,1.475395208889246,3.2137907813459634,0.337821138208732
1761481528980380400,5.77138037109375,1.4274264200121163,6.001880700173974,1.5950706589750945
1761481529000322300,5.791322265625,2.6944547727972266,6.81598116081953,0.16787726226756347
1761481529020264400,5.811264404296875,3.700062140160799,6.591485592213273,-1.6980040869660675
1761481529040207400,5.831207275390625,4.784135725995898,7.066832821431755,-1.6161793518468737
1761481529060149500,5.8511494140625,5.485693511044979,7.621702500176429,-0.32708811073768884
1761481529080092400,5.871092529296875,4.882353523641824,8.040556857800484,0.6963461878806352
1761481529100034300,5.891034423828125,3.9386169215187428,7.195889993977547,0.41246655628308654
1761481529119977200,5.910977294921875,4.189983253654837,5.368669890642166,-0.4825589872281998
1761481529139919400,5.93091943359375,4.167447012197971,4.139496344476938,-1.8835856952883303
1761481529159862300,5.9508623046875,1.239764790545404,3.201918557244539,-3.2956545333012937
1761481529179804400,5.970804443359375,-1.8764228179216385,1.508413096871972,-1.0843117054399103
1761481529199747300,5.990747314453125,-1.9572420292600987,-1.406570678988099,1.94735060371235
1761481529219691300,6.010691162109375,1.1943752045065164,-3.867714708560705,1.1404699382524937
1761481529239634200,6.03063427734375,0.8162655297249555,-4.202351736840606,-1.615885629597306
1761481529259576300,6.050576416015625,-2.9220459693312644,-2.857677834317088,-1.5043959701851009
1761481529279518200,6.070518310546875,-3.6921255019426344,-1.6420137580662966,3.348426338545978
1761481529299461000,6.090461181640625,-6.6010454477190965,-5.0162984682291745,7.338468911397457
1761481529319403300,6.1104033203125,-6.845277397930622,-7.327226801893115,2.9447724726632236
1761481529339346200,6.13034619140625,-4.750178511336445,-7.047492745667696,-2.7493939852088687
1761481529359288300,6.150288330078125,-3.580191898155212,-9.101936381268501,-1.04709819239825
1761481529379231200,6.170231201171875,-3.9252567969471213,-7.020152903321385,-1.0604412927698343
1761481529399173400,6.19017333984375,-4.068466413486004,-2.832610028555989,-3.111167149956524
1761481529419116300,6.2101162109375,-2.357291440910101,-0.6169657771736383,-3.16178236168921
1761481529439058200,6.23005810546875,0.08462006492614746,1.1144693086206912,-1.3216510465934872
1761481529459001300,6.25000146484375,0.9883984584093093,2.990001315182447,0.8944910713084041
1761481529478943200,6.269943115234375,2.2663152849555015,4.669744207662344,1.7781684876576065
1761481529498886100,6.28988623046875,4.664679910010099,5.771710008540749,1.6295216485008597
1761481529518828000,6.309828125,5.53455544936955,6.412184671595692,-0.3579132013838738
1761481529538771200,6.329771240234375,6.09888619942069,6.4393216848462815,-1.3281895084515214
1761481529558713000,6.349713134765625,6.43020489693284,6.313184783661365,-0.7067853104390204
1761481529578655200,6.3696552734375,4.866777768847346,6.258833600270748,1.4359293138109146
1761481529598598100,6.38959814453125,3.160629100000858,6.066238313794136,0.9668202483296394
1761481529618540300,6.409540283203125,2.6480630239784717,5.248709047743678,-0.6005275968635454
1761481529638483200,6.429483154296875,2.9054999081999062,3.957725818875432,-1.9766995939239858
1761481529658425000,6.449425048828125,2.4367227050215003,2.5966636761307713,-2.587382053044438
1761481529678368000,6.469367919921875,0.2801806309491396,0.7130342878311872,-0.27851488969400523
1761481529698310100,6.48931005859375,-2.537336457893252,-0.7566735230714082,1.6621417693376541
1761481529718253000,6.509253173828125,-4.1980870651334525,-2.904628970584273,1.9820335022978484
1761481529738195200,6.5291953125,-3.662175769358873,-4.265393007165193,0.48200643137935545
1761481529758138000,6.54913818359375,-5.114964009642601,-4.766269229915737,0.8170815222829579
1761481529778080300,6.569080322265625,-5.058537189021706,-6.331763811925053,3.091730335819721
1761481529798023200,6.589023193359375,-3.7682331745892763,-7.552779770597815,0.9755446028593927
1761481529817965300,6.60896533203125,-3.4831811382114886,-8.681962079703807,-0.372092204590328
1761481529837907200,6.6289072265625,-4.548023953875899,-9.177737764444947,-1.6462196853235362
1761481529857850400,6.648850341796875,-4.8704111569136375,-8.377879764163493,-1.0804952889569104
1761481529877792000,6.6687919921875,-3.1543378909021613,-6.946007470658421,1.2123155695404857
1761481529897735200,6.688735107421875,-0.4530623321741819,-4.620436279135943,1.5781050572574138
1761481529917677000,6.708677001953125,0.6037725336015224,-2.027388455414772,0.9431342523157596
1761481529937620200,6.7286201171875,-0.14107377355396747,0.6197837572038173,-0.7403176507499069
1761481529957562000,6.74856201171875,0.3809352535963058,2.362397824138403,-2.1170941530421374
1761481529977505300,6.76850537109375,1.8854682941645382,3.165198892134428,-2.211687768841535
1761481529997447200,6.788447265625,2.6471079152107237,4.400718007934093,-1.2488467994064092
1761481530017390300,6.808390380859375,2.9526825151354075,5.909583524748682,-0.21605501772025598
1761481530037332200,6.828332275390625,3.639835342735052,6.7718409903198475,0.1510535532386042
1761481530057275400,6.848275390625,4.523546515223384,7.1376195913165805,-0.08478838896406814
1761481530077217000,6.868217041015625,5.119935368314385,6.642837009266018,0.015755618573143147
1761481530097160200,6.88816015625,4.768277062606812,6.239702783343196,-0.10363118273047729
1761481530117102000,6.90810205078125,4.578215678521991,6.0905637767553324,0.07842545720287598
1761481530137044200,6.928044189453125,4.289076080569624,6.052615446633101,0.5213427087286487
1761481530156987100,6.947987060546875,4.581209599640966,5.3267047260940075,0.03573260856783017
1761481530176929300,6.96792919921875,4.642579137361049,3.1293706229060887,-0.8159752415414899
1761481530196872200,6.9878720703125,3.4273519912227988,-0.5505693512022495,-0.5670057414140552
1761481530216812500,7.0078125,2.1380811192303897,-2.5072955398947,0.040536885310709474
1761481530236755700,7.027755615234375,-0.34916239723861214,-2.5817373251557347,-0.13398555059237405
1761481530256697600,7.047697509765625,-4.923863345637917,-3.984412165749073,-0.6533249384082853
1761481530276640800,7.067640869140625,-6.491415444698929,-6.864895121592283,2.0262851703479883
1761481530296582700,7.087582763671875,-7.353537301191687,-7.998142195919155,0.29320812603291124
1761481530316525800,7.10752587890625,-9.894148250710964,-9.497889755776525,-2.1438889287263154
1761481530336467700,7.1274677734375,-12.046657123744486,-11.253734475684166,-0.8309166439551859
1761481530356410600,7.14741064453125,-13.109479247236251,-10.029287373518944,1.3403525321930647
1761481530376352800,7.167352783203125,-12.680756991070508,-7.033852927371859,0.6001851035688072
1761481530396294700,7.187294677734375,-7.290894090273976,-4.127063563883304,-1.847468672246486
1761481530416237600,7.207237548828125,1.1052502293765545,-1.6209031654983759,-0.9710933956041932
1761481530436179700,7.2271796875,2.959348402765393,2.071490047469735,0.3687962683174759
1761481530456122600,7.24712255859375,1.6998650585323571,5.4872734737128015,1.2113852298878132
1761481530476064800,7.267064697265625,2.1246119813263413,7.026139576515555,0.8281872189912944
1761481530496007700,7.287007568359375,4.759002746044099,7.565873060926794,0.26196612514890727
1761481530515949800,7.30694970703125,7.187272387757897,7.700521769869327,-0.5610276899177581
1761481530535892700,7.326892822265625,8.077744724944234,7.9591697834461925,-0.5453229749813675
1761481530555835000,7.3468349609375,7.787253712382912,8.205314873802662,0.2922436101160012
1761481530575777800,7.36677783203125,8.399747312578558,7.696426024988293,1.3936577136620878
1761481530595720000,7.386719970703125,7.709864183232188,6.547480446270108,1.065732677176222
1761481530615662800,7.406662841796875,5.541400785219669,5.950834403547645,0.5317493903221562
1761481530635604700,7.426604736328125,3.0002602588683365,4.733101119807363,-0.7225532998699694
1761481530655547600,7.446547607421875,1.8330524627506732,1.7178092960238456,0.037365073174447754
1761481530675489800,7.46648974609375,3.1562238507792353,-0.008570259946584701,0.9292116715557873
1761481530695431700,7.486431640625,2.940562161491811,-0.9768424606502055,1.5281171836428344
1761481530715374600,7.50637451171875,0.8112617300882935,-3.0810394304573534,0.006437458302127197
1761481530735316700,7.526316650390625,-2.376553190740943,-6.287338979265093,-2.29457764897421
1761481530755259600,7.546259765625,-4.321743255418538,-7.513545492318272,-0.4471834302034229
1761481530775201800,7.566201904296875,-4.4342222181290385,-7.2543264008551835,3.5514193926572797
1761481530795144700,7.586144775390625,-2.8890204825639723,-6.792262431579828,2.86684109172076
1761481530815086600,7.606086669921875,-5.098942264646292,-7.379350956884026,-0.29506502421228215
1761481530835029500,7.626029541015625,-7.757238513347506,-7.426684954988956,-1.5809559166438876
1761481530854971600,7.6459716796875,-5.40661412911117,-6.807088829311728,-0.26055680634025485
1761481530874914600,7.66591455078125,-1.3186959961801767,-6.507944554695487,1.2830968595325947
1761481530894856700,7.685856689453125,0.10844751523733138,-4.172499034890532,-0.14968274894258937
1761481530914799600,7.705799560546875,2.256044943092763,-1.6798861003428696,-1.2020815411001444
1761481530934741800,7.72574169921875,2.679573430007696,1.2254203311115504,-1.2733574096761644
1761481530954684000,7.745683837890625,1.7704095440939067,3.6310692679554224,-1.617972957265377
1761481530974626800,7.765626708984375,-0.5230108976691961,4.256095601987838,-0.9676642979383469
1761481530994568700,7.785568603515625,-2.619745861032605,4.922231945043802,-0.0726779402265558
1761481531014511900,7.805511962890625,-1.19988899949193,6.201524736118317,-0.041922352886316364
1761481531034453500,7.82545361328125,2.0030641614973543,7.626638787534833,-0.10866498477975838
1761481531054396700,7.845396728515625,5.011467394810914,8.608487678170203,0.5266597025003283
1761481531074338600,7.865338623046875,5.994715630850195,7.386526547601819,0.8595806475773453
1761481531094281700,7.88528173828125,4.543161316275596,6.546216125422716,0.3538502627938986
1761481531114223600,7.9052236328125,1.4756693496555089,6.308298765185475,-0.8588805364839732
1761481531134166800,7.925166748046875,-0.47232583557069296,5.872601993831992,-1.515421806590259
1761481531154108700,7.945108642578125,1.3500263694673775,4.558069547072052,-1.0927358349140732
1761481531174051800,7.9650517578125,2.854324139975011,4.579034009167552,-1.5048068890735506
1761481531193993700,7.98499365234375,0.8331012214526533,2.971011952552199,0.3553465292336419
1761481531213937000,8.00493701171875,-0.6353238561630249,0.7037427278727293,1.3878583797335624
1761481531233878500,8.02487841796875,-0.9624369186788797,-1.4731506448328495,0.5268699842501431
1761481531253821700,8.04482177734375,-1.8092931092396378,-3.536519345167279,2.097230637925863
1761481531273763600,8.064763671875,-2.7016461456060408,-4.120215305423736,5.1890486520290375
1761481531293705700,8.084705810546875,-0.641342093539238,-6.9902002481281755,6.269072085690498
1761481531313648600,8.104648681640626,-0.7499176190704107,-9.776709619766473,2.5571815605700015
1761481531333590800,8.1245908203125,-5.942828791746496,-12.030445993655919,-0.7426989198632538
1761481531353533700,8.14453369140625,-11.067288359487057,-13.679226761639118,-1.7347228752933441
1761481531373475600,8.1644755859375,-11.396350802505015,-11.122683498972654,-2.634589209899306
1761481531393418500,8.18441845703125,-6.976393256571889,-7.064882271885871,-0.5553905242810026
1761481531413360600,8.204360595703125,-2.8694343230843544,-3.599081307542324,2.2773411213606596
1761481531433303600,8.224303466796876,0.5530535692334175,-0.8435621174514293,2.817662634792924
1761481531453245700,8.24424560546875,1.9429846635878085,0.26886779429614543,-0.4042833228927105
1761481531473188600,8.264188720703125,1.6605951244175434,1.4923364068180323,-3.155901486957073
1761481531493130800,8.284130859375,0.5627975491344929,4.123047898501158,-3.3825252997636794
1761481531513073700,8.30407373046875,1.3582318877547979,6.407628907987475,-2.065070974207669
1761481531533015800,8.324015869140625,3.144102912613749,8.272809616404771,-0.6335612304046749
1761481531552958700,8.343958740234376,5.03495582242608,9.154321233022213,0.3669778937838971
1761481531572900900,8.36390087890625,6.819875245648622,9.453820896947382,0.09996191963320597
1761481531592842500,8.383842529296874,6.981686102283001,8.866243711343406,-0.29872184795308854
1761481531612785700,8.40378564453125,5.905346910092234,8.073493497240543,-0.6058384531553834
1761481531632727600,8.4237275390625,4.742538225716352,7.340873049929738,-0.6869315860643983
1761481531652670700,8.443670654296875,3.653807461725175,6.47619566373527,-0.5743582596013322
1761481531672612600,8.463612548828126,2.64215409219563,4.50141476291418,0.38266825140137223
1761481531692555800,8.4835556640625,0.7092033313661813,1.8895020797252653,0.6461831038296222
1761481531712497700,8.50349755859375,-1.1564373957782983,-1.1893044771134853,0.41125228512249884
1761481531732440800,8.52344091796875,-0.29180326420366764,-4.279847648975253,-1.1639590234547852
1761481531752382700,8.5433828125,-0.9896469971656798,-5.568177732986212,-1.8580983489409089
1761481531772325600,8.56332568359375,-5.051011469691992,-5.260031236746907,1.9597814846098423
1761481531792267500,8.583267578125,-5.093583367961645,-5.059244460508227,5.489951168489456
1761481531812210400,8.60321044921875,-2.5396181390896437,-6.002034429430961,3.2732577003151175
1761481531832152600,8.623152587890624,-1.7190256860762834,-7.982456551009416,-0.3966598057443276
1761481531852094700,8.6430947265625,-4.595983974924684,-8.458245678776501,-0.43801823657099154
1761481531872037600,8.66303759765625,-6.192017487582564,-7.381011583572626,1.7168083022877574
1761481531891979800,8.682979736328125,-5.624194803762435,-6.196764974370598,3.3594866617426273
1761481531911922700,8.702922607421876,-5.4807776819527145,-5.167951503464579,1.6898219495542346
1761481531931864800,8.72286474609375,-3.3563907415539025,-3.3737907891660925,-1.1112965238034724
1761481531951807700,8.742807861328124,1.174106907981634,-0.9616033904641866,-2.185184961841255
1761481531971750000,8.76275,5.8257905582964415,1.084722989654541,-1.2982188792102038
1761481531991692800,8.78269287109375,6.9040458132416,3.4386914236217736,1.009979006576538
1761481532011634700,8.802634765625,4.756479072785377,5.346548659726977,1.5659202600754796
1761481532031577600,8.82257763671875,2.8415204802423712,6.505292578881979,0.34686851414777337
1761481532051519700,8.842519775390626,2.95950330106616,5.432114481070637,0.08302574493940919
1761481532071461600,8.862461669921874,4.150901535588503,5.047840438440442,-0.6818020411562175
1761481532091403800,8.88240380859375,5.053772166576981,5.543065503561496,-1.3126874034151435
1761481532111346700,8.9023466796875,4.364548962444067,5.668603854331374,-1.034700921509415
1761481532131288800,8.922288818359375,4.210202450340986,5.122523631241918,-0.12099135499000549
1761481532151231700,8.942231689453125,3.7268776663720606,5.037150702121854,-0.8122747795883566
1761481532171173600,8.962173583984375,2.7523551731020213,4.473165404507518,-1.6722341242849825
1761481532191116500,8.982116455078126,1.665811982282996,2.365532030510902,-1.3376616856738923
1761481532211058700,9.00205859375,1.2526058596789835,-0.2644493933320045,-0.4250056467954069
1761481532231001900,9.022001953125,1.6570628586381673,-1.9780331806153058,0.27254436391703785
1761481532250944000,9.041944091796875,0.328526436445117,-2.8303713097184895,1.6843468791440128
1761481532270887000,9.061886962890625,-1.926027099046111,-5.525331109428405,6.118692139130831
1761481532290829000,9.0818291015625,-5.394980974462628,-8.371765080675482,6.501751545274257
1761481532310772000,9.10177197265625,-6.00908668603003,-10.356593912780284,0.9281616510462015
1761481532330713900,9.1217138671875,-6.06374941958785,-10.688432834774256,-2.6219100533291697
1761481532350655700,9.14165576171875,-7.12212216245532,-10.89963579108715,-2.2749127251699566
1761481532370599000,9.161598876953125,-8.02088594264686,-8.472842943927645,-2.143748351211846
1761481532390540800,9.181540771484375,-6.8029673654675475,-5.168944021633267,-1.6814412208303808
1761481532410483700,9.201483642578125,-3.573155423647165,-2.9739439143508672,-0.27552579088062046
1761481532430425900,9.22142578125,-0.057628597626090045,-0.4127472729206085,-0.027625892746075985
1761481532450368800,9.24136865234375,3.038988341191411,1.4772294385790825,-0.5860431079044938
1761481532470311000,9.261310791015624,5.0990977474689485,2.9999937168866393,-1.4653841024845837
1761481532490253800,9.28125390625,5.978001227414608,4.737665066722035,-1.56727620472908
1761481532510195700,9.30119580078125,5.200159828630089,6.262154853647947,-0.05346793428268283
1761481532530138600,9.321138671875,3.236559662514925,7.839058133900165,0.31162290364559736
1761481532550080800,9.341080810546876,2.4356086062997577,8.346431901976466,-0.5117240357076749
1761481532570023700,9.361023681640624,3.938251303076744,7.91115131020844,0.016300233144126833
1761481532589965800,9.3809658203125,5.374906739205121,6.220269184076786,1.0495825565598904
1761481532609908700,9.40090869140625,5.191641006609797,4.603389282745122,0.2875162345342338
1761481532629851000,9.420850830078125,2.0848539714336396,3.9978427252084012,-1.1269904250849039
1761481532649793800,9.440793701171875,0.288880070233345,3.8935307023406027,-1.3359201027035712
1761481532669736000,9.46073583984375,0.27531857787072656,3.291298968440294,-0.8760384459033608
1761481532689677800,9.480677734375,-0.056905544048547745,1.1751911960870027,-0.2951034747928381
1761481532709621000,9.50062109375,-2.0398861179381607,-1.578718220719695,-0.02055544290319085
1761481532729563000,9.52056298828125,-1.7557172941356896,-2.0589877087712285,-0.9959053269080818
1761481532749505800,9.540505859375,0.31849370273053645,-1.2118243519574403,-2.09496634625569
1761481532769447700,9.56044775390625,-2.05206580055356,-1.03392219222188,-1.1530403737511485
1761481532789390800,9.580390869140626,-5.198544794648885,-1.9495219564020632,2.108157982392609
1761481532809332700,9.600332763671876,-2.9494986244022843,-3.693873806914687,3.264301948182285
1761481532829276000,9.62027587890625,2.7797920460820196,-4.485177913862467,-0.46302068547829983
1761481532849217800,9.6402177734375,2.1735610134124754,-5.243386975938082,0.6955766648128628
1761481532869161000,9.660160888671875,-3.932472719675302,-3.6658091574251648,2.0669110491164027
1761481532889102800,9.680102783203125,-8.068868760049343,-2.603564541560411,0.8349071748960762
1761481532909046000,9.7000458984375,-7.9757550075441594,-2.042327081349492,-1.0137257918894291
1761481532928987600,9.719987548828126,-3.9059354258835315,-1.7138690339654683,-1.9573674092054365
1761481532948930800,9.739930908203124,0.8272650626450777,-0.6822019271939993,-1.5506468492284415
1761481532968872700,9.759872802734375,2.1608529230087994,0.5872352402985096,-0.2103001622542739
1761481532988816000,9.77981591796875,1.5146476073473691,2.573967860198021,0.4851037763401866
1761481533008757800,9.7997578125,0.6487877333700657,3.2317543080598115,0.1633323671132326
1761481533028700000,9.819699951171875,0.7448989141255616,2.7516268588274717,-1.168465394963324
1761481533048642800,9.839642822265626,0.8401432489186524,2.174412077283859,-1.63781104567945
1761481533068585000,9.8595849609375,1.4684136794388294,2.3423832101136446,-0.5032875216759741
1761481533088528000,9.87952783203125,1.9885294401884077,2.5846903297424313,0.6441523286543787
1761481533108469800,9.8994697265625,2.3053718685805795,2.363706568649411,0.7014256831020116
1761481533128412700,9.91941259765625,2.1062468880742786,1.2456085481375454,-0.0693619977787137
1761481533148354800,9.939354736328125,0.833165226599574,-0.12572481325268745,-1.203120821020007
1761481533168297700,9.959297607421876,-0.24985154365897178,-0.6726186908125877,-1.190235620483756
1761481533188240000,9.979239990234374,-0.4328098177403211,-0.5634212339907885,0.7614560811728238
1761481533208182800,9.999182861328125,1.053651559564471,0.5299585248500108,1.2785861041098832
