time,seconds_elapsed,z,y,x
1761481593430653000,0.07465283203125,0.1438514215737581,-0.13155191197097302,-0.13915559190772472
1761481593450595800,0.094595947265625,0.1748047782421112,-0.08103869930803775,-0.3846147458266467
1761481593470538800,0.114538818359375,0.4195844254642725,-0.07928980981409549,-0.43327765444777905
1761481593490482000,0.13448193359375,0.4966612354040146,-0.0037467853128910064,-0.24523025880018248
1761481593510424800,0.1544248046875,0.21932196536064147,0.10478840820789337,0.04735270280539989
1761481593530367700,0.17436767578125,-0.15779051507711409,0.1553156493961811,-0.04087579840887338
1761481593550311000,0.194310791015625,-0.20679683030843735,0.22869769647121427,-0.03889984042709693
1761481593570253800,0.21425390625,0.11943477319777011,0.1519651699244976,-0.05918410170609131
1761481593590196700,0.23419677734375,0.11304068824648857,0.040569910797476766,0.08038534083268604
1761481593610140000,0.254139892578125,-0.09323533305823803,-0.049451720911264416,0.19562588634416458
1761481593630082800,0.274082763671875,-0.17558160783350465,0.048531098935008045,0.2684387917617336
1761481593650025700,0.294025634765625,-0.07243862874507903,0.22804829265177248,0.1996960218599066
1761481593669969000,0.313968994140625,-0.013495441389083861,0.4980968211650848,0.05583399669374339
1761481593689911800,0.333911865234375,0.002503507253527641,0.22421090644598005,0.1626668524092063
1761481593709854700,0.353854736328125,-0.2238426576554775,-0.16500351519584655,0.16388629293525592
1761481593729798000,0.3737978515625,-0.31251462832093235,-0.0651379503428936,0.19282626395458355
1761481593749739500,0.393739501953125,-0.14229367073774338,0.18109248020946977,0.22828988285530358
1761481593769682700,0.4136826171875,-0.07264671853780746,0.19619944844841955,0.20441598132019861
1761481593789625600,0.43362548828125,0.1746644929885864,-0.17983049744963645,-0.1130672474598512
1761481593809568800,0.45356884765625,0.2867635164707899,-0.493532874250412,-0.09889799846243112
1761481593829511700,0.47351171875,-0.1643605411171913,-0.23677228185534477,-0.3630769773552194
1761481593849454600,0.49345458984375,-0.8403764731526374,0.08556114516854285,-0.46817839703503994
1761481593869397800,0.513397705078125,-1.0293623369604348,0.27796295489966866,-0.30984314408935604
1761481593889340700,0.533340576171875,-0.8393243337512016,0.3772024968087673,0.20747418158072978
1761481593909283600,0.55328369140625,-0.4817015666812658,0.567832620692253,0.5174790555704385
1761481593929226800,0.573226806640625,-0.11643559138178824,0.5765373206734657,0.35818361582309005
1761481593949169700,0.593169677734375,0.08635492589473724,0.3195861741423607,-0.05187376042641699
1761481593969112600,0.613112548828125,0.12727613434791565,0.09924129547476768,-0.06091741003841161
1761481593989055700,0.6330556640625,0.38744215127229686,-0.1692360381990671,-0.057150239524617785
1761481594008998700,0.65299853515625,0.6976040789872407,-0.05138590384423732,-0.16592326038926838
1761481594028941800,0.67294189453125,0.8081243088454008,0.15779168412089348,-0.12062106037288904
1761481594048883700,0.6928837890625,0.5094865224465728,0.06018412732779979,0.05034326292350888
1761481594068826600,0.71282666015625,0.15793606102764607,0.18353110553324223,0.11603080997318028
1761481594088769800,0.732769775390625,0.35498306621611114,0.2705103008061647,0.4684907874524593
1761481594108712700,0.752712646484375,0.4960080321922898,0.30622341922223567,0.573435263004899
1761481594128655600,0.772655517578125,0.776265820030868,0.20718729093074797,0.5841903927098959
1761481594148598800,0.792598876953125,1.210717267498374,0.031125206103920933,0.44048919326178726
1761481594168541700,0.812541748046875,0.9583654314562677,-0.06996434758603573,0.3419892176736146
1761481594188484600,0.832484619140625,0.21376725384294987,0.08201952703893184,0.14320567101612686
1761481594208427800,0.852427734375,-0.29124095414578915,0.10628069259226322,0.05504530313462019
1761481594228370700,0.87237060546875,-0.688873660042882,-0.04636135368049144,-0.04725994648803025
1761481594248313600,0.892313720703125,-0.6071031393289565,0.0802525173664093,-0.23304277647081761
1761481594268256800,0.9122568359375,-0.4292898269206285,-0.12632979340851305,-0.23632424582689998
1761481594288199400,0.932199462890625,-0.33100188664793967,0.07434767723679542,-0.38934031304381783
1761481594308142600,0.952142578125,-0.15551906301379204,0.11891571775972842,-0.3363542805265635
1761481594328085800,0.972085693359375,-0.11933365091085434,0.01094575690627098,-0.3418810811240226
1761481594348028700,0.992028564453125,-0.2634323252439499,-0.34564942068159576,-0.1066103446717374
1761481594367970600,1.011970458984375,0.052801031339168546,-0.10422200649678706,-0.2922710826448165
1761481594387913500,1.03191357421875,0.24608839173316954,0.005603226834535599,-0.2618688753195107
1761481594407856400,1.0518564453125,0.2950467761695385,-0.14766718046963215,0.0031319778827950356
1761481594427799600,1.071799560546875,0.27647417764663695,-0.24868483796715735,0.11353749532010406
1761481594447742500,1.091742431640625,0.18641513653695582,-0.23417115944623945,-0.13803517304304985
1761481594467685400,1.111685302734375,0.15089549486637113,-0.11084873116016387,-0.35533553291559217
1761481594487628500,1.131628662109375,0.06642799015343188,-0.041626141852140426,-0.19734047170970587
1761481594507571500,1.151571533203125,-0.0688414810359478,-0.004285714495182037,-0.09765212658718228
1761481594527514400,1.171514404296875,-0.04417757990062236,0.07597907783091068,-0.09887385040186344
1761481594547457500,1.19145751953125,-0.08810089277923107,0.0619049597710371,-0.11874156676921993
1761481594567400400,1.211400390625,-0.07988251501023769,0.07336451141834259,-0.042608467420376835
1761481594587343400,1.23134326171875,0.008708207112550735,0.16357319013178348,0.04388992206566036
1761481594607286500,1.25128662109375,-0.2012479640096426,0.08314064002335071,0.17787125314064323
1761481594627229400,1.2712294921875,-0.18896423649787902,0.11439677903056145,0.04562562328446656
1761481594647172400,1.29117236328125,-0.12756021198630332,0.08912906678318977,-0.075863086768426
1761481594667115500,1.311115478515625,0.0012526304095983505,0.06047521922886371,-0.2964908740306273
1761481594687058400,1.331058349609375,0.08748363766372204,0.07265548636615275,-0.3332345045382157
1761481594707000600,1.35100048828125,0.17366145342588424,0.10409458072483539,-0.09510554737690835
1761481594726943500,1.370943603515625,-0.08178045758605003,0.05794131683707237,-0.008604491009749471
1761481594746886400,1.390886474609375,-0.17092004576325415,0.06253975054323672,-0.06339052215367555
1761481594766829600,1.41082958984375,-0.18433599217534063,0.013811667731404303,-0.182830957907252
1761481594786772500,1.4307724609375,0.00826397047638893,0.09543138179779052,-0.23071539296917615
1761481594806715400,1.45071533203125,0.13566168537735937,0.05996025544404983,-0.07334354169555007
1761481594826658600,1.470658447265625,0.19507541285455227,-0.003122515934705734,0.006364164737053215
1761481594846601500,1.4906015625,0.21726211022138595,-0.06458616167902946,-0.025950031955726444
1761481594866544400,1.51054443359375,0.19415245279073715,-0.0504980150938034,-0.11996990298777818
1761481594886487600,1.530487548828125,0.25845336778759953,-0.05116086291670799,-0.2175595587980002
1761481594906430500,1.550430419921875,0.15270692820250986,-0.06561608924865722,-0.07839848699755966
1761481594926373400,1.570373291015625,-0.048480245530605315,0.0521060348123312,-0.0030357144340872762
1761481594946316500,1.590316650390625,-0.07616027961671352,0.0976239234060049,0.1846118499746546
1761481594966259500,1.610259521484375,0.17230945429503916,0.029315526333451268,0.248806016661413
1761481594986202400,1.630202392578125,0.2828296841531992,-0.1383621765077114,0.18215402676006778
1761481595006145500,1.6501455078125,0.4033879084229469,-0.39971243478059765,0.20429915000749752
1761481595026088400,1.67008837890625,0.5917863277316093,-0.14406360301971435,-0.22075974307879803
1761481595046030600,1.690030517578125,0.4248644116938114,0.31943010679781436,-0.9213008984312414
1761481595065973500,1.709973388671875,-0.06506722319424152,-0.6095166302114725,0.2132728213895112
1761481595085916400,1.72991650390625,-0.05812661027610302,-0.04708148464858532,-0.0380783497100696
1761481595105859600,1.749859619140625,-0.14178572121560573,-0.04317161772847175,0.16623230807213113
1761481595125802500,1.769802490234375,-0.18793547797203064,-0.12647709292471407,0.1883039094256237
1761481595145745400,1.789745361328125,-0.2764268313735723,-0.01737666673660278,-0.07703167389007284
1761481595165688600,1.8096884765625,-0.2989531359583139,0.08615268132090569,-0.12567664499571546
1761481595185631500,1.829631591796875,-0.37519349507391453,0.1317792909860611,0.014755542719084769
1761481595205574400,1.849574462890625,-0.43490883584618567,0.11574176389873027,0.06306790260318666
1761481595225517600,1.869517578125,-0.30252807183563707,0.030397476351261138,0.042672655230388046
1761481595245460500,1.88946044921875,-0.08988952976167201,0.011389409020543098,-0.1329838444702327
1761481595265403400,1.9094033203125,0.1553980669826269,0.08339607608914375,-0.2780333715210669
1761481595285346800,1.929346923828125,0.3778998314231634,-0.06962590941190719,-0.11594210877642035
1761481595305289700,1.949289794921875,0.391388258549571,-0.1678641653239727,0.02079246652945876
1761481595325232600,1.969232666015625,0.4041454487919807,-0.007901566904783249,0.02469029595190659
1761481595345175800,1.98917578125,0.3133621850609779,0.04929916069805622,0.03848230913477018
1761481595365118700,2.00911865234375,0.26534488086700436,0.022817981007695196,-0.060531936118472365
1761481595385061600,2.0290615234375,0.1358569156885147,-0.04281973555088043,-0.2061256165159866
1761481595405004800,2.0490048828125,0.05841185695827007,0.09382043946981429,-0.24178890444096177
1761481595424946700,2.06894677734375,-0.0991927801579237,0.19927987880706785,0.026928777327388524
1761481595444889900,2.088889892578125,-0.07200140637159347,0.3133510791450739,0.25184870882555843
1761481595464832800,2.108832763671875,0.03442366312742233,0.1637508847862482,0.17780469071045518
1761481595484775700,2.128775634765625,0.06782733555734158,-0.014703648135066031,-0.12851206935103981
1761481595504718800,2.14871875,0.20863982782661913,0.020005261674523354,-0.2083738155678846
1761481595524661800,2.168661865234375,0.25454525443315507,0.004570376655459404,-0.012445201683789492
1761481595544604700,2.188604736328125,0.21006606123745442,-0.0724491501390934,0.16274598206002264
1761481595564547800,2.2085478515625,0.16292495535612106,-0.05177168829143047,0.011842249088268727
1761481595584490800,2.22849072265625,0.022107786911725998,0.0014133739292621612,-0.15222025893041863
1761481595604433700,2.24843359375,-0.1606745460808277,0.04093231436908245,-0.03212484813313931
1761481595624376800,2.268376953125,-0.14365794482827185,0.042079730838537215,0.18885715939421205
1761481595644319700,2.28831982421875,0.07639350385069847,-0.0351309346139431,0.12069841819172725
1761481595664262700,2.3082626953125,0.30940380282402036,-0.0967179144769907,0.011212974741403012
1761481595684205800,2.328205810546875,0.3524111699014902,-0.13720365412235258,-0.0257691406971775
1761481595704148700,2.348148681640625,0.2411579495936632,-0.1257008478552103,0.0015859540171921252
1761481595724091600,2.368091552734375,0.1685784510731697,-0.1554459977775812,0.24858008068474008
1761481595744034800,2.388034912109375,0.17270283752679824,0.11389175211787222,0.258936639526207
1761481595763977700,2.407977783203125,0.1867816317617893,0.41070086178481574,0.205419093948137
1761481595783920600,2.427920654296875,-0.22290508454442023,0.3427729884624481,0.272015554269962
1761481595803863800,2.44786376953125,-0.7197025135487317,0.33675767369568343,0.019597338460758326
1761481595823805700,2.4678056640625,-0.25584406207203864,0.8108370749354362,0.00683642189130187
1761481595843748900,2.487748779296875,0.99956867172122,1.4852327122926712,0.05432111704591661
1761481595863691800,2.50769189453125,1.3235691551744937,1.7879542608737944,-0.44892340573854744
1761481595883634700,2.527634765625,2.144156055229902,2.917349920469522,-0.7847998396202921
1761481595903577900,2.547577880859375,2.631016027587652,3.7730291766941546,-1.0763606733702122
1761481595923520800,2.567520751953125,2.782669647344947,4.417003956824541,-0.7199972587116062
1761481595943463700,2.587463623046875,2.543813544952869,5.250135865676403,0.14815216924129054
1761481595963406800,2.60740673828125,2.4444904164135455,5.912815346276759,0.7637211034953594
1761481595983349800,2.627349853515625,1.35177525896132,4.636918042859435,1.7219484416551887
1761481596003292700,2.647292724609375,0.027532734569907187,2.1015549308657646,1.5351786464616655
1761481596023235800,2.66723583984375,-0.8949132422432303,-0.05332710103988647,1.3449573956400156
1761481596043178800,2.6871787109375,-3.1608506337970494,-4.362575032022595,0.9695328682892024
1761481596063122000,2.707121826171875,-5.991071721389889,-6.813162596267461,0.2818367275930941
1761481596083064800,2.72706494140625,-7.30328887694478,-6.548463027566671,-1.0618144077539444
1761481596103007700,2.7470078125,-7.877202278855442,-6.27947599080503,-0.9693425333488732
1761481596122951000,2.766950927734375,-6.273636032605171,-6.871934518709779,-0.08452303429245948
1761481596142893800,2.786893798828125,-3.7955905525922775,-8.341900103765726,0.70419354038015
1761481596162836700,2.806836669921875,-2.0179165704533455,-9.589781857532262,0.5395990443766117
1761481596182780000,2.82677978515625,-1.6206833852678537,-8.179333460327982,-0.8598888367436825
1761481596202722800,2.846722900390625,-0.9892004224419593,-5.699392375826835,-0.6955467080660164
1761481596222665700,2.866665771484375,-0.7593173155784606,-3.1239667180359363,0.2818878549921326
1761481596242609000,2.88660888671875,-0.728426502752304,-0.6753028153300284,-0.713085871887952
1761481596262550800,2.90655078125,0.712747287583351,0.6965151147067546,-2.3847296290643514
1761481596282494000,2.926493896484375,2.6328020342215894,2.1637831312417983,-3.0586516575604676
1761481596302437000,2.94643701171875,3.272420080447197,3.811917418015003,-2.5478879547849296
1761481596322380000,2.966380126953125,3.9184453633666037,5.6134355093389745,-2.1444272733867167
1761481596342323000,2.986322998046875,4.51053505795896,6.773461284998059,-1.8625863080099223
1761481596362266000,3.00626611328125,5.60475360571146,7.935776632899046,-1.821690380128473
1761481596382209000,3.026208984375,6.018302842664719,8.18696556264162,-1.432772164954245
1761481596402152000,3.04615185546875,5.6623617450714105,8.320590773755312,-0.4470189603567123
1761481596422095000,3.06609521484375,5.162275211393833,8.643605168780685,0.8081471782643348
1761481596442038000,3.0860380859375,4.608095853000879,8.327782146564125,1.4710595177724957
1761481596461981200,3.105981201171875,4.203705781798065,7.201258827534318,1.4074392785161733
1761481596481924000,3.125924072265625,3.1162223875194788,5.60684210242331,1.1737057067696004
1761481596501867000,3.145866943359375,1.513301161174476,2.341405304992199,2.629395440648496
1761481596521810200,3.16581005859375,1.6299164930373429,-0.6718406921774148,2.3260227346822617
1761481596541753000,3.185753173828125,0.46050008095949885,-3.51467868475914,0.4229325303157791
1761481596561696000,3.205696044921875,-6.623140959671139,-7.167028641152381,-2.0027076031446454
1761481596581639200,3.22563916015625,-11.165901878452301,-7.840384414067864,-2.7000425098016856
1761481596601582000,3.24558203125,-6.215983469581603,-9.928455009460448,2.480403441315889
1761481596621525000,3.26552490234375,-3.871928234602511,-10.837298869639634,2.34760445189327
1761481596641468200,3.28546826171875,-9.163393012750149,-10.382932469129562,-2.1400153021633623
1761481596661411000,3.3054111328125,-11.543961284351349,-9.840395617735386,-2.0549521696448325
1761481596681354000,3.32535400390625,-8.073919029176235,-8.595038998532294,1.3838167031273245
1761481596701297200,3.345297119140625,-2.786773575532436,-6.09233896973431,1.105498578114435
1761481596721239000,3.365239013671875,1.8620421181306241,-4.239440235263109,-0.5090868190718815
1761481596741182200,3.38518212890625,5.598661718577146,-2.4899533599495887,-0.646400984364003
1761481596761125000,3.405125,6.333188876292109,1.2405121017813683,-0.1207988737583626
1761481596781068000,3.425068115234375,4.680851000349223,4.879491119948029,0.7603926897250115
1761481596801011200,3.44501123046875,2.9180174444675444,6.6572595023721455,0.1949865655273199
1761481596820954000,3.4649541015625,3.271218595702946,7.587618444266915,-1.0752638180442153
1761481596840897000,3.48489697265625,3.171204270029068,8.595611829984188,-0.18499728736197574
1761481596860840200,3.504840087890625,1.9482167190223931,10.112443795633315,2.3913617605552075
1761481596880783000,3.524783203125,2.7053414929926394,9.840305601364374,3.571954815685749
1761481596900726000,3.54472607421875,4.737452300754189,9.033065674138069,2.3602603737182912
1761481596920669200,3.564669189453125,5.323335541921853,8.017484025248885,-0.3382535748092457
1761481596940612000,3.584612060546875,4.398326144361496,7.1280346013694995,-1.8157180277206002
1761481596960555000,3.604554931640625,2.724211028635502,6.775973560079932,-0.5919708905182779
1761481596980498200,3.624498291015625,1.3865779845342039,6.262724177968502,1.3744066313557326
1761481597000441000,3.644441162109375,0.5685635653153062,5.05884698562324,2.0855571512669324
1761481597020384000,3.664384033203125,-0.25932430540323254,2.3448861328452826,1.7019249136716126
1761481597040327200,3.6843271484375,-2.270852928385138,-2.357185057926178,1.1432600804276765
1761481597060270000,3.70427001953125,-4.849885086235404,-5.563073687845468,-1.2501361085645855
1761481597080213000,3.724212890625,-7.171976034426689,-6.467375812941789,-3.1265418292209506
1761481597100156200,3.74415625,-7.479663680982589,-7.89440125093758,-1.3628292985476553
1761481597120099000,3.76409912109375,-5.932971414598822,-9.622577627196907,1.1993772505775093
1761481597140042000,3.7840419921875,-4.7793765487700695,-10.324332980644702,1.136564820572734
1761481597159985200,3.803985107421875,-3.5278362724959846,-9.999888260555267,0.6441366196285933
1761481597179928000,3.823927978515625,-4.13673155593872,-9.145311997136472,1.866632368530333
1761481597199871000,3.84387109375,-4.87839835627526,-7.9651015115827315,2.6156498238906263
1761481597219814100,3.863814208984375,-3.340275473055243,-6.089982177475094,2.2461071941852566
1761481597239756000,3.883756103515625,-0.17870383150726557,-3.552222525733709,0.08042418413888662
1761481597259699200,3.90369921875,2.249449490350485,-1.45755793890357,-2.627983820284903
1761481597279642000,3.92364208984375,2.0266829374939204,1.0925240187942982,-4.311420306585729
1761481597299585500,3.94358544921875,1.6733043838649988,4.0093490386068815,-3.2818782291442155
1761481597319528700,3.96352880859375,2.390842120595276,5.602132609558105,-1.9644716882526874
1761481597339471600,3.9834716796875,3.276662832583487,6.5755094399243585,-1.6291557377979158
1761481597359414500,4.00341455078125,4.226864831328392,7.034196626242995,-0.8608267021156847
1761481597379357700,4.023357666015625,4.592148926806449,7.816547026884555,-0.14709277811516075
1761481597399300600,4.043300537109375,4.982222595626116,8.069706379917264,0.03802426316896453
1761481597419243500,4.063243408203125,5.204879258367419,7.70693163691163,-0.1786649973342195
1761481597439186700,4.083186767578125,5.619354962515831,7.234909168201685,-0.8343664921481162
1761481597459129600,4.103129638671875,6.484287200254202,6.29866584444344,-1.737523465797305
1761481597479072500,4.123072509765625,5.476514179289341,5.550427556762099,-1.7292063038289547
1761481597499015700,4.143015625,3.145030256591737,5.443863371053338,-1.0662716794237495
1761481597518958600,4.16295849609375,1.2022063365235924,4.49194200116992,-0.1972242431852035
1761481597538901500,4.182901611328125,1.7339526215732097,0.5366653290122747,0.5943230066023767
1761481597558844700,4.2028447265625,0.8102847017496824,-4.412135474005341,0.4258413304345682
1761481597578787600,4.22278759765625,-4.9722787092387675,-6.551084023720025,-2.267845271001756
1761481597598730500,4.24273046875,-9.423232281938194,-6.78867755883038,-2.8312814103007313
1761481597618673700,4.262673583984375,-9.195494370409845,-8.890907612478733,1.1133400123298167
1761481597638616600,4.282616455078125,-5.5537564089238645,-10.90288105661869,2.4317744349643586
1761481597658559500,4.3025595703125,-4.434591051441431,-11.460711338734626,0.17269933039546012
1761481597678502700,4.322502685546875,-6.2840060354501,-11.393149960637093,-1.323281278143823
1761481597698445600,4.342445556640625,-7.5820450280487535,-10.018986928778887,-0.13906469875387847
1761481597718388500,4.362388427734375,-5.866899982798099,-7.552129197734594,1.940359575781226
1761481597738331600,4.38233154296875,-2.1921771588161585,-5.961263443103432,0.32992863139323886
1761481597758274600,4.402274658203125,1.6664336213126778,-4.217926322591304,-1.8956987424083054
1761481597778217500,4.422217529296875,4.436251678130031,-1.5602467444837091,-1.5008556672297417
1761481597798160600,4.44216064453125,4.887064477811753,1.877322397109866,0.42983105765786017
1761481597818103600,4.462103515625,3.3469977670475837,4.576700597783923,1.37966601318866
1761481597838046500,4.48204638671875,1.7576999923855066,6.204283679437637,0.1202913169618696
1761481597857989600,4.50198974609375,1.5532044247567653,7.546460504448413,-0.6793018218383192
1761481597877932800,4.521932861328125,2.679554433046281,8.394124211999774,0.14477191568585113
1761481597897875700,4.541875732421875,4.0626501284226775,8.511415543428063,1.2756247700862586
1761481597917819000,4.56181884765625,4.677281325168908,8.437382923489809,1.0412531196318566
1761481597937760500,4.581760498046875,4.4182992573320865,7.940007986858487,-0.21502077930169178
1761481597957703700,4.60170361328125,4.081491022492945,7.41520786768496,-1.88008455529958
1761481597977646600,4.621646484375,3.753624803522229,7.134462588590383,-2.515273971427977
1761481597997589500,4.641589599609375,2.784432857625186,7.184449147030711,-1.7718715794704853
1761481598017532700,4.66153271484375,2.1387223397433757,8.18756235949099,-1.2893597193196416
1761481598037475600,4.6814755859375,2.0049153423219916,8.487352530795336,-0.4793813070401549
1761481598057418500,4.70141845703125,0.8369751402765512,7.022099945735931,0.89254746295996
1761481598077361700,4.721361572265625,0.16691723986268042,3.8027813408792017,2.7349241458296776
1761481598097304600,4.7413046875,1.5076374363243579,1.7776970707535742,3.183935741308331
1761481598117247500,4.76124755859375,1.6413944571241736,-2.6966782940655945,2.7179168969273566
1761481598137190700,4.781190673828125,-2.0418536186188456,-7.8753224564582105,0.654444224761799
1761481598157132500,4.801132568359375,-4.043512589493393,-9.040705959758162,-0.2289247466927394
1761481598177075700,4.82107568359375,-4.052668540373444,-10.884987672531604,1.6195276393614708
1761481598197018600,4.8410185546875,-1.5534125145494937,-12.16675766737461,1.6662088726460933
1761481598216961500,4.86096142578125,-2.499561146250367,-13.929444216001032,-0.22986849381625651
1761481598236904700,4.88090478515625,-5.78319644819498,-16.178043811523914,-0.8774211324334144
1761481598256847600,4.90084765625,-10.262628511881827,-14.836054033517836,-0.9624026510830969
1761481598276790500,4.92079052734375,-12.620818947458266,-10.289968938750029,-0.4683083435576409
1761481598296733200,4.940733154296875,-9.871671045964955,-6.314737273800373,-0.2800428664462641
1761481598316676000,4.960676025390625,-2.778081150510907,-3.0880753204435107,-0.2174062313998118
1761481598336619300,4.980619384765625,2.576509361374378,-0.07393091312944888,-0.6197308579728007
1761481598356562200,5.000562255859375,4.650017762929201,2.9924060382366178,-1.2273594824805856
1761481598376505000,5.020505126953125,4.314240332442521,5.413178894454241,-1.6845128833606837
1761481598396448300,5.0404482421875,3.639404550102353,6.880376183840632,-2.243158865773678
1761481598416391200,5.06039111328125,2.527370359674096,7.5473594991147515,-1.9365793265901505
1761481598436334000,5.080333984375,2.041168851225078,8.712624928992986,-1.2663733960077166
1761481598456277200,5.10027734375,3.0630034230291843,9.39062472832203,-0.5387069178424775
1761481598476220400,5.120220458984375,3.992451679819822,9.37859468331039,0.39746783419158305
1761481598496164400,5.140164306640625,4.9298494343101975,8.417361879724263,-0.136484308605548
1761481598516107300,5.160107177734375,4.528156054845452,7.727343141299485,-0.7909620155118405
1761481598536050400,5.180050537109375,3.6426898553833365,7.0644625851690765,-1.0200731150895357
1761481598555993300,5.199993408203125,2.331470186433196,6.234535609838366,-0.7593795671597122
1761481598575936300,5.219936279296875,2.267052367058396,5.12942040501833,-0.0008236644078046083
1761481598595879400,5.23987939453125,2.659914205291867,3.1586253589630124,1.1022348270781337
1761481598615822300,5.259822265625,1.8881927506923675,-0.23896949963867664,2.007809602458775
1761481598635765200,5.27976513671875,-0.46188247522860765,-3.06580854357779,2.166195453080535
1761481598655708400,5.29970849609375,-2.3565438374131915,-3.292043064805865,1.852119712922722
1761481598675651300,5.3196513671875,-2.2657594046384095,-5.032406722465157,2.3073634807892143
1761481598695594200,5.33959423828125,-0.6452315021932125,-7.3724366474509235,1.9352675133392214
1761481598715537400,5.359537353515625,-0.34530689085423943,-8.368593464902043,0.5752255074225365
1761481598735480300,5.379480224609375,-1.5892773163959384,-8.682512114802002,-0.4695619603479281
1761481598755423200,5.39942333984375,-4.60751600728631,-9.298637934020162,1.1427025926753878
1761481598775366400,5.419366455078125,-5.42789481754899,-10.159896451681853,3.19703926077038
1761481598795309300,5.439309326171875,-4.7993189743414515,-9.23964681586921,2.6605326294511555
1761481598815252200,5.459252197265625,-4.737554884345829,-6.979512265375256,1.3460650646209715
1761481598835195400,5.4791953125,-4.000088458308578,-4.154513296344876,-0.2675147722519934
1761481598855138300,5.49913818359375,-1.478914615187049,-1.411913793581724,-0.5569798758316785
1761481598875081200,5.519081298828125,1.580956355035305,1.2103642162770032,-0.5375945361537858
1761481598895024400,5.5390244140625,3.9040754772305486,3.1427877383619545,-0.08631499574314802
1761481598914967300,5.55896728515625,5.104603943669796,4.355649616673588,-0.6883000248733907
1761481598934910200,5.57891015625,4.91539186989069,5.34656210373044,-0.8632154238831251
1761481598954853400,5.598853271484375,4.73347930546999,6.503485237199068,-0.8807777493849396
1761481598974796300,5.61879638671875,4.01556250629425,6.82523121972382,-0.730008949638158
1761481598994739200,5.6387392578125,2.482334117117524,6.752803112372756,-0.4570317472618073
1761481599014682400,5.658682373046875,2.088019741988182,6.638160249626636,0.03638846039436757
1761481599034625300,5.678625244140625,3.1879847244381905,6.215638601666688,0.22252777566462753
1761481599054568200,5.698568115234375,3.800146900722384,5.64250086030364,-0.23980901920273898
1761481599074511400,5.718511474609375,2.6777731025874614,5.006567932331562,-0.5433642055964097
1761481599094454300,5.738454345703125,0.7855898209542036,3.5965438980191946,-0.9186872818667441
1761481599114397200,5.758397216796875,-1.4816922632068394,1.860738926577568,-1.0316625036615878
1761481599134340400,5.77834033203125,-1.54866385871768,-0.8859311866253614,0.256319004373718
1761481599154283300,5.798283203125,-1.0831734221249818,-4.792754501259327,1.6706304884806273
1761481599174226200,5.81822607421875,-2.368338904625177,-7.9449711622238155,1.3162469955928624
1761481599194169300,5.83816943359375,-6.391523576360941,-10.116289949667452,0.23497856683898716
1761481599214112300,5.8581123046875,-8.947584023946524,-11.275876164865494,-0.596190115648508
1761481599234055200,5.87805517578125,-8.596532451960444,-10.57760397735834,-0.9321832347124814
1761481599253998300,5.897998291015625,-5.459902067184448,-8.469200788033008,-1.3046831067882478
1761481599273941200,5.917941162109375,-2.1927537896603346,-6.629502311396599,-1.069018786174804
1761481599293884000,5.9378837890625,-3.164071641670167,-5.320429883608222,-1.2883197087474167
1761481599313826800,5.957826904296875,-5.329621490323543,-3.684399291604757,-1.40399951332584
1761481599333769700,5.977769775390625,-4.585716555671394,-1.4773258846908808,-1.084437085385248
1761481599353713000,5.997712890625,-0.17975246377736329,0.2465431497633457,-1.5419760515168308
1761481599373655800,6.01765576171875,4.315551707302034,1.373286249023676,-1.9610950514264405
1761481599393598700,6.0375986328125,6.07059475543797,3.139213387006521,-0.8465874566219747
1761481599413542000,6.0575419921875,6.537756924635172,6.4333747591406105,-0.31890703277178106
1761481599433484800,6.07748486328125,4.14835185110569,7.522241424471139,0.5690211728896946
1761481599453427700,6.097427734375,2.9721204983159897,8.229616371366381,-0.9603032676510512
1761481599473371000,6.117370849609375,3.725015379631519,7.134540914523601,-2.7234090646028517
1761481599493313800,6.137313720703125,3.8811657262861727,7.103795647647977,-2.182301807620376
1761481599513256700,6.157256591796875,4.754074934253096,7.240258712536096,-0.5315215363830328
1761481599533200000,6.177199951171875,6.172617790585756,8.180389691382645,0.6005807518228888
1761481599553142800,6.197142822265625,6.175504159677028,7.974139973562956,0.2932654457107186
1761481599573085700,6.217085693359375,4.496858122523129,6.790734491360187,-1.1603570534400642
1761481599593028900,6.23702880859375,1.1857470768928526,5.178150241395831,-1.6518351871177552
1761481599612971800,6.2569716796875,-0.3746194945782423,4.837570963585376,-2.0382085401147605
1761481599632914700,6.276914794921875,1.3450477042719722,4.0815994513034815,-1.07374194223918
1761481599652857900,6.29685791015625,2.9242388032004234,1.3373241242825984,1.2353409827537833
1761481599672800800,6.31680078125,2.512349608413875,-2.5653110910117625,1.6727046644061803
1761481599692743700,6.33674365234375,-2.514535135759413,-4.9192508834064,-0.7102785593822598
1761481599712686800,6.356686767578125,-7.5513324943989515,-5.978785071268677,-2.4692028328657147
1761481599732629800,6.376629638671875,-8.857538426840305,-6.265036546564102,-1.1356762011699377
1761481599752572700,6.39657275390625,-5.831268697446585,-9.210791308262944,2.597360718484223
1761481599772515800,6.416515869140625,-0.9207488175064324,-10.054994646227359,1.489747851629555
1761481599792458800,6.436458740234375,1.0932724990740417,-10.262686964070797,-0.8817927716463804
1761481599812401700,6.456401611328125,-1.4831471381902694,-10.835120941078662,-0.7915579355783761
1761481599832344800,6.4763447265625,-3.6371862895309923,-10.178152239340543,0.5448309536807239
1761481599852287700,6.496287841796875,-3.8675115872040386,-6.7944315923124545,0.856717147905007
1761481599872230700,6.516230712890625,-1.5789318634703755,-4.562873732483387,1.3518246510609984
1761481599892173800,6.536173828125,1.4550594000861048,-2.5156027649909256,0.6565154050126671
1761481599912116700,6.55611669921875,2.8557702471300956,-0.023739772027730942,-0.11832715901574119
1761481599932059600,6.5760595703125,2.7039631903767583,2.41443663893342,-0.35136392587088044
1761481599952002800,6.5960029296875,2.1429379116117953,4.690923189291357,-0.621647870575264
1761481599971945700,6.61594580078125,1.8108023447588084,6.591673223739862,-0.8505369979653506
1761481599991888600,6.635888671875,2.21494662450701,7.535324777927994,-1.0030443850077688
1761481600011831800,6.655831787109375,2.563845986895263,8.290166409397125,-1.547210445038974
1761481600031774700,6.675774658203125,2.5846494132101534,8.80570010305345,-0.8170135716132819
1761481600051717600,6.695717529296875,2.4215830035567283,9.39088425604105,-0.12543850712459534
1761481600071660800,6.715660888671875,2.6190289449349042,9.364297277888655,-0.7843516574613749
1761481600091603700,6.735603759765625,3.197285636746883,8.00022426289022,-2.558079093931615
1761481600111547000,6.755546875,3.1555145334661003,6.805783591932058,-3.200168790967762
1761481600131489800,6.77548974609375,1.0300815911456942,6.385229444652795,-1.2712180595599114
1761481600151432700,6.7954326171875,-0.08521861534118652,6.050714581447839,0.5599162946097552
1761481600171375900,6.8153759765625,0.4491244082033634,4.201374416241049,0.622731574158743
1761481600191318800,6.83531884765625,0.002300385896861553,0.9821925895065069,-0.5651472905984148
1761481600211261700,6.85526171875,-0.6231137784093618,-3.358562824895978,-1.106679677657783
1761481600231204900,6.875204833984375,-0.8687707929879427,-6.221831611087918,-0.8563928843867034
1761481600251147800,6.895147705078125,-2.932408373391628,-7.202716040605306,-0.947236061611399
1761481600271090700,6.915090576171875,-4.28960624192357,-8.243246252790094,-0.9278610606644302
1761481600291034000,6.9350341796875,-2.637961901202798,-10.109137739825249,0.7834703445822
1761481600310977300,6.954977294921875,-0.4240367286980152,-10.856291154879331,0.5651581407859921
1761481600330920200,6.974920166015625,-2.907469454707205,-9.820103355813027,0.09678313433346337
1761481600350863000,6.994863037109375,-6.8976096427142615,-9.365285119882225,1.5834619081154464
1761481600370806300,7.01480615234375,-8.063680543756485,-9.096412064889073,1.970522074332833
1761481600390749200,7.034749267578125,-4.741179796844721,-7.689376690998673,0.3391233799137175
1761481600410692000,7.054692138671875,0.5066600668489932,-5.88769376450181,-2.6106433939054607
1761481600430635300,7.07463525390625,3.7218197984606025,-3.8465082544028757,-3.5644279273122548
1761481600450578200,7.094578125,3.6812814518451686,-0.28049977990090846,-2.1046043815642594
1761481600470521000,7.11452099609375,2.203141328161955,2.6675948229223487,0.20252655084440482
1761481600490464300,7.13446435546875,0.1881067428857088,4.829495209157467,0.6702462625928223
1761481600510407200,7.1544072265625,-0.39164778626859187,5.764331588727235,-0.2030532233333215
1761481600530350300,7.174350341796875,0.9446893728032708,5.94299128883183,-0.7342525054920465
1761481600550293200,7.194293212890625,2.2036747043862936,7.024539155581593,0.01082769718428608
1761481600570236200,7.214236083984375,2.894778607699275,8.510764386042952,0.9674947135251015
1761481600590179300,7.234179443359375,3.7308074070364237,8.873703379699588,1.4708945364691317
1761481600610122200,7.254122314453125,4.41065517231971,7.951559308442473,0.7969248694390058
1761481600630065200,7.274065185546875,5.088894917884469,6.352655208784341,-0.07344192403610796
1761481600650008300,7.29400830078125,5.438858694633841,5.390573094892502,-0.6239200532909482
1761481600669951200,7.313951171875,4.670003150859475,6.05293342654109,-0.5017688607413321
1761481600689894100,7.33389404296875,2.7386875900164247,5.74186841250658,1.2849224675245583
1761481600709837300,7.35383740234375,0.08428308805674314,2.4203695361137387,3.2030510684058067
1761481600729780200,7.3737802734375,-1.1150579221636057,-1.4090963980734348,2.4757217132404445
1761481600749723100,7.39372314453125,-1.3254934012353419,-3.8507437000155447,0.4550091553930193
1761481600769666300,7.413666259765625,-3.078606358091533,-6.726912884312868,0.3102218046760186
1761481600789609200,7.433609130859375,-8.064540959978103,-8.343784602338076,-0.8446230977464467
1761481600809552100,7.45355224609375,-9.68607424007356,-8.41923234977126,-0.9825806389760225
1761481600829495300,7.473495361328125,-5.515416449135541,-8.490611240330338,1.15005828920044
1761481600849438200,7.493438232421875,-0.5768339655324817,-7.3311115343719715,2.5973683172687885
1761481600869381000,7.513381103515625,0.6144470723509788,-6.151259360736608,3.269828894910216
1761481600889324300,7.53332421875,-1.870677260006964,-5.931383268624544,2.0475410166054964
1761481600909267200,7.55326708984375,-3.156345139071345,-6.323346696713567,1.480790345931053
1761481600929210000,7.573210205078125,-2.3597347424089907,-6.105045306572317,1.1940491874225436
1761481600949153300,7.5931533203125,-2.0812232137158513,-3.6795834157556295,0.6577415127415209
1761481600969096200,7.61309619140625,-0.13846212975084782,-0.5830652611374855,0.6939153074719011
1761481600989039000,7.6330390625,1.7823063181146979,1.6675392444670198,0.48114159471094603
1761481601008982300,7.652982177734375,2.3772382503956555,3.630558395823836,-0.8567018772706388
1761481601028925200,7.67292529296875,2.8285739049077034,4.86013175496161,-2.1519623450666665
1761481601048868000,7.6928681640625,2.6728251247912644,5.737762146231532,-2.322375902612507
1761481601068811300,7.712811279296875,2.651042332050204,6.829961170855164,-1.9734854541830718
1761481601088754200,7.732754150390625,2.935920180904865,7.4250710900515315,-0.7720000523451716
1761481601108697000,7.752697021484375,2.8978841724991797,8.105864904013275,0.25231444490747523
1761481601128640300,7.77264013671875,3.015494360618293,8.565938576254249,0.29455758614679795
1761481601148583200,7.792583251953125,3.9083737589463587,7.790821049475669,-0.5018470040114597
1761481601168526000,7.812526123046875,4.1096217229560015,6.7502768087655305,-1.1742643635656684
1761481601188469200,7.83246923828125,3.4015587937965988,6.329215296486019,-1.1815222988046705
1761481601208412200,7.852412109375,2.319012271398306,6.147727679479122,-0.4562561597794294
1761481601228355000,7.87235498046875,1.780023175613582,4.994757667550444,0.18333782971715554
1761481601248298200,7.89229833984375,1.411104523025453,1.3350368901282548,0.5197684086166322
1761481601268241200,7.9122412109375,-0.7543085475057363,-1.870447835165262,-0.34071769990045575
1761481601288184000,7.93218408203125,-2.226727955454588,-3.668843410554528,-0.9251361657451838
1761481601308127200,7.952127197265625,-4.0278468183279035,-4.471884717047215,-1.5929242945961652
1761481601328070100,7.972070068359375,-5.8193035343647,-4.712715918904543,-2.8820073889315125
1761481601348013000,7.992012939453125,-6.224732593226433,-6.283162570363283,-1.08747097318843
1761481601367956200,8.011956298828125,-1.4070184227555989,-7.9299302449584,1.7181638085499404
1761481601387899100,8.031899169921875,1.3165297580569981,-8.579026021364331,2.6644489261120556
1761481601407842000,8.051842041015625,1.5750190739408134,-8.822918948879838,2.6899472322449087
1761481601427785200,8.07178515625,-0.7760597760647535,-9.044127750900387,1.643092785474658
1761481601447728000,8.09172802734375,-3.3611332599058747,-7.332526661866903,-1.7891060612574219
1761481601467671000,8.111671142578125,-3.1199528062194584,-4.992543498632312,-3.607956687915325
1761481601487614200,8.1316142578125,-0.2254918861672282,-2.629270060703158,-2.007777746015787
1761481601507557000,8.15155712890625,2.0908049887925384,0.49599254236221313,-0.4809456337474286
1761481601527500000,8.1715,2.4104253574654457,3.1576439467102286,0.2864928463032469
1761481601547444200,8.1914443359375,2.053397341418266,5.165165087616443,-0.5324699231490493
1761481601567387100,8.21138720703125,2.5218378599882123,6.650431117656827,-1.7610155466742812
1761481601587330000,8.231330078125,3.642664428681135,7.791983663514256,-1.709091444300115
1761481601607273200,8.251273193359374,4.290798082056641,8.283506366986035,0.006607264194369781
1761481601627216100,8.271216064453125,3.3631174194604156,7.828699236971139,2.0020615603260694
1761481601647159000,8.291158935546875,2.545256144976616,6.98189360755384,2.52579682674706
1761481601667102200,8.311102294921875,3.4528993971943853,5.813339073002338,1.1481111006554217
1761481601687045000,8.331045166015626,4.353049663308263,4.411548614028096,-0.9672893271461128
1761481601706988000,8.350988037109374,3.373036171406507,2.742041284358501,-1.6967353822045028
1761481601726931200,8.37093115234375,0.5932277587115764,1.7201128967911004,-1.5929619962580501
1761481601746874000,8.3908740234375,-3.143178783506155,1.1450701985895633,-0.5533146313223988
1761481601766817000,8.410817138671876,-4.905594113975763,-0.6287707812577485,1.2811869342580438
1761481601786760200,8.43076025390625,-2.160079600548744,-3.8953865593403574,2.7195357303008434
1761481601806703000,8.450703125,1.042172718694806,-5.165241659983992,1.3019628880441187
1761481601826646000,8.47064599609375,-2.2495856839507815,-6.565961859378218,-0.14485738374590873
1761481601846589200,8.490589111328125,-6.979190778335928,-7.663791583365201,-1.5360513376429676
1761481601866532000,8.510531982421876,-5.473112261891365,-7.2820081885069605,-1.5222557442635296
1761481601886475000,8.53047509765625,0.8689300752028822,-5.797070075246691,-1.6021432277098298
1761481601906418200,8.550418212890625,3.798064249229431,-6.465829168021679,-0.7445371681410818
1761481601926361000,8.570361083984375,1.5571891104787587,-6.832117472106218,-0.687417762146145
1761481601946304000,8.590303955078125,-2.2720143733799456,-7.434589444503188,-0.22026881775669752
1761481601966247200,8.6102470703125,-2.9092186364620924,-5.606250566270947,-0.3301942235268652
1761481601986190000,8.630190185546875,-1.713864065529406,-2.947882421377301,-0.7931264270041137
1761481602006133000,8.650133056640625,-0.6697884358227253,-0.5805775359749794,-0.2377569089785218
1761481602026076200,8.670076171875,-0.297125336009264,1.644056662070751,0.18528649783320725
1761481602046019000,8.69001904296875,0.06563128681778907,3.5366321578919884,0.01240421208627522
1761481602065962000,8.7099619140625,0.33376492162048815,5.639804460826515,-1.3092369707003235
1761481602085905200,8.7299052734375,0.5575386056929826,7.416908826383948,-2.4247351839773357
1761481602105848000,8.74984814453125,0.6168789756730199,8.224542721363902,-2.032230050227046
1761481602125791000,8.769791015625,1.5103671535491943,7.819384296137094,-1.431320358710736
1761481602145733000,8.789733154296876,2.3695184697985647,7.2029743992805475,-1.1706731341406702
1761481602165676000,8.809676025390624,4.309042763799429,6.2712792403459545,-0.7226848903603852
1761481602185619200,8.829619140625,5.28427135951221,6.365766619291901,-0.921929405593127
1761481602205562000,8.84956201171875,5.5458980966389175,6.188345521071553,-0.13432890240363776
1761481602225505000,8.869505126953126,3.4148443918272853,4.504809081527591,1.425394037401676
1761481602245448200,8.8894482421875,1.125040386995673,4.289145054152607,-0.45260373821910466
1761481602265391000,8.90939111328125,-0.14686872356832026,2.6086539736539125,-0.3227659001570195
1761481602285334000,8.929333984375,0.583405745138228,-0.8607511526614428,1.310344493550807
1761481602305277700,8.949277587890625,1.832899902537465,-2.972928015306592,0.39257118472382424
1761481602325220600,8.969220703125,1.1881781034320593,-4.2350598282217975,0.5088693403962999
1761481602345163500,8.98916357421875,0.37427024274915455,-4.977914669299126,1.491701762176305
1761481602365106700,9.009106689453125,-1.5623498542428016,-6.171943836846947,2.1369499232433733
1761481602385049600,9.029049560546875,-3.6170308057308196,-7.151549916991591,2.3617662482365964
1761481602404992500,9.048992431640626,-1.8255726283892988,-8.990788374900818,3.0707109286665917
1761481602424935700,9.068935791015624,-0.595214840875566,-7.5588675660789,1.9408885680913923
1761481602444878600,9.088878662109375,-3.2125369818925855,-8.044612270671129,2.6316052256524562
1761481602464821500,9.108821533203125,-4.509449600809813,-8.525731653550267,2.917801463629305
1761481602484764700,9.1287646484375,-4.257543170447647,-8.357120469251274,2.243629259764403
1761481602504707600,9.14870751953125,-4.2813691594541075,-5.270781178820133,-1.6900117730379103
1761481602524650500,9.168650390625,-2.233715330123901,-2.6141484794169663,-2.4346052744761106
1761481602544594400,9.188594482421875,2.2229124888196585,1.9040771330446005,0.10993095872811973
1761481602564537600,9.20853759765625,3.9285666521474716,4.435977537363767,0.6096958957685157
1761481602584481500,9.2284814453125,3.6426375406742095,5.053136206761002,-0.06902274675383233
1761481602604424400,9.248424560546875,2.719246099704504,4.843071314567327,-1.2625322104096413
1761481602624367400,9.268367431640625,2.1074279145523906,5.159086059963703,-1.6900675948783754
1761481602644310500,9.288310546875,2.0584993407323955,5.7454322424679996,-1.3201900341302155
1761481602664253400,9.30825341796875,2.30115629671216,6.072825290969014,-0.27727844323422757
1761481602684196400,9.3281962890625,2.388389466746151,6.275679521131515,-0.13367953511681407
1761481602704139500,9.348139404296875,2.277574930116534,5.987979016071558,-0.6758920133948326
1761481602724082400,9.36808251953125,1.7250164509236812,5.766808207973837,-1.1904207677923142
1761481602744025300,9.388025390625,1.2405948116287588,5.577466954857111,-1.1915072478547692
1761481602763968500,9.407968505859374,1.1629495541512966,5.141874812921881,-0.7950012079000472
1761481602783911400,9.427911376953125,1.1674486191362141,3.8795729041367766,-0.33731096019688994
1761481602803854600,9.4478544921875,0.9644973583400249,0.5600485426872969,-0.2594438766622916
1761481602823797500,9.467797607421875,0.7424784089803695,-2.209783250394463,-0.7542563058618456
1761481602843740400,9.487740478515626,-0.13799188189059494,-3.0917782666146754,-1.1696067470181732
1761481602863683600,9.50768359375,-1.3489917657226322,-3.321846082395315,-1.6506091524541378
1761481602883626500,9.52762646484375,-3.08482274838835,-3.8452427645117044,-1.4661634162940085
1761481602903569400,9.5475693359375,-3.443186981475353,-5.354074379056692,0.07663958756625652
1761481602923512600,9.5675126953125,-1.9867229752883313,-7.083532027298212,0.6038754825193434
1761481602943455500,9.58745556640625,0.07108224570006132,-7.842907795065641,-0.647943976022303
1761481602963398400,9.6073984375,0.5609823164060711,-7.884465547856688,-0.628288842959702
1761481602983341600,9.627341552734375,-1.1621247937649488,-7.917820704969763,0.28174853785298765
1761481603003284500,9.647284423828125,-3.7747529317468405,-7.448821967995166,0.3677509239830076
1761481603023227400,9.667227294921876,-4.99357167263627,-5.204134577479958,-0.8996908319085836
1761481603043170600,9.687170654296875,-2.978513121962547,-1.3220049745976925,-1.1946851472385227
1761481603063113500,9.707113525390625,0.6926587315395474,1.4861340450465679,1.0420547914035618
1761481603083057400,9.727057373046875,3.0730121913462876,3.2219460307508707,2.462251698553562
1761481603103000300,9.747000244140626,2.4283678413912653,4.622486197403073,1.564266209258139
1761481603122943500,9.766943603515625,0.16027970154434443,5.2478579838722945,1.3529577467441558
1761481603142886400,9.786886474609375,-0.4799216975271702,6.068555358564853,-0.2899873008228838
1761481603162829300,9.806829345703125,1.146702768227458,6.4829048059850924,-1.952598733498901
1761481603182772500,9.8267724609375,3.174486360439658,6.342385159182548,-1.8356410179391502
1761481603202715400,9.84671533203125,4.3416035556644195,6.7420759666532275,-0.946408451680839
1761481603222658300,9.866658203125,3.754740071287751,7.1450856894135475,0.7583696594648063
1761481603242601500,9.8866015625,2.1322996132194993,7.382100547853112,1.4763931338854133
1761481603262544400,9.90654443359375,1.7353429068878292,7.047723047292232,0.6332287835799157
1761481603282487300,9.9264873046875,2.5133950258135793,4.64979447556734,0.8000112180817872
1761481603302430000,9.946429931640624,1.5507809970021247,3.4562750111073255,0.15507785858493298
1761481603322372900,9.966372802734375,-0.6289753639191389,0.9267343216568231,-0.8234950425870716
1761481603342316000,9.98631591796875,-1.437889946359396,-2.3699516005188226,-0.6945914531677961
1761481603362259000,10.006259033203126,-0.7350202019289136,-3.3503777648746964,-1.162991639727354
1761481603382201900,10.026201904296874,-3.4664912846952673,-2.8854519764274356,-3.3572029347196217
1761481603402145000,10.04614501953125,-5.37185085876584,-2.500510409799218,-3.1376021524176
1761481603422088000,10.066087890625,-4.076646797332168,-1.895705610540509,1.6446398687861858
1761481603442030800,10.08603076171875,-0.8444929685607552,-3.31195188036859,5.702202757072448
1761481603461974000,10.10597412109375,1.9278975690931082,-4.9528462790161365,1.7663292890429496
1761481603481917000,10.1259169921875,2.2728350421130656,-7.158990880647301,-0.879177036190033
1761481603501860900,10.14586083984375,1.0405758048921823,-7.824197833898663,0.24302345120459792
1761481603521803800,10.1658037109375,-0.021235095730423925,-7.7637857430338855,1.4206528342239557
1761481603541747000,10.185746826171876,-1.4118360521703959,-5.7985354716241355,-1.749120087827742
1761481603561689900,10.20568994140625,-5.015417009219527,-3.6932723338901994,-3.616861586643755
1761481603581632800,10.2256328125,-5.272478045865893,-1.598134868851304,-2.34663473007828
1761481603601576000,10.245575927734375,-1.6304583448290824,-0.017958266016840935,-1.0792485037662087
1761481603621518800,10.265518798828126,1.7564520381510256,0.012671265524625778,-1.2538394931271672
1761481603641461800,10.285461669921874,1.66315649933815,0.9485609535396099,-1.9100696514576672
1761481603661405000,10.305405029296875,1.0300129098236561,2.0844266859322786,-0.8478020200435071
1761481603681347800,10.325347900390625,1.595445483636856,2.9754326916038987,-0.1826183746024966
1761481603701290800,10.345290771484375,1.900537853002548,3.159105835956335,-0.7429297329444438
1761481603721234000,10.36523388671875,1.605753527161479,2.990268441686034,-0.8430801791533827
1761481603741176800,10.3851767578125,1.773046030077338,3.7952994606912136,-1.4299186752192676
1761481603761119700,10.40511962890625,1.913387982225418,4.478792012217641,-0.9191120100848377
1761481603781063000,10.42506298828125,1.9943477710783482,4.257860273572803,0.8255518289864063
1761481603801005800,10.445005859375,1.5398562828838824,2.8113275865525007,1.5160330703563987
1761481603820948700,10.46494873046875,1.0317354958325624,1.529047304099798,0.7522506651278584
1761481603840892000,10.484891845703125,0.5934907935619353,0.647632718116045,0.19224530399516224
