time,seconds_elapsed,z,y,x
1761481593430653000,0.07465283203125,-0.11000517755746841,-0.09401986002922058,0.15404407680034637
1761481593450595800,0.094595947265625,-0.2209378331899643,-0.17157873511314392,0.20460110902786255
1761481593470538800,0.114538818359375,-0.327984482049942,-0.19639602303504944,0.100047767162323
1761481593490482000,0.13448193359375,-0.339815229177475,-0.04548034444451332,-0.11158415675163269
1761481593510424800,0.1544248046875,-0.26015546917915344,0.10113804042339325,-0.21511881053447723
1761481593530367700,0.17436767578125,-0.22231623530387878,0.07188592851161957,-0.1438450962305069
1761481593550311000,0.194310791015625,-0.21597129106521606,0.02591506578028202,0.028403865173459053
1761481593570253800,0.21425390625,-0.22404611110687256,-0.07290823012590408,0.06297997385263443
1761481593590196700,0.23419677734375,-0.24713928997516632,-0.12703803181648254,0.04073173180222511
1761481593610140000,0.254139892578125,-0.2397802323102951,-0.15236535668373108,0.05086242035031319
1761481593630082800,0.274082763671875,-0.19618257880210876,-0.13643454015254974,0.09460748732089996
1761481593650025700,0.294025634765625,-0.1684379130601883,-0.04798847436904907,0.0950690507888794
1761481593669969000,0.313968994140625,-0.1667931079864502,0.09160763025283813,0.1020723432302475
1761481593689911800,0.333911865234375,-0.15496227145195007,0.0665578842163086,0.1274985522031784
1761481593709854700,0.353854736328125,-0.15017221868038177,-0.021366124972701073,0.20492298901081085
1761481593729798000,0.3737978515625,-0.1426035612821579,-0.00454700505360961,0.3285110592842102
1761481593749739500,0.393739501953125,-0.12084168940782547,-0.05217557027935982,0.39987483620643616
1761481593769682700,0.4136826171875,-0.082852303981781,-0.023970482870936394,0.3860735297203064
1761481593789625600,0.43362548828125,-0.07238730788230896,0.20727966725826263,0.22783739864826202
1761481593809568800,0.45356884765625,-0.0426195003092289,0.43586277961730957,0.06335244327783585
1761481593829511700,0.47351171875,-0.00766114192083478,0.7307789325714111,0.06869477778673172
1761481593849454600,0.49345458984375,-0.06124585494399071,0.7329088449478149,0.3147730827331543
1761481593869397800,0.513397705078125,-0.11199238896369934,0.6364917755126953,0.7155963778495789
1761481593889340700,0.533340576171875,-0.016640715301036835,0.5955523252487183,0.9818668961524963
1761481593909283600,0.55328369140625,0.22413454949855804,0.6887438893318176,1.0736697912216187
1761481593929226800,0.573226806640625,0.41915395855903625,0.760870635509491,1.0783724784851074
1761481593949169700,0.593169677734375,0.40418562293052673,0.6287662386894226,1.0366708040237427
1761481593969112600,0.613112548828125,0.24023005366325378,0.396156370639801,0.9899230599403381
1761481593989055700,0.6330556640625,0.015015565790235996,0.35896000266075134,0.802733302116394
1761481594008998700,0.65299853515625,-0.13106071949005127,0.5426437258720398,0.4739048182964325
1761481594028941800,0.67294189453125,-0.14444993436336517,0.652932345867157,0.1590956598520279
1761481594048883700,0.6928837890625,-0.1130581796169281,0.6178921461105347,-0.04307359457015991
1761481594068826600,0.71282666015625,-0.10031425952911377,0.4721410572528839,-0.05501386150717735
1761481594088769800,0.732769775390625,-0.06499715149402618,0.1456247866153717,0.005093287210911512
1761481594108712700,0.752712646484375,0.01930784061551094,-0.1741558015346527,0.02834557741880417
1761481594128655600,0.772655517578125,0.11887641251087189,-0.4019632637500763,-0.010911648161709309
1761481594148598800,0.792598876953125,0.16382673382759094,-0.7174163460731506,-0.18411137163639069
1761481594168541700,0.812541748046875,0.18741784989833832,-0.841681957244873,-0.36475974321365356
1761481594188484600,0.832484619140625,0.23126812279224396,-0.6828555464744568,-0.42824897170066833
1761481594208427800,0.852427734375,0.25334492325782776,-0.5611656308174133,-0.38830801844596863
1761481594228370700,0.87237060546875,0.225355327129364,-0.42414391040802,-0.26350200176239014
1761481594248313600,0.892313720703125,0.17481105029582977,-0.23667311668395996,-0.1829608976840973
1761481594268256800,0.9122568359375,0.16496531665325165,0.02733626402914524,-0.2056431919336319
1761481594288199400,0.932199462890625,0.1495523303747177,0.20174190402030945,-0.2131449431180954
1761481594308142600,0.952142578125,0.1120593473315239,0.16654320061206818,-0.17716948688030243
1761481594328085800,0.972085693359375,0.05062048137187958,0.02431846410036087,-0.11359259486198425
1761481594348028700,0.992028564453125,0.03182363510131836,0.05998799577355385,-0.028285477310419083
1761481594367970600,1.011970458984375,-0.009219939820468426,0.08133669197559357,-0.01851540431380272
1761481594387913500,1.03191357421875,-0.028156714513897896,0.06045868992805481,-0.03087177500128746
1761481594407856400,1.0518564453125,-0.013260986655950546,-0.014856508001685143,-0.03557398170232773
1761481594427799600,1.071799560546875,0.012123839929699898,-0.07538393884897232,-0.04347847029566765
1761481594447742500,1.091742431640625,-0.008028666488826275,-0.05261645466089249,-0.07858968526124954
1761481594467685400,1.111685302734375,-0.07798250764608383,0.08824796974658966,-0.12825323641300201
1761481594487628500,1.131628662109375,-0.09015943109989166,0.11891297250986099,-0.15421134233474731
1761481594507571500,1.151571533203125,-0.07603775709867477,0.03935668617486954,-0.08063347637653351
1761481594527514400,1.171514404296875,-0.07634437829256058,-0.10508830845355988,-0.012123019434511662
1761481594547457500,1.19145751953125,-0.09982366114854813,-0.07930201292037964,0.011571799404919147
1761481594567400400,1.211400390625,-0.08608642220497131,0.07578130811452866,0.003639230038970709
1761481594587343400,1.23134326171875,-0.05367684364318848,0.09796452522277832,-0.01412574015557766
1761481594607286500,1.25128662109375,0.010040090419352055,0.036926690489053726,0.047195613384246826
1761481594627229400,1.2712294921875,0.051985934376716614,-0.06385419517755508,0.11245190352201462
1761481594647172400,1.29117236328125,0.05644059553742409,-0.09219177067279816,0.1181841567158699
1761481594667115500,1.311115478515625,0.03499221429228783,-0.023927219212055206,0.04095173254609108
1761481594687058400,1.331058349609375,-0.0023617420811206102,0.06675531715154648,-0.049490269273519516
1761481594707000600,1.35100048828125,0.01095846388489008,0.03797255828976631,-0.10461630672216415
1761481594726943500,1.370943603515625,0.04572286456823349,-0.05082738772034645,-0.039930421859025955
1761481594746886400,1.390886474609375,0.05111698806285858,-0.1410636305809021,0.05982409417629242
1761481594766829600,1.41082958984375,0.018684128299355507,-0.06612201035022736,0.10792429000139236
1761481594786772500,1.4307724609375,0.0016441084444522858,-0.0016980813816189766,0.09757692366838455
1761481594806715400,1.45071533203125,0.01063108816742897,-0.01382078230381012,0.08348142355680466
1761481594826658600,1.470658447265625,0.033669717609882355,-0.05064200982451439,0.06009297072887421
1761481594846601500,1.4906015625,0.03315050154924393,-0.08554285019636154,0.043004367500543594
1761481594866544400,1.51054443359375,0.003031001193448901,-0.07579001784324646,0.020523743703961372
1761481594886487600,1.530487548828125,-0.03537507727742195,-0.029027987271547318,-0.040121063590049744
1761481594906430500,1.550430419921875,-0.06616637110710144,-0.045338183641433716,-0.07305733114480972
1761481594926373400,1.570373291015625,-0.0679614245891571,-0.045841388404369354,-0.03943673521280289
1761481594946316500,1.590316650390625,-0.02085808664560318,-0.090207040309906,0.0396452397108078
1761481594966259500,1.610259521484375,0.03854602575302124,-0.13690230250358582,0.08558380603790283
1761481594986202400,1.630202392578125,0.08262298256158829,-0.1347080022096634,0.08218931406736374
1761481595006145500,1.6501455078125,0.11228273063898087,-0.0792628601193428,0.0437513068318367
1761481595026088400,1.67008837890625,0.05616683140397072,-0.15147778391838074,-0.08043073117733002
1761481595046030600,1.690030517578125,-0.12017981708049774,-0.27593082189559937,-0.18845118582248688
1761481595065973500,1.709973388671875,-0.08333871513605118,0.02523089572787285,-0.15545780956745148
1761481595085916400,1.72991650390625,-0.10137257725000381,0.013319640420377254,-0.1401510238647461
1761481595105859600,1.749859619140625,-0.09183701872825623,0.0234194565564394,-0.07987253367900848
1761481595125802500,1.769802490234375,-0.046649836003780365,-0.018547382205724716,-0.05395112559199333
1761481595145745400,1.789745361328125,-0.04494041949510574,0.00028892001137137413,-0.06483127176761627
1761481595165688600,1.8096884765625,-0.038520313799381256,0.08660607039928436,-0.06705811619758606
1761481595185631500,1.829631591796875,-0.002707971492782235,0.10473544150590897,-0.01920202746987343
1761481595205574400,1.849574462890625,0.046472541987895966,0.08352456241846085,0.09861547499895096
1761481595225517600,1.869517578125,0.07252005487680435,0.008509735576808453,0.21637345850467682
1761481595245460500,1.88946044921875,0.061680473387241364,-0.009446732699871063,0.2665603756904602
1761481595265403400,1.9094033203125,0.031106535345315933,0.07914777845144272,0.23622970283031464
1761481595285346800,1.929346923828125,0.007980535738170147,0.1029084250330925,0.1550990492105484
1761481595305289700,1.949289794921875,-0.0006402084836736321,0.08181174099445343,0.0927359089255333
1761481595325232600,1.969232666015625,0.008881441317498684,0.01693374291062355,0.049584098160266876
1761481595345175800,1.98917578125,0.016650881618261337,-0.03630068525671959,0.0369180366396904
1761481595365118700,2.00911865234375,0.007869605906307697,-0.05166704207658768,0.005347027443349361
1761481595385061600,2.0290615234375,-0.02152520790696144,-0.007721750997006893,-0.04484620690345764
1761481595405004800,2.0490048828125,-0.07473403215408325,0.03371460735797882,-0.0918370857834816
1761481595424946700,2.06894677734375,-0.05457007884979248,0.06304441392421722,-0.05580175668001175
1761481595444889900,2.088889892578125,0.015093314461410046,0.0006818752735853195,0.045927494764328
1761481595464832800,2.108832763671875,0.07508916407823563,-0.07663963735103607,0.10788162797689438
1761481595484775700,2.128775634765625,0.048632800579071045,-0.04072829708456993,0.09473247826099396
1761481595504718800,2.14871875,0.0038720432203263044,0.0329320952296257,0.015924345701932907
1761481595524661800,2.168661865234375,-0.001569784595631063,0.04491822421550751,-0.04275732859969139
1761481595544604700,2.188604736328125,0.019079474732279778,-0.024684488773345947,-0.06062011048197746
1761481595564547800,2.2085478515625,0.032640241086483,-0.09075093269348145,-0.07376353442668915
1761481595584490800,2.22849072265625,0.008131752721965313,-0.08510522544384003,-0.07389757037162781
1761481595604433700,2.24843359375,-0.0009520727326162159,-0.0542278066277504,-0.01767549104988575
1761481595624376800,2.268376953125,0.03615226224064827,-0.03896193951368332,0.07670991122722626
1761481595644319700,2.28831982421875,0.06436600536108017,-0.02891470678150654,0.10293946415185928
1761481595664262700,2.3082626953125,0.06311957538127899,-0.016410069540143013,0.051755040884017944
1761481595684205800,2.328205810546875,0.033282481133937836,-0.019081048667430878,-0.011576834134757519
1761481595704148700,2.348148681640625,-0.006964417174458504,-0.0022221829276531935,-0.04057713598012924
1761481595724091600,2.368091552734375,-0.00002414417394902557,0.05330662801861763,-0.03152637183666229
1761481595744034800,2.388034912109375,0.025733808055520058,0.06615157425403595,0.04351343959569931
1761481595763977700,2.407977783203125,0.03574785217642784,0.041742220520973206,0.17205658555030823
1761481595783920600,2.427920654296875,0.035343658179044724,0.09422624111175537,0.4319608807563782
1761481595803863800,2.44786376953125,0.016112182289361954,0.1886056810617447,0.8237016797065735
1761481595823805700,2.4678056640625,0.044523049145936966,0.024356024339795113,1.1250097751617432
1761481595843748900,2.487748779296875,0.015649650245904922,-0.14177381992340088,1.0834507942199707
1761481595863691800,2.50769189453125,-0.14410990476608276,-0.547336995601654,0.8132842183113098
1761481595883634700,2.527634765625,-0.2649674713611603,-0.9010871648788452,0.4483620226383209
1761481595903577900,2.547577880859375,-0.2948026955127716,-1.022493839263916,0.09939686208963394
1761481595923520800,2.567520751953125,-0.1909940242767334,-1.1261770725250244,-0.17627869546413422
1761481595943463700,2.587463623046875,0.09502727538347244,-0.7706820964813232,-0.3677443861961365
1761481595963406800,2.60740673828125,0.4515005648136139,-0.05174533277750015,-0.47413328289985657
1761481595983349800,2.627349853515625,0.5621637105941772,0.6276615262031555,-0.5230661034584045
1761481596003292700,2.647292724609375,0.9749975204467773,0.928385853767395,-0.4242422878742218
1761481596023235800,2.66723583984375,1.1891010999679565,1.0638201236724854,-0.636995792388916
1761481596043178800,2.6871787109375,0.8952752947807312,0.32816070318222046,-0.9255533218383789
1761481596063122000,2.707121826171875,0.34158796072006226,-0.17822958528995514,-0.5776668190956116
1761481596083064800,2.72706494140625,-0.20161741971969604,-0.42863935232162476,-0.13560202717781067
1761481596103007700,2.7470078125,-0.5273719429969788,0.30588799715042114,0.5394854545593262
1761481596122951000,2.766950927734375,-0.3494252860546112,0.9137899875640869,0.8252782225608826
1761481596142893800,2.786893798828125,0.09240715205669403,1.1399065256118774,0.6396854519844055
1761481596162836700,2.806836669921875,0.3971327543258667,0.7372435927391052,0.3218885064125061
1761481596182780000,2.82677978515625,0.1983843594789505,0.09988528490066528,0.242756649851799
1761481596202722800,2.846722900390625,-0.015664514154195786,-0.38186952471733093,0.24754738807678223
1761481596222665700,2.866665771484375,0.30771759152412415,-0.471709668636322,0.12323322147130966
1761481596242609000,2.88660888671875,0.6849997043609619,-0.131857231259346,0.26095107197761536
1761481596262550800,2.90655078125,0.6273329854011536,-0.03779878094792366,0.49546340107917786
1761481596282494000,2.926493896484375,0.21823780238628387,-0.23762266337871552,0.5881505012512207
1761481596302437000,2.94643701171875,-0.1460970938205719,-0.35723555088043213,0.6909857988357544
1761481596322380000,2.966380126953125,-0.4321155548095703,-0.24468955397605896,0.7212454080581665
1761481596342323000,2.986322998046875,-0.6501768827438354,0.10301798582077026,0.6462398171424866
1761481596362266000,3.00626611328125,-0.8944060206413269,0.39376720786094666,0.35759687423706055
1761481596382209000,3.026208984375,-1.1512333154678345,0.47551843523979187,-0.05616943538188934
1761481596402152000,3.04615185546875,-1.3197546005249023,0.5019996166229248,-0.29086050391197205
1761481596422095000,3.06609521484375,-1.1577246189117432,0.4192153513431549,-0.344870388507843
1761481596442038000,3.0860380859375,-0.8172087073326111,0.31038349866867065,-0.27576228976249695
1761481596461981200,3.105981201171875,-0.5133655071258545,0.09142176806926727,-0.25243595242500305
1761481596481924000,3.125924072265625,-0.3041674792766571,-0.31028351187705994,-0.15837575495243073
1761481596501867000,3.145866943359375,0.04598281905055046,-0.738959014415741,0.20462556183338165
1761481596521810200,3.16581005859375,0.317048579454422,-1.0686801671981812,0.19773200154304504
1761481596541753000,3.185753173828125,0.388593465089798,-1.4957101345062256,-0.42702028155326843
1761481596561696000,3.205696044921875,0.08272522687911987,-1.3617225885391235,-0.3643830120563507
1761481596581639200,3.22563916015625,-0.5414767265319824,-0.39732345938682556,0.5529751181602478
1761481596601582000,3.24558203125,-0.32291707396507263,0.3297966718673706,0.44069164991378784
1761481596621525000,3.26552490234375,0.34374111890792847,0.14448587596416473,-0.7034854888916016
1761481596641468200,3.28546826171875,0.18325333297252655,0.09544265270233154,-0.6964834332466125
1761481596661411000,3.3054111328125,-0.1033872738480568,0.3174458146095276,0.2645414471626282
1761481596681354000,3.32535400390625,0.2665565311908722,0.5912193655967712,1.2261641025543213
1761481596701297200,3.345297119140625,0.7080174088478088,0.4641834497451782,1.5756553411483765
1761481596721239000,3.365239013671875,0.614594042301178,-0.0337391123175621,1.4994069337844849
1761481596741182200,3.38518212890625,0.23898954689502716,-0.5585454702377319,0.8670983910560608
1761481596761125000,3.405125,0.054654546082019806,-0.24486194550991058,-0.13116294145584106
1761481596781068000,3.425068115234375,0.21997606754302979,0.6898843050003052,-0.9686247706413269
1761481596801011200,3.44501123046875,0.26807504892349243,1.0553007125854492,-1.139969825744629
1761481596820954000,3.4649541015625,-0.03821732848882675,0.5250741243362427,-0.9416249990463257
1761481596840897000,3.48489697265625,-0.3757336139678955,-0.17837204039096832,-0.7361451387405396
1761481596860840200,3.504840087890625,-0.16002069413661957,-0.13113738596439362,-0.3984631299972534
1761481596880783000,3.524783203125,0.32833045721054077,0.15299242734909058,-0.11861491948366165
1761481596900726000,3.54472607421875,0.6135571599006653,0.1152568832039833,-0.15216240286827087
1761481596920669200,3.564669189453125,0.4179815351963043,0.05832207575440407,-0.42812713980674744
1761481596940612000,3.584612060546875,-0.13033568859100342,0.2136646807193756,-0.6837064623832703
1761481596960555000,3.604554931640625,-0.415775865316391,0.7341198921203613,-0.7839839458465576
1761481596980498200,3.624498291015625,-0.26884669065475464,1.1051372289657593,-0.671619713306427
1761481597000441000,3.644441162109375,0.07624787092208862,0.7373861074447632,-0.41410595178604126
1761481597020384000,3.664384033203125,0.44763487577438354,-0.0346197672188282,-0.21553508937358856
1761481597040327200,3.6843271484375,0.6414921283721924,-0.6828859448432922,0.005179462023079395
1761481597060270000,3.70427001953125,0.38919124007225037,-1.0368473529815674,0.3545084595680237
1761481597080213000,3.724212890625,-0.06731036305427551,-0.8582298159599304,0.5663908123970032
1761481597100156200,3.74415625,-0.25798603892326355,0.18016338348388672,0.7112962007522583
1761481597120099000,3.76409912109375,-0.10203702002763748,0.7887043356895447,0.650601863861084
1761481597140042000,3.7840419921875,0.05931936576962471,0.6460141539573669,0.5179147720336914
1761481597159985200,3.803985107421875,0.13031457364559174,0.12684151530265808,0.17750462889671326
1761481597179928000,3.823927978515625,0.43782949447631836,-0.132308229804039,-0.06424055993556976
1761481597199871000,3.84387109375,0.8608580827713013,0.1666538417339325,0.033589694648981094
1761481597219814100,3.863814208984375,1.194495439529419,0.47220829129219055,0.12085224688053131
1761481597239756000,3.883756103515625,1.3398598432540894,0.22598208487033844,-0.08422447741031647
1761481597259699200,3.90369921875,1.0791938304901123,-0.2636025846004486,-0.4363367557525635
1761481597279642000,3.92364208984375,0.4967678189277649,0.08956702053546906,-0.7909160852432251
1761481597299585500,3.94358544921875,0.09841752052307129,1.1695706844329834,-1.0389254093170166
1761481597319528700,3.96352880859375,-0.10388906300067902,1.8333841562271118,-1.1437726020812988
1761481597339471600,3.9834716796875,-0.3025214672088623,1.5017037391662598,-0.8563615679740906
1761481597359414500,4.00341455078125,-0.4186517894268036,0.47946518659591675,-0.3429872691631317
1761481597379357700,4.023357666015625,-0.30275556445121765,-0.09654845297336578,0.10544434934854507
1761481597399300600,4.043300537109375,-0.06225987896323204,0.02616393379867077,0.2809318006038666
1761481597419243500,4.063243408203125,0.09075320512056351,0.3437582850456238,0.32963526248931885
1761481597439186700,4.083186767578125,0.09910833835601807,0.30838510394096375,0.38750016689300537
1761481597459129600,4.103129638671875,-0.15850929915905,-0.3368455171585083,0.3312505781650543
1761481597479072500,4.123072509765625,-0.425458699464798,-0.9636265635490417,0.26338452100753784
1761481597499015700,4.143015625,-0.3872515559196472,-0.9863560795783997,0.30560147762298584
1761481597518958600,4.16295849609375,-0.056133244186639786,-0.6609141230583191,0.5251847505569458
1761481597538901500,4.182901611328125,0.16314096748828888,-0.6100689768791199,0.44114893674850464
1761481597558844700,4.2028447265625,0.04608258977532387,-1.2356517314910889,0.019709143787622452
1761481597578787600,4.22278759765625,-0.581230640411377,-1.8613420724868774,0.2805315852165222
1761481597598730500,4.24273046875,-1.0238549709320068,-1.5339908599853516,0.9134162664413452
1761481597618673700,4.262673583984375,-0.7628546953201294,-0.2372470200061798,1.1693397760391235
1761481597638616600,4.282616455078125,-0.27872663736343384,0.6847293972969055,0.6525694727897644
1761481597658559500,4.3025595703125,-0.20136435329914093,0.15688669681549072,0.06818248331546783
1761481597678502700,4.322502685546875,-0.32582950592041016,-0.5342943668365479,-0.0877826064825058
1761481597698445600,4.342445556640625,-0.3049550950527191,-0.6691708564758301,0.24155543744564056
1761481597718388500,4.362388427734375,0.36750754714012146,-0.1262429803609848,0.578334629535675
1761481597738331600,4.38233154296875,0.7695909738540649,0.08680608123540878,0.6991685628890991
1761481597758274600,4.402274658203125,0.45921480655670166,-0.10453864187002182,0.541919469833374
1761481597778217500,4.422217529296875,-0.021156229078769684,-0.13690604269504547,-0.03197954222559929
1761481597798160600,4.44216064453125,-0.12772627174854279,0.18598492443561554,-0.7499614357948303
1761481597818103600,4.462103515625,0.10796631872653961,0.7124890089035034,-1.1757347583770752
1761481597838046500,4.48204638671875,0.0817066952586174,0.9990739226341248,-1.046397089958191
1761481597857989600,4.50198974609375,-0.20107944309711456,0.8645314574241638,-0.5592626333236694
1761481597877932800,4.521932861328125,-0.2985597550868988,0.6210927367210388,-0.11330930143594742
1761481597897875700,4.541875732421875,-0.08786040544509888,0.28421977162361145,0.13197918236255646
1761481597917819000,4.56181884765625,0.18553557991981506,0.010290874168276787,0.19374340772628784
1761481597937760500,4.581760498046875,0.2396186739206314,-0.053036849945783615,0.22823657095432281
1761481597957703700,4.60170361328125,-0.02137615531682968,0.029747728258371353,0.21316088736057281
1761481597977646600,4.621646484375,-0.4147632420063019,0.11913502961397171,0.1487315148115158
1761481597997589500,4.641589599609375,-0.6469182968139648,0.10483936965465546,0.19681821763515472
1761481598017532700,4.66153271484375,-0.7294180393218994,0.0195723008364439,0.34509482979774475
1761481598037475600,4.6814755859375,-0.666790246963501,-0.27464503049850464,0.33534789085388184
1761481598057418500,4.70141845703125,-0.5043880939483643,-0.4783785045146942,0.37759125232696533
1761481598077361700,4.721361572265625,-0.2674875557422638,-0.2838190793991089,0.502701461315155
1761481598097304600,4.7413046875,0.10091560333967209,-0.3175840973854065,0.15621498227119446
1761481598117247500,4.76124755859375,0.4919443726539612,-0.43982937932014465,-0.6348496675491333
1761481598137190700,4.781190673828125,0.25712767243385315,-0.2982601523399353,-0.9331632852554321
1761481598157132500,4.801132568359375,-0.07996033132076263,0.2621491253376007,-0.5352427959442139
1761481598177075700,4.82107568359375,0.21763713657855988,0.4244442880153656,-0.7631893157958984
1761481598197018600,4.8410185546875,0.49358415603637695,0.17943035066127777,-1.6195971965789795
1761481598216961500,4.86096142578125,0.4830676019191742,0.11468122899532318,-2.1448404788970947
1761481598236904700,4.88090478515625,0.10820350795984268,-0.3584515154361725,-1.9694899320602417
1761481598256847600,4.90084765625,-0.05789818987250328,-0.9299628734588623,-0.9303969740867615
1761481598276790500,4.92079052734375,0.021679852157831192,-1.0698097944259644,0.5954036116600037
1761481598296733200,4.940733154296875,0.08203092217445374,-0.8458476662635803,1.4795451164245605
1761481598316676000,4.960676025390625,0.04461994767189026,-0.39559999108314514,1.2431762218475342
1761481598336619300,4.980619384765625,-0.0981094092130661,0.07117746770381927,0.4227741062641144
1761481598356562200,5.000562255859375,-0.17120854556560516,0.326100617647171,-0.19293063879013062
1761481598376505000,5.020505126953125,-0.24433577060699463,0.4970239996910095,-0.44476941227912903
1761481598396448300,5.0404482421875,-0.4594978392124176,0.4198489785194397,-0.3708893656730652
1761481598416391200,5.06039111328125,-0.6446714401245117,0.25571855902671814,0.11653091013431549
1761481598436334000,5.080333984375,-0.6490898728370667,-0.026602687314152718,0.674372136592865
1761481598456277200,5.10027734375,-0.47982457280158997,-0.33560648560523987,0.9625928997993469
1761481598476220400,5.120220458984375,-0.2310902178287506,-0.4045078754425049,0.9415495991706848
1761481598496164400,5.140164306640625,-0.18405681848526,-0.37482792139053345,0.6840931177139282
1761481598516107300,5.160107177734375,-0.2892422676086426,-0.3391300141811371,0.4124462306499481
1761481598536050400,5.180050537109375,-0.4290274977684021,-0.3924550414085388,0.2710263133049011
1761481598555993300,5.199993408203125,-0.5010645389556885,-0.25414812564849854,0.3981815278530121
1761481598575936300,5.219936279296875,-0.450710654258728,-0.13629451394081116,0.5088117122650146
1761481598595879400,5.23987939453125,-0.23305729031562805,-0.07355448603630066,0.3696090579032898
1761481598615822300,5.259822265625,-0.014570040628314018,-0.2840738296508789,0.1822051852941513
1761481598635765200,5.27976513671875,-0.08746585994958878,-0.9304263591766357,0.4266218841075897
1761481598655708400,5.29970849609375,-0.04752726852893829,-1.2374547719955444,0.7610824108123779
1761481598675651300,5.3196513671875,0.3318779468536377,-0.5804414749145508,0.798363447189331
1761481598695594200,5.33959423828125,0.42156603932380676,-0.23440463840961456,0.4160430133342743
1761481598715537400,5.359537353515625,0.23177310824394226,-0.4416981041431427,-0.1726483702659607
1761481598735480300,5.379480224609375,-0.07243654876947403,-0.5448235869407654,-0.8861132264137268
1761481598755423200,5.39942333984375,-0.14973074197769165,0.06232519820332527,-1.2371978759765625
1761481598775366400,5.419366455078125,0.024479258805513382,0.6068114638328552,-1.2941741943359375
1761481598795309300,5.439309326171875,0.03549701347947121,0.511328935623169,-1.3547264337539673
1761481598815252200,5.459252197265625,0.06111123785376549,0.1486702710390091,-1.1620444059371948
1761481598835195400,5.4791953125,0.010950994677841663,0.26756131649017334,-0.8108308911323547
1761481598855138300,5.49913818359375,-0.09272802621126175,0.8085498213768005,-0.6343613266944885
1761481598875081200,5.519081298828125,-0.14099328219890594,1.4078564643859863,-0.7518059611320496
1761481598895024400,5.5390244140625,-0.007704312447458506,1.628883719444275,-0.935332179069519
1761481598914967300,5.55896728515625,0.030763806775212288,1.2796423435211182,-1.0853077173233032
1761481598934910200,5.57891015625,-0.01766156405210495,0.8836786150932312,-1.0531493425369263
1761481598954853400,5.598853271484375,-0.02930346503853798,0.7268350124359131,-1.0440895557403564
1761481598974796300,5.61879638671875,-0.000035433360608294606,0.572346031665802,-0.9975482225418091
1761481598994739200,5.6387392578125,0.07331361621618271,0.4151902496814728,-0.5563098192214966
1761481599014682400,5.658682373046875,0.2695978581905365,-0.028237387537956238,0.12809757888317108
1761481599034625300,5.678625244140625,0.4725770056247711,-0.7566189169883728,0.539185643196106
1761481599054568200,5.698568115234375,0.5016129612922668,-1.192176342010498,0.5123404860496521
1761481599074511400,5.718511474609375,0.4808085858821869,-1.1333256959915161,0.38206493854522705
1761481599094454300,5.738454345703125,0.37650108337402344,-0.9078400135040283,0.4304771423339844
1761481599114397200,5.758397216796875,0.2223946899175644,-0.5810545086860657,0.9019086956977844
1761481599134340400,5.77834033203125,0.28885892033576965,-0.27319520711898804,1.2838287353515625
1761481599154283300,5.798283203125,0.4530664384365082,-0.31685003638267517,1.2041878700256348
1761481599174226200,5.81822607421875,0.21973827481269836,-0.7804721593856812,0.9412949085235596
1761481599194169300,5.83816943359375,-0.14687377214431763,-0.8725061416625977,1.0283552408218384
1761481599214112300,5.8581123046875,-0.27990835905075073,0.14033231139183044,1.3774956464767456
1761481599234055200,5.87805517578125,-0.3352019488811493,1.3440182209014893,1.7425200939178467
1761481599253998300,5.897998291015625,-0.34177514910697937,1.6831820011138916,1.7671860456466675
1761481599273941200,5.917941162109375,-0.2058221697807312,0.8238691687583923,1.080888032913208
1761481599293884000,5.9378837890625,-0.16270819306373596,0.22426915168762207,0.4078596532344818
1761481599313826800,5.957826904296875,-0.1360241025686264,0.7200572490692139,0.4127192795276642
1761481599333769700,5.977769775390625,0.048771727830171585,1.3342132568359375,0.8917428851127625
1761481599353713000,5.997712890625,0.10369135439395905,1.2538052797317505,1.0713120698928833
1761481599373655800,6.01765576171875,-0.12615780532360077,0.7911244630813599,0.692838728427887
1761481599393598700,6.0375986328125,-0.32752594351768494,0.6477828025817871,-0.08468230813741684
1761481599413542000,6.0575419921875,-0.3011116087436676,0.5767685770988464,-1.0443754196166992
1761481599433484800,6.07748486328125,0.20421768724918365,1.2636268138885498,-1.4698808193206787
1761481599453427700,6.097427734375,0.3670746088027954,1.688735842704773,-1.217087984085083
1761481599473371000,6.117370849609375,-0.03378576412796974,0.9203155040740967,-0.6674953699111938
1761481599493313800,6.137313720703125,-0.3863527178764343,-0.05230928584933281,0.06383906304836273
1761481599513256700,6.157256591796875,-0.332680881023407,-0.4356495440006256,0.5381790995597839
1761481599533200000,6.177199951171875,0.031421560794115067,-0.5372485518455505,0.31478646397590637
1761481599553142800,6.197142822265625,0.365326464176178,-0.18224795162677765,-0.21506544947624207
1761481599573085700,6.217085693359375,0.37872180342674255,0.0138325747102499,-0.5514219999313354
1761481599593028900,6.23702880859375,0.16530363261699677,-0.10962706059217453,-0.15438149869441986
1761481599612971800,6.2569716796875,-0.04335842281579971,-0.4402329921722412,0.776647686958313
1761481599632914700,6.276914794921875,-0.05202842876315117,-1.1149500608444214,1.2713861465454102
1761481599652857900,6.29685791015625,0.3288407027721405,-1.3986222743988037,0.9542220830917358
1761481599672800800,6.31680078125,0.5712805390357971,-1.4199752807617188,0.009498938918113708
1761481599692743700,6.33674365234375,0.2605902850627899,-1.360282301902771,-0.32402703166007996
1761481599712686800,6.356686767578125,-0.2189294993877411,-1.3353910446166992,0.3145248293876648
1761481599732629800,6.376629638671875,-0.3662945628166199,-0.730114758014679,1.1152832508087158
1761481599752572700,6.39657275390625,0.16728223860263824,0.35985708236694336,1.3760491609573364
1761481599772515800,6.416515869140625,0.43569275736808777,0.5780896544456482,0.716441810131073
1761481599792458800,6.436458740234375,0.27243149280548096,0.19450537860393524,-0.5116413235664368
1761481599812401700,6.456401611328125,-0.08629417419433594,0.37223726511001587,-1.1374250650405884
1761481599832344800,6.4763447265625,-0.28239303827285767,0.43645086884498596,-0.9879438281059265
1761481599852287700,6.496287841796875,-0.236102893948555,0.18113325536251068,-0.3778512477874756
1761481599872230700,6.516230712890625,-0.038964901119470596,-0.103577621281147,0.0635828971862793
1761481599892173800,6.536173828125,-0.04687906801700592,-0.279171884059906,-0.03188655152916908
1761481599912116700,6.55611669921875,-0.21997596323490143,-0.1339925229549408,-0.46415814757347107
1761481599932059600,6.5760595703125,-0.3574989438056946,0.09358790516853333,-0.8293243646621704
1761481599952002800,6.5960029296875,-0.405255526304245,0.27170252799987793,-0.888750433921814
1761481599971945700,6.61594580078125,-0.33075034618377686,0.4933725595474243,-0.7208860516548157
1761481599991888600,6.635888671875,-0.10346142202615738,0.37585508823394775,-0.6357348561286926
1761481600011831800,6.655831787109375,-0.14174321293830872,0.17029359936714172,-0.4703094959259033
1761481600031774700,6.675774658203125,-0.08495354652404785,-0.20802311599254608,-0.28452926874160767
1761481600051717600,6.695717529296875,0.3220573663711548,-0.2741454839706421,-0.11298312246799469
1761481600071660800,6.715660888671875,0.7026806473731995,-0.05427981913089752,-0.049952518194913864
1761481600091603700,6.735603759765625,0.562916100025177,0.14772409200668335,-0.17065688967704773
1761481600111547000,6.755546875,-0.040671877562999725,-0.27463048696517944,-0.369430273771286
1761481600131489800,6.77548974609375,-0.26728153228759766,-0.7866420149803162,-0.16804239153862
1761481600151432700,6.7954326171875,0.15560106933116913,-0.6832644939422607,0.23821423947811127
1761481600171375900,6.8153759765625,0.5871402621269226,-0.5333159565925598,0.3418358266353607
1761481600191318800,6.83531884765625,0.676679253578186,-0.3381291329860687,0.3679834008216858
1761481600211261700,6.85526171875,0.34443193674087524,-0.4677923023700714,0.5801375508308411
1761481600231204900,6.875204833984375,0.015729928389191628,-1.279339075088501,0.6141168475151062
1761481600251147800,6.895147705078125,-0.1336984634399414,-1.3866431713104248,0.6162378787994385
1761481600271090700,6.915090576171875,-0.36670589447021484,-0.7006521224975586,0.704447329044342
1761481600291034000,6.9350341796875,-0.46204304695129395,0.15191800892353058,0.40879249572753906
1761481600310977300,6.954977294921875,-0.4894091486930847,0.3723813593387604,-0.617513120174408
1761481600330920200,6.974920166015625,-0.5320149660110474,-0.055843453854322433,-1.3631391525268555
1761481600350863000,6.994863037109375,-0.1466227024793625,-0.25704553723335266,-1.0827003717422485
1761481600370806300,7.01480615234375,0.4342215657234192,-0.44343769550323486,-0.041314754635095596
1761481600390749200,7.034749267578125,0.762810230255127,-0.9201396107673645,0.8480722904205322
1761481600410692000,7.054692138671875,0.4270576238632202,-0.9429448246955872,0.5862506628036499
1761481600430635300,7.07463525390625,-0.2944749593734741,-0.3130704164505005,-0.4792148470878601
1761481600450578200,7.094578125,-0.7777803540229797,0.2807592451572418,-1.4375118017196655
1761481600470521000,7.11452099609375,-0.6934154033660889,0.44800472259521484,-1.8049434423446655
1761481600490464300,7.13446435546875,-0.289959192276001,0.16662822663784027,-1.4261871576309204
1761481600510407200,7.1544072265625,-0.1009923443198204,-0.0618513785302639,-0.659917414188385
1761481600530350300,7.174350341796875,-0.2428867220878601,-0.20682500302791595,-0.04030119627714157
1761481600550293200,7.194293212890625,-0.34993231296539307,-0.31247425079345703,0.31054845452308655
1761481600570236200,7.214236083984375,-0.14152979850769043,-0.23765751719474792,0.5484706163406372
1761481600590179300,7.234179443359375,0.18914155662059784,-0.2124560922384262,0.6578232645988464
1761481600610122200,7.254122314453125,0.3109494745731354,-0.142146036028862,0.6636387705802917
1761481600630065200,7.274065185546875,0.09238134324550629,0.02714148350059986,0.48665758967399597
1761481600650008300,7.29400830078125,-0.36319035291671753,0.1212034747004509,0.11916203796863556
1761481600669951200,7.313951171875,-0.728294849395752,-0.07488787174224854,-0.2208639532327652
1761481600689894100,7.33389404296875,-0.5272446274757385,-0.19049598276615143,-0.35353636741638184
1761481600709837300,7.35383740234375,0.05970871075987816,-0.014503229409456253,-0.09376887232065201
1761481600729780200,7.3737802734375,0.3930390775203705,0.09392787516117096,0.30105146765708923
1761481600749723100,7.39372314453125,0.23349261283874512,-0.21859750151634216,0.38195469975471497
1761481600769666300,7.413666259765625,-0.04461445286870003,-0.7866683006286621,0.25002649426460266
1761481600789609200,7.433609130859375,-0.4063335359096527,-1.0706459283828735,0.7381845116615295
1761481600809552100,7.45355224609375,-0.707549512386322,-0.22653603553771973,1.6299233436584473
1761481600829495300,7.473495361328125,-0.7119348645210266,1.0141717195510864,1.7492411136627197
1761481600849438200,7.493438232421875,-0.4513504207134247,1.3323237895965576,0.7984243035316467
1761481600869381000,7.513381103515625,0.13882631063461304,1.0124603509902954,-0.5063378214836121
1761481600889324300,7.53332421875,0.4755353033542633,0.8472423553466797,-1.0831233263015747
1761481600909267200,7.55326708984375,0.5872511863708496,1.0661838054656982,-1.0372322797775269
1761481600929210000,7.573210205078125,0.5496529936790466,0.9380978941917419,-0.8245353102684021
1761481600949153300,7.5931533203125,0.4255479872226715,0.2170826941728592,-0.2997368574142456
1761481600969096200,7.61309619140625,0.4386824071407318,-0.44856712222099304,0.08039061725139618
1761481600989039000,7.6330390625,0.5714132189750671,-0.7558245062828064,0.0742809996008873
1761481601008982300,7.652982177734375,0.575076162815094,-0.48162010312080383,-0.09094764292240143
1761481601028925200,7.67292529296875,0.32260021567344666,-0.013962037861347198,-0.3871563971042633
1761481601048868000,7.6928681640625,-0.008503042161464691,0.27275171875953674,-0.5139188766479492
1761481601068811300,7.712811279296875,-0.32138592004776,0.2843282222747803,-0.4133194386959076
1761481601088754200,7.732754150390625,-0.43135565519332886,0.10596209764480591,-0.231210395693779
1761481601108697000,7.752697021484375,-0.2229129821062088,-0.04835902899503708,0.02374839410185814
1761481601128640300,7.77264013671875,0.15026748180389404,-0.057851407676935196,0.251837819814682
1761481601148583200,7.792583251953125,0.33451536297798157,-0.1091727539896965,0.20214392244815826
1761481601168526000,7.812526123046875,0.21586379408836365,-0.24760057032108307,0.012777851894497871
1761481601188469200,7.83246923828125,0.012163028120994568,-0.353101521730423,-0.06603152304887772
1761481601208412200,7.852412109375,0.07733458280563354,-0.3188610374927521,0.06562311947345734
1761481601228355000,7.87235498046875,0.3887121081352234,-0.17852415144443512,0.18174566328525543
1761481601248298200,7.89229833984375,0.6811257600784302,-0.08831791579723358,0.10945012420415878
1761481601268241200,7.9122412109375,0.4544147849082947,-0.5701053738594055,0.27038076519966125
1761481601288184000,7.93218408203125,0.04486062005162239,-1.3766639232635498,0.5028989315032959
1761481601308127200,7.952127197265625,-0.08516678214073181,-1.124265432357788,0.3516814410686493
1761481601328070100,7.972070068359375,-0.26224902272224426,0.2945956289768219,0.1998552680015564
1761481601348013000,7.992012939453125,-0.5165783166885376,1.9608670473098755,0.7109810709953308
1761481601367956200,8.011956298828125,-0.3264820873737335,1.763857126235962,0.535205602645874
1761481601387899100,8.031899169921875,-0.05835161730647087,0.6862295866012573,-0.07422713190317154
1761481601407842000,8.051842041015625,0.3895809054374695,-0.10349679738283157,-0.9065201282501221
1761481601427785200,8.07178515625,0.7641639709472656,-0.4183940291404724,-1.494026780128479
1761481601447728000,8.09172802734375,0.6871538162231445,-0.24817593395709991,-1.3795582056045532
1761481601467671000,8.111671142578125,0.16916751861572266,0.23348279297351837,-0.9201218485832214
1761481601487614200,8.1316142578125,-0.24546673893928528,0.5020803213119507,-0.7971183657646179
1761481601507557000,8.15155712890625,-0.3420570492744446,0.4368238151073456,-1.0608683824539185
1761481601527500000,8.1715,-0.15936647355556488,0.3467440605163574,-1.2532318830490112
1761481601547444200,8.1914443359375,0.049189697951078415,0.4060556888580322,-1.1395031213760376
1761481601567387100,8.21138720703125,-0.06963082402944565,0.6252775192260742,-0.7984354496002197
1761481601587330000,8.231330078125,-0.33654317259788513,0.6585831642150879,-0.5118509531021118
1761481601607273200,8.251273193359374,-0.34447234869003296,0.3596278429031372,-0.4396427869796753
1761481601627216100,8.271216064453125,0.0010258565889671445,-0.08883725851774216,-0.24013391137123108
1761481601647159000,8.291158935546875,0.5474318861961365,-0.03553324565291405,0.24488450586795807
1761481601667102200,8.311102294921875,0.8355385661125183,-0.015324888750910759,0.48785921931266785
1761481601687045000,8.331045166015626,0.6079009175300598,-0.5243526101112366,0.349178671836853
1761481601706988000,8.350988037109374,0.10848765075206757,-1.0354210138320923,0.11378733068704605
1761481601726931200,8.37093115234375,-0.34030354022979736,-1.0653599500656128,0.02838720567524433
1761481601746874000,8.3908740234375,-0.40369847416877747,-0.6583376526832581,0.4491615295410156
1761481601766817000,8.410817138671876,-0.00857487041503191,0.2715548872947693,1.3698184490203857
1761481601786760200,8.43076025390625,0.4303605854511261,0.6766646504402161,1.7910481691360474
1761481601806703000,8.450703125,0.47336938977241516,-0.6281299591064453,1.1717722415924072
1761481601826646000,8.47064599609375,0.5281316041946411,-1.6118354797363281,0.7740119695663452
1761481601846589200,8.490589111328125,0.3216959536075592,-0.9944587349891663,1.4659790992736816
1761481601866532000,8.510531982421876,0.13135863840579987,0.270730197429657,2.2977819442749023
1761481601886475000,8.53047509765625,0.0044326214119791985,0.47042688727378845,1.6427440643310547
1761481601906418200,8.550418212890625,0.07602497935295105,0.11285095661878586,0.04641914367675781
1761481601926361000,8.570361083984375,0.039616480469703674,-0.28071728348731995,-1.141836166381836
1761481601946304000,8.590303955078125,-0.09032224863767624,0.07515761256217957,-1.1939340829849243
1761481601966247200,8.6102470703125,-0.27588406205177307,0.04810876026749611,-0.8305224180221558
1761481601986190000,8.630190185546875,-0.534467875957489,-0.3822254538536072,-0.5613301396369934
1761481602006133000,8.650133056640625,-0.668806791305542,-0.8261358737945557,-0.4276829957962036
1761481602026076200,8.670076171875,-0.7073246240615845,-0.6345372200012207,-0.2430943101644516
1761481602046019000,8.69001904296875,-0.5757684111595154,-0.24691079556941986,-0.10447972267866135
1761481602065962000,8.7099619140625,-0.47336602210998535,0.030644474551081657,0.03265739977359772
1761481602085905200,8.7299052734375,-0.33008578419685364,-0.07073906809091568,0.19990596175193787
1761481602105848000,8.74984814453125,-0.16826966404914856,0.27197250723838806,0.46870747208595276
1761481602125791000,8.769791015625,0.08228451013565063,1.070634365081787,0.6026698350906372
1761481602145733000,8.789733154296876,0.09220043569803238,1.8623708486557007,0.4510926604270935
1761481602165676000,8.809676025390624,-0.18094518780708313,2.0360844135284424,0.1698276698589325
1761481602185619200,8.829619140625,-0.5181967616081238,1.2147598266601562,-0.30210593342781067
1761481602205562000,8.84956201171875,-0.24841560423374176,0.3751640319824219,-0.7616124749183655
1761481602225505000,8.869505126953126,-0.004239134956151247,-0.12004207074642181,-0.5295261144638062
1761481602245448200,8.8894482421875,0.0005173896788619459,-0.5187681317329407,0.1484912782907486
1761481602265391000,8.90939111328125,0.3295864462852478,-0.28243252635002136,0.8430103659629822
1761481602285334000,8.929333984375,0.5565006732940674,0.021063055843114853,0.9484054446220398
1761481602305277700,8.949277587890625,0.27874910831451416,-0.2464897334575653,0.6373924612998962
1761481602325220600,8.969220703125,-0.08575369417667389,-0.5648506879806519,0.5171797871589661
1761481602345163500,8.98916357421875,-0.29360270500183105,-1.3804939985275269,0.29101526737213135
1761481602365106700,9.009106689453125,-0.2155030369758606,-0.9889228343963623,0.31984633207321167
1761481602385049600,9.029049560546875,0.009423512034118176,0.033592112362384796,0.4016916751861572
1761481602404992500,9.048992431640626,-0.1984829306602478,-0.2551015019416809,-0.1249566525220871
1761481602424935700,9.068935791015624,-0.18990908563137054,-0.6234904527664185,-0.7970038652420044
1761481602444878600,9.088878662109375,0.01652712933719158,0.015395117923617363,-0.9546116590499878
1761481602464821500,9.108821533203125,0.46985629200935364,0.12687498331069946,-1.0117567777633667
1761481602484764700,9.1287646484375,0.5514622926712036,-0.257053405046463,-0.8355712294578552
1761481602504707600,9.14870751953125,-0.05507322773337364,0.37965378165245056,-0.2889658212661743
1761481602524650500,9.168650390625,-0.5308771729469299,1.0234912633895874,0.025903459638357162
1761481602544594400,9.188594482421875,-0.5737988352775574,1.1139589548110962,0.05800100043416023
1761481602564537600,9.20853759765625,-0.294916570186615,0.8103726506233215,-0.21398158371448517
1761481602584481500,9.2284814453125,-0.002134911948814988,0.3057156503200531,-0.6058593392372131
1761481602604424400,9.248424560546875,0.010129418224096298,0.011321546509861946,-0.8665869832038879
1761481602624367400,9.268367431640625,-0.24134404957294464,0.37152644991874695,-0.8030204772949219
1761481602644310500,9.288310546875,-0.4808307886123657,0.7479368448257446,-0.5598594546318054
1761481602664253400,9.30825341796875,-0.4202409088611603,0.5509766936302185,-0.35512322187423706
1761481602684196400,9.3281962890625,-0.221824511885643,0.15717913210391998,-0.14112602174282074
1761481602704139500,9.348139404296875,-0.06507840007543564,-0.00527283176779747,0.07721202820539474
1761481602724082400,9.36808251953125,0.03714130446314812,0.06680275499820709,0.3518748879432678
1761481602744025300,9.388025390625,0.09566418826580048,0.005266220774501562,0.6760834455490112
1761481602763968500,9.407968505859374,0.17385926842689514,-0.32105839252471924,0.9596030712127686
1761481602783911400,9.427911376953125,0.3771672546863556,-0.0833526998758316,1.1488498449325562
1761481602803854600,9.4478544921875,0.7047426104545593,0.3360944390296936,1.0661656856536865
1761481602823797500,9.467797607421875,0.6789183616638184,0.0877181887626648,0.7053268551826477
1761481602843740400,9.487740478515626,0.16378186643123627,-0.37278738617897034,0.4827086627483368
1761481602863683600,9.50768359375,-0.4214693605899811,-0.37276872992515564,0.30136361718177795
1761481602883626500,9.52762646484375,-0.6669897437095642,0.1356048583984375,0.267869770526886
1761481602903569400,9.5475693359375,-0.44117337465286255,0.8559329509735107,0.4495948255062103
1761481602923512600,9.5675126953125,-0.1647808849811554,1.1695420742034912,0.3993704915046692
1761481602943455500,9.58745556640625,-0.3635990619659424,0.8053279519081116,-0.13756246864795685
1761481602963398400,9.6073984375,-0.6518385410308838,0.08827279508113861,-0.9422576427459717
1761481602983341600,9.627341552734375,-0.5653855204582214,-0.47509583830833435,-1.4278544187545776
1761481603003284500,9.647284423828125,-0.39530155062675476,-0.8963884115219116,-1.2498434782028198
1761481603023227400,9.667227294921876,-0.6155058741569519,-0.6248859167098999,-0.38484418392181396
1761481603043170600,9.687170654296875,-1.0672080516815186,0.24385401606559753,0.5118952393531799
1761481603063113500,9.707113525390625,-0.9920994639396667,0.2851569354534149,0.6608818173408508
1761481603083057400,9.727057373046875,-0.36450672149658203,-0.6458764672279358,0.1371454894542694
1761481603103000300,9.747000244140626,0.26581618189811707,-1.7595564126968384,-0.23530936241149902
1761481603122943500,9.766943603515625,0.723154604434967,-2.1051080226898193,0.17020246386528015
1761481603142886400,9.786886474609375,0.7735474705696106,-1.0670485496520996,0.7825546264648438
1761481603162829300,9.806829345703125,0.4840999245643616,0.56681227684021,0.9306886196136475
1761481603182772500,9.8267724609375,0.20319657027721405,1.2969506978988647,0.5988095998764038
1761481603202715400,9.84671533203125,-0.0804048404097557,0.7929416298866272,0.15525338053703308
1761481603222658300,9.866658203125,-0.1148146465420723,-0.37710100412368774,-0.04100460931658745
1761481603242601500,9.8866015625,0.23106266558170319,-0.9475927352905273,0.0488312803208828
1761481603262544400,9.90654443359375,0.5836141109466553,-0.8327308893203735,0.014047474600374699
1761481603282487300,9.9264873046875,1.0234458446502686,-0.5809934139251709,-0.41167348623275757
1761481603302430000,9.946429931640624,1.3292782306671143,-0.5382119417190552,-0.8116923570632935
1761481603322372900,9.966372802734375,1.2358875274658203,0.26159536838531494,-0.7297048568725586
1761481603342316000,9.98631591796875,0.591724157333374,0.7067583799362183,-0.6300812363624573
1761481603362259000,10.006259033203126,-0.11656955629587173,0.05794348195195198,-0.7480371594429016
1761481603382201900,10.026201904296874,-1.013541340827942,-0.2023831456899643,-0.5720095634460449
1761481603402145000,10.04614501953125,-1.856589674949646,0.7248008847236633,0.08069317787885666
1761481603422088000,10.066087890625,-1.4462109804153442,0.7347275614738464,0.5181158781051636
1761481603442030800,10.08603076171875,-0.04927358403801918,0.929423451423645,0.6964351534843445
1761481603461974000,10.10597412109375,0.5775918364524841,0.7216101884841919,0.22310465574264526
1761481603481917000,10.1259169921875,0.21336735785007477,0.37965163588523865,-0.6999874711036682
1761481603501860900,10.14586083984375,0.07148624956607819,-0.06385969370603561,-1.3507771492004395
1761481603521803800,10.1658037109375,0.2694975733757019,-0.7530896067619324,-1.8760639429092407
1761481603541747000,10.185746826171876,0.1896238476037979,-0.5731611847877502,-2.4919962882995605
1761481603561689900,10.20568994140625,-0.24072794616222382,0.6831982135772705,-2.2359702587127686
1761481603581632800,10.2256328125,-0.5562224984169006,1.579729437828064,-1.07560396194458
1761481603601576000,10.245575927734375,-0.6469255685806274,0.9483596682548523,-0.053326595574617386
1761481603621518800,10.265518798828126,-0.7334005236625671,-0.4013076424598694,0.01635693572461605
1761481603641461800,10.285461669921874,-0.9000495076179504,-0.8477007746696472,-0.09032347053289413
1761481603661405000,10.305405029296875,-0.7308318614959717,-0.4368494153022766,0.008832032792270184
1761481603681347800,10.325347900390625,-0.29579460620880127,0.10463715344667435,-0.004057158716022968
1761481603701290800,10.345290771484375,-0.06553420424461365,0.580834150314331,-0.047726310789585114
1761481603721234000,10.36523388671875,0.02283135987818241,1.0697740316390991,0.12303859740495682
1761481603741176800,10.3851767578125,-0.13766039907932281,0.735596239566803,0.44887402653694153
1761481603761119700,10.40511962890625,-0.33722788095474243,-0.15459869801998138,0.9168014526367188
1761481603781063000,10.42506298828125,-0.054858606308698654,-1.0704425573349,1.1337906122207642
1761481603801005800,10.445005859375,0.4660223126411438,-1.0457931756973267,1.1407784223556519
1761481603820948700,10.46494873046875,0.7106685042381287,-0.685575544834137,1.050830364227295
1761481603840892000,10.484891845703125,0.7811040282249451,-0.558390736579895,0.8748891949653625
