time,seconds_elapsed,z,y,x
1761505835809145900,0.078145751953125,0.08734919762909411,-0.38846594136208296,-0.6709369482707231
1761505835829302800,0.098302734375,0.15144962161779402,-0.29884879880100484,-0.49371108036153016
1761505835849459000,0.118458984375,0.1686649603128433,-0.32684812796935436,-0.561059911686927
1761505835869614800,0.13861474609375,0.18064356739819049,-0.4365576259665191,-0.4633777552876621
1761505835889772000,0.15877197265625,0.23431378278732298,-0.583087619099766,-0.41322161243408917
1761505835909928000,0.178927978515625,0.27284955740869044,-0.6414015686415135,-0.33329445456452667
1761505835930083800,0.199083740234375,0.29625030674040315,-0.7082495377726853,-0.2493617143154144
1761505835950240800,0.21924072265625,0.40218671593964095,-0.7355693602442741,-0.21684498078785835
1761505835970396700,0.239396728515625,0.41657881390750406,-0.7458313726700841,-0.16970394797176122
1761505835990553900,0.259553955078125,0.33285131390690803,-0.7800444617867469,-0.14716777958013116
1761505836010709800,0.279709716796875,0.2996463789194822,-0.7664088812746107,-0.15529029575921593
1761505836030866000,0.299865966796875,0.19221242463886737,-0.7687786791458725,-0.16557875780053435
1761505836051022800,0.32002294921875,0.1322235276222229,-0.766878252352029,-0.18514957358054815
1761505836071179000,0.340178955078125,0.0418231257289648,-0.7125624325357377,-0.14757767555527387
1761505836091335000,0.3603349609375,0.09615794250667095,-0.6654841627575456,-0.25415647431127725
1761505836111491800,0.380491943359375,0.11451660601794719,-0.6916545229330658,-0.22403248113915322
1761505836131647700,0.400647705078125,0.03431085040271282,-0.7747976471744478,-0.17092603711262344
1761505836151805000,0.420804931640625,-0.01862111383974552,-0.8278028227835893,-0.1841096360735595
1761505836171960800,0.4409609375,-0.12092764210402965,-0.9175096894547343,-0.17926373041234908
1761505836192116700,0.46111669921875,-0.1375695648252964,-0.9239113731905817,-0.2677463890507817
1761505836212274000,0.48127392578125,-0.14334054944217203,-0.919399448724091,-0.31166816755943
1761505836232429800,0.501429931640625,-0.12269757438600062,-0.9458741986736655,-0.41463389038480813
1761505836252586800,0.521586669921875,-0.11588906341493128,-0.9825107155449688,-0.4383142603754997
1761505836272742700,0.54174267578125,-0.21706571086645124,-1.0649532903015613,-0.3063638506062329
1761505836292898800,0.56189892578125,-0.5042296248316764,-1.2660863957598805,-0.15333097838498652
1761505836313055700,0.5820556640625,-0.7595739206880331,-1.1974867606557904,-0.2122363910138607
1761505836333212000,0.6022119140625,-0.8449871818184852,-1.0552334219284356,-0.3451592990770936
1761505836353367800,0.622367919921875,-0.9286112214446067,-0.9040667089052498,-0.456889562312141
1761505836373525000,0.64252490234375,-0.7908505179613828,-0.6589154518917203,-0.510152731270343
1761505836393681000,0.662680908203125,-0.5702420199215412,-0.5303976469196379,-0.4899708709198981
1761505836413837800,0.682837890625,-0.30450726295411584,-0.3657131345450878,-0.4169882714912295
1761505836433993700,0.70299365234375,0.03337269276976585,-0.33856296955198045,-0.3323259748585522
1761505836454149600,0.723149658203125,0.1864034460991621,-0.3469517354518175,-0.20620368672087788
1761505836474306800,0.743306884765625,0.37762101448178287,-0.17132789591178296,-0.0932493615835905
1761505836494462700,0.763462646484375,0.3663374039232731,-0.27742227215170856,0.04324541361704468
1761505836514619000,0.783618896484375,0.3539209899425506,-0.18899024772197007,0.2147382908321917
1761505836534775800,0.80377587890625,0.3388613679766655,-0.07318389415442943,0.33461087092533703
1761505836554932000,0.823931884765625,0.18460136511325836,0.019894787037372588,0.3631701720640063
1761505836575088600,0.844088623046875,0.03307400208413601,0.2780848277136683,0.32030440541431304
1761505836595244800,0.864244873046875,-0.12218319512307643,0.5479650139227509,0.19241276951655745
1761505836615400700,0.884400634765625,-0.19605156441032887,0.832309194292128,0.09107859341576695
1761505836635558000,0.904557861328125,-0.21851532515287397,1.034927277611196,0.021129297268390655
1761505836655713800,0.9247138671875,0.008096212694048881,1.0308885236144065,-0.03065072045996785
1761505836675869700,0.94486962890625,0.15632278061211108,0.9813599380746483,0.10339359284862876
1761505836696027000,0.96502685546875,0.3136345722615719,0.7974398332238197,0.30165114287063477
1761505836716182800,0.985182861328125,0.4530144013792276,0.5663923587560653,0.4715073587946593
1761505836736339700,1.005339599609375,0.4949152685195207,0.38660277783870695,0.5588920661285519
1761505836756495600,1.02549560546875,0.42822132090628146,0.26888620673567054,0.6411202674821018
1761505836776651800,1.04565185546875,0.37820202924013135,0.12169687291085719,0.6029346214726566
1761505836796808700,1.06580859375,0.311243293210864,0.01737725125849247,0.7715297314196825
1761505836816964900,1.08596484375,0.21149346369206903,-0.06592617811113595,0.8725415436983108
1761505836837120800,1.106120849609375,-0.02068155350089073,-0.1317874742925167,0.9529613804556429
1761505836857278000,1.12627783203125,-0.24717735601365565,-0.18283932387679813,0.9079337595969438
1761505836877433900,1.146433837890625,-0.5774491748213768,-0.008115501916408538,0.6104487964950501
1761505836897590800,1.1665908203125,-0.6367939287155866,0.2612494282469153,0.27549305765479803
1761505836917746700,1.18674658203125,-0.604884878757596,0.5361445200085639,0.12635010554417966
1761505836937902800,1.20690283203125,-0.341518019965291,0.6571437660440802,-0.10056363011971116
1761505836958059800,1.227059814453125,-0.11176058530807495,0.5896183360427618,-0.19637348984107375
1761505836978216000,1.2472158203125,0.05011982943117618,0.393574078156054,-0.11421338528767228
1761505836998371800,1.267371826171875,0.15502221940755842,0.058925651699304575,-0.003112579062581062
1761505837018528800,1.28752880859375,0.25137071605026723,-0.2002548613190651,0.20182766359373927
1761505837038685000,1.307684814453125,0.24002105451822278,-0.3392342929422855,0.3844397545859217
1761505837058841600,1.327841552734375,0.17579203571379184,-0.4134276564002037,0.44511941034570335
1761505837078997800,1.347997802734375,0.11481178957223892,-0.35575171250104903,0.31262583361044527
1761505837099153700,1.368153564453125,0.047425183519721026,-0.3106219464421272,0.140558955899626
1761505837119310800,1.388310791015625,-0.06915829190015793,-0.3125593442454934,0.04787921089753508
1761505837139466800,1.408466796875,-0.06963759984970093,-0.2896510546058416,0.07326660400182008
1761505837159623000,1.428622802734375,-0.04286941991150379,-0.3012435849830508,0.04119724891558289
1761505837179779800,1.44877978515625,0.07949146986603736,-0.3034668139904737,0.06530366229861974
1761505837199936000,1.46893603515625,0.16387947960197924,-0.3009837650030851,0.12554171177074314
1761505837220092700,1.4890927734375,0.1992342860996723,-0.2820259665548801,0.15699235043674706
1761505837240248800,1.509248779296875,0.20703473071753978,-0.23678806394636628,0.1814617519132793
1761505837260404700,1.52940478515625,0.2088502557069063,-0.2732023163691163,0.2047043880738318
1761505837280562000,1.54956201171875,0.1939753426581621,-0.29837592059224843,0.24207564896047115
1761505837300717800,1.5697177734375,0.18364099564850328,-0.34081513239294287,0.2878616869710386
1761505837320875000,1.589875,0.18649521603584288,-0.3969906086012721,0.3507660330429673
1761505837341031000,1.610031005859375,0.2190373032003641,-0.4688903081640601,0.4575746950320899
1761505837361186800,1.630186767578125,0.23008125978410243,-0.5141361018180847,0.5337140779912471
1761505837381343700,1.65034375,0.2209972050964832,-0.5190589451730251,0.5626349059186876
1761505837401499600,1.670499755859375,0.2675800925731659,-0.5118465295761824,0.5830220065176487
1761505837421655800,1.69065576171875,0.19800795917510985,-0.4914882166802883,0.7049250695250928
1761505837441812700,1.710812744140625,0.21741817756593226,-0.46043169189840555,0.6882099354371428
1761505837461969000,1.730968994140625,0.2059884365350008,-0.38897564444988963,0.7155522620014846
1761505837482125800,1.751125732421875,0.3321563173800707,-0.33213527459204195,0.6944967606216669
1761505837502282000,1.771281982421875,0.47575230288803577,-0.33772622646689415,0.7372479609809816
1761505837522438000,1.79143798828125,0.5193845238655805,-0.3768447694122791,0.80584569638893
1761505837542594800,1.8115947265625,0.3658241937041282,-0.5754141618624329,0.9729771635241806
1761505837562750700,1.831750732421875,-0.014452888244390488,-0.8906506163626908,1.0576466205500066
1761505837582906600,1.85190673828125,-0.7336848616719246,-0.9676908936843276,0.8944656446062028
1761505837603063800,1.872063720703125,-1.082512912389636,-0.6665308953315019,0.5578207836352288
1761505837623219700,1.8922197265625,-0.8288841882795095,-0.057951545970141884,0.01576440923437476
1761505837643377000,1.912376953125,-0.6287076528936624,0.32419425245970485,-0.1780041588053107
1761505837663532800,1.93253271484375,-0.1830576428025961,0.6792328482553363,-0.3902613003462553
1761505837683689000,1.95268896484375,0.0174935711145401,0.6651021777026355,-0.4909739835478365
1761505837703845600,1.972845703125,0.23563071060478685,0.3797651869036257,-0.25917371795140204
1761505837724001800,1.993001708984375,0.4427887754410505,-0.10921367730423807,0.02506853641346097
1761505837744158700,2.01315869140625,0.509027380502224,-0.4446244664356112,0.2337948004145175
1761505837764315000,2.03331494140625,0.448164623260498,-0.6102601420551538,0.13483020298928022
1761505837784470800,2.053470703125,0.2505482937514782,-0.5532175276234745,0.1122483688250184
1761505837804628000,2.0736279296875,0.10023556720912456,-0.47596010041981934,0.1181426144953817
1761505837824784000,2.093783935546875,0.043972412717342375,-0.42162002294510603,0.07095036294870079
1761505837844939800,2.113939697265625,-0.04546294353604317,-0.21619535777270793,-0.2735959918618202
1761505837865096700,2.1340966796875,-0.14560440272092817,0.11594430073350667,-0.42528629036769267
1761505837885252600,2.154252685546875,-0.1481172623246908,0.4668120405852794,-0.5481603903643787
1761505837905409800,2.174409912109375,-0.047401802644133566,0.737924983459711,-0.6125074095252901
1761505837925566000,2.19456591796875,0.10125380434095858,0.9167036337688564,-0.6690382019773126
1761505837945721900,2.214721923828125,0.08326455866396426,0.9645259999126196,-0.6440314056884497
1761505837965879000,2.234879150390625,0.012957096728682517,0.7752215716749429,-0.5684977335374802
1761505837986035000,2.255034912109375,-0.08988894523978233,0.5339043398663401,-0.4434193284295499
1761505838006191000,2.275191162109375,-0.2789315076708794,0.2488248309597373,-0.3447806750230491
1761505838026347800,2.29534765625,-0.35805531326830387,0.156764971421659,-0.31378684021383524
1761505838046504000,2.31550390625,-0.6002449439972639,0.011944412554800509,-0.2924739300068468
1761505838066660900,2.335660888671875,-0.6675245825439691,0.22729396715313194,-0.3145417502343654
1761505838086817000,2.355817138671875,-0.661055094268918,0.4303218003168702,-0.3612147271472961
1761505838106973000,2.375972900390625,-0.4545470177739858,0.5604150379121303,-0.3288297302406281
1761505838127130000,2.396130126953125,-0.249418412938714,0.6083171912938357,-0.2959394872255623
1761505838147286000,2.4162861328125,0.06521043105721473,0.5989531506210565,-0.15486089136600492
1761505838167443000,2.43644287109375,0.29636896468400953,0.4165115938901901,0.09943345704600215
1761505838187598800,2.456598876953125,0.4950087920218706,0.18331249434649943,0.3293476166348904
1761505838207755000,2.476755126953125,0.5821288570702076,-0.045804596580564974,0.4015986138533801
1761505838227912000,2.496911865234375,0.5436684857726097,-0.0964756301537156,0.3457350531384349
1761505838248068000,2.517068115234375,0.5675047039121389,-0.098800565969944,0.20578969909250736
1761505838268224000,2.53722412109375,0.5508575204938649,0.02785173739120364,0.029507760969921946
1761505838288381200,2.557381103515625,0.41917058396637435,0.06850918034166097,-0.12274645502902566
1761505838308537000,2.577537109375,0.27330548448264597,0.018760230049490928,-0.158100311678648
1761505838328693800,2.59769384765625,0.048263972431421276,-0.08742752356231212,-0.15142901722118257
1761505838348850000,2.617849853515625,-0.1843202100843191,-0.2078185745716095,-0.16417736657001078
1761505838369005800,2.638005859375,-0.38749242015480995,-0.3305740166246891,-0.15935849504619837
1761505838389163000,2.6581630859375,-0.5304588755875825,-0.4418187613651156,-0.24163513865135608
1761505838409319000,2.67831884765625,-0.5242547602504491,-0.5281690110847354,-0.2956414541270584
1761505838429476000,2.69847607421875,-0.5073071325808763,-0.6703117290444671,-0.25867753193229437
1761505838449632000,2.718632080078125,-0.4886339962929487,-0.733811849052459,-0.09388678270429372
1761505838469788200,2.7387880859375,-0.3785895672529936,-0.8132315688565372,-0.06092895434573292
1761505838489944800,2.75894482421875,-0.34596330893635746,-0.8685134572260081,-0.04727167345844209
1761505838510101000,2.77910107421875,-0.3386953637599945,-0.9045283350676298,-0.04517689313627779
1761505838530257000,2.7992568359375,-0.31932080120444295,-0.8761024510502815,-0.06787870041839777
1761505838550414000,2.8194140625,-0.3376753730624914,-0.7359661044768989,-0.06930215735025703
1761505838570570000,2.839570068359375,-0.21430676754713057,-0.5950475214846432,-0.14782317474894224
1761505838590727200,2.85972705078125,-0.12110767484605311,-0.4027012413330376,-0.2446690995197743
1761505838610883000,2.879883056640625,-0.09961597400605678,-0.25939181768149133,-0.3163885471448302
1761505838631039000,2.9000390625,-0.1586480086892843,-0.2321117426984012,-0.3017696546837687
1761505838651196000,2.92019580078125,-0.13988544055223465,-0.357458224157989,-0.22715207446441052
1761505838671351800,2.940351806640625,-0.32043489992618557,-0.3858341315537691,-0.11412483022138475
1761505838691509000,2.960509033203125,-0.3808306241780519,-0.3381944285005331,-0.13904489807486534
1761505838711665000,2.980664794921875,-0.4436474380970001,-0.3189706725925207,-0.27669425013810395
1761505838731821000,3.000821044921875,-0.3784709093093872,-0.2096712167009711,-0.3377636358678341
1761505838751978000,3.02097802734375,-0.3691957159638405,-0.10078355648070574,-0.37018662669733166
1761505838772134100,3.041134033203125,-0.32751638261973853,0.020312427927553653,-0.32429522861614823
1761505838792290800,3.061290771484375,-0.2408621815174818,0.11571750624030827,-0.2961642358921468
1761505838812447000,3.081447021484375,-0.14489888480007648,0.17773147934377193,-0.24293738035634158
1761505838832603000,3.101602783203125,-0.05148877969682216,0.2514779758170247,-0.21274726314544676
1761505838852760000,3.121760009765625,0.038026656055450435,0.29360271484106776,-0.15883052564933894
1761505838872916000,3.141916015625,0.10366261904835701,0.3526534542247653,-0.1131178451359272
1761505838893072000,3.16207177734375,0.250170108088851,0.35731940020918845,-0.0729386872217059
1761505838913229000,3.18222900390625,0.271477684533596,0.3701774204775691,-0.005667670372873544
1761505838933388800,3.202388916015625,0.3406611108750105,0.2782236516624689,0.04170476004630327
1761505838953545500,3.22254541015625,0.37296646667420863,0.2356666587010026,0.10890914139971136
1761505838973701600,3.24270166015625,0.4247071753054857,0.1865478230059147,0.1966235190793872
1761505838993857500,3.262857421875,0.4532195685625076,0.12037497665733098,0.24905893197655676
1761505839014014700,3.2830146484375,0.35612463746666906,0.08594196117967366,0.23819310843870042
1761505839034170600,3.303170654296875,0.2699059051722288,0.07115151154398917,0.20107611457407473
1761505839054327800,3.323327880859375,0.2588251237094402,0.11409078182131051,0.17168825365677476
1761505839074483700,3.343483642578125,0.18711656280457972,0.15625848320424557,0.1662561456054449
1761505839094639900,3.363639892578125,0.10251812518835067,0.15952566830664872,0.16058862136304378
1761505839114796500,3.383796630859375,0.03595569500029087,0.18773118757158516,0.13544541227817536
1761505839134952700,3.40395263671875,0.021963994526863095,0.280060511700809,0.1258110302314162
1761505839155109600,3.424109619140625,0.0007633855879306793,0.3652385027706623,0.17506050656884908
1761505839175265800,3.444265869140625,0.09141337832808494,0.43445086294561625,0.12610621378570794
1761505839195421700,3.464421630859375,0.13707038313150405,0.4445817963376641,0.21964783631414173
1761505839215579000,3.484578857421875,0.1602121892660856,0.28551439319252964,0.29058102893233295
1761505839235734800,3.50473486328125,0.1727653813689947,0.09051701401025056,0.5140663975827395
1761505839255891700,3.5248916015625,0.1862105538755655,-0.14431085577905178,0.7067806342639028
1761505839276047600,3.545047607421875,0.12517127102315426,-0.3301718655645847,0.8150260510578751
1761505839296203500,3.56520361328125,-0.034821722534298896,-0.39101182645261284,0.7500957521162926
1761505839316360700,3.585360595703125,-0.18434417548179624,-0.28228958592712877,0.6314966990903019
1761505839336516600,3.6055166015625,-0.19366496153473853,-0.09567805003523826,0.47956996148005127
1761505839356672800,3.6256728515625,-0.1609101084023714,0.14605506909787655,0.31146760348603125
1761505839376829700,3.64582958984375,-0.18109832542836665,0.2759700275167823,0.2452873044833541
1761505839396985900,3.66598583984375,-0.07104103690683841,0.1978051300793886,0.15983371134251356
1761505839417142500,3.686142578125,0.3522714691698551,0.16697744561731814,0.16300342741981147
1761505839437298700,3.706298583984375,0.4075397674053907,-0.047617198960483074,0.33257147405222054
1761505839457454600,3.72645458984375,0.41266251724660397,-0.189712132255733,0.5304179590553045
1761505839477611800,3.74661181640625,0.44430677878856656,-0.3402238885015249,0.5768164298757911
1761505839497767700,3.766767578125,0.37656712151467797,-0.43839960057139393,0.5226908719345927
1761505839517924900,3.7869248046875,0.2975719107329845,-0.5195993356600404,0.5016702957376837
1761505839538080800,3.807080810546875,0.17807167108356953,-0.6073647128745913,0.4762506077989936
1761505839558236700,3.827236572265625,0.10653905126750468,-0.706434451174736,0.4673340186327696
1761505839578393600,3.8473935546875,0.1497697057068348,-0.7808341508597135,0.47600320890918374
1761505839598549500,3.867549560546875,0.14262041847407816,-0.7340668467268348,0.4754540505938232
1761505839618706700,3.887706787109375,0.17642507292032242,-0.7604220619499683,0.4470525703653693
1761505839638862600,3.907862548828125,0.10692249762713908,-0.7005791492752731,0.41294820232018825
1761505839659018800,3.928018798828125,0.09232347891032695,-0.6904556685373187,0.37681130553409453
1761505839679175700,3.94817578125,0.05102934549152851,-0.6417993357874453,0.412337815336883
1761505839699331800,3.968331787109375,-0.061547232374548906,-0.6305469971500337,0.3831729495204985
1761505839719488500,3.988488525390625,-0.2889858686953783,-0.627728432597965,0.3798912975013256
1761505839739642600,4.008642578125,-0.1841109512478113,-0.48837286113873124,0.393052830760926
1761505839759799800,4.0287998046875,-0.46102995005249975,-0.6800161075875163,0.4373062523767352
1761505839779955700,4.048955810546875,-0.5942237840116024,-0.7924902479924261,0.5416839608918875
1761505839800112600,4.069112548828125,-0.7037602635294199,-0.7037783837080002,0.3331466435916722
1761505839820268500,4.0892685546875,-0.7131289803773164,-0.5560735015764832,0.14540084297284483
1761505839840424700,4.1094248046875,-0.4246639206856489,-0.3276625130921602,-0.05741298211403191
1761505839860581600,4.12958154296875,-0.05767945103049278,-0.12845306917279958,0.0719772948436439
1761505839880737800,4.14973779296875,0.10554770214259623,-0.07233706806674599,0.15018405866138637
1761505839900894700,4.169894775390625,0.1615939990133047,-0.13758476239442824,0.29847945403195913
1761505839921051000,4.19005078125,0.11620295166969298,-0.20419658468216656,0.43345783332027493
1761505839941202400,4.210202392578125,-0.03211889331638813,-0.0816229289367795,0.40249300540983673
1761505839961359600,4.230359619140625,-0.06607961510717869,0.210646783734858,0.24523908142745493
1761505839981515500,4.250515625,-0.17349895634055137,0.4556763140648603,0.046209304923936725
1761505840001672400,4.27067236328125,-0.2281786410331726,0.712851917001605,-0.14005648627020417
1761505840021828400,4.290828369140625,-0.2017798789292574,0.8362906651437282,-0.2825010367207229
1761505840041984500,4.310984619140625,-0.11672668328285217,0.9077148561492562,-0.3141213328652084
1761505840062141400,4.331141357421875,-0.02119184111058712,0.937665465515852,-0.30276560691855847
1761505840082297600,4.351297607421875,0.12591595191061497,0.9743184951305389,-0.3056934770639986
1761505840102453500,4.37145361328125,0.21480828732848167,0.9973626861095428,-0.3606527093503624
1761505840122610700,4.391610595703125,0.2260837145805359,1.0355264125481247,-0.4109680613536387
1761505840142767400,4.411767333984375,0.18081600135564804,1.0123071572631597,-0.4215279607474804
1761505840162923500,4.431923583984375,0.17773498647511005,0.930125133138895,-0.4316255763918161
1761505840183080400,4.45208056640625,0.035684476843476295,0.7811784342527389,-0.37359446237944066
1761505840203236600,4.472236572265625,-0.1106646067649126,0.5773869232401252,-0.30050343414023517
1761505840223393500,4.4923935546875,-0.2452186231613159,0.43248190096020694,-0.30335955422371624
1761505840243549700,4.5125498046875,-0.35991467739939687,0.35689416053444145,-0.3526759583175182
1761505840263705600,4.53270556640625,-0.3933236105263233,0.3972688410207629,-0.42670105253644286
1761505840283862500,4.552862548828125,-0.29145722724497314,0.42478316315114495,-0.5281144313532858
1761505840304018400,4.573018310546875,-0.12256664148271083,0.40283670428097246,-0.5370593698311596
1761505840324175600,4.593175537109375,0.08156126187741757,0.2635945300683379,-0.5137028980325907
1761505840344331500,4.61333154296875,0.16595160970091818,0.06163871005028486,-0.3873835529528558
1761505840364487400,4.6334873046875,0.25817455084621904,-0.15842998202443123,-0.3357223392985761
1761505840384644600,4.65364453125,0.3546288459509611,-0.33768881706595416,-0.29410270025245844
1761505840404800500,4.673800537109375,0.37735154989063735,-0.44179698792472477,-0.25494068349152804
1761505840424957400,4.69395751953125,0.3037473844975233,-0.5317949464969337,-0.2247835187021643
1761505840445113300,4.71411328125,0.11745149042606354,-0.5425609629221261,-0.2142467809882015
1761505840465269500,4.73426953125,-0.0003752630531787872,-0.40334348475933074,-0.3463839455012232
1761505840485426400,4.754426513671875,-0.2373024432092905,-0.21386267704144118,-0.4732339633915573
1761505840505582600,4.77458251953125,-0.38174014023840425,-0.11524404350966215,-0.5437607671659439
1761505840525739500,4.794739501953125,-0.47478842629194257,-0.1127026884637773,-0.5969969750519841
1761505840545895700,4.814895751953125,-0.4204939415246248,-0.1797640080846846,-0.5236431311581283
1761505840566051600,4.835051513671875,-0.25472762526273723,-0.3037866935946047,-0.4595067590732127
1761505840586208500,4.85520849609375,-0.16689268994331358,-0.43567529017403717,-0.2768397960886359
1761505840606364400,4.875364501953125,0.023003274446725844,-0.6710811059817672,-0.1530398134186864
1761505840626521600,4.895521484375,0.16066285564303398,-0.7951053989268839,-0.07110372687950729
1761505840646677500,4.915677490234375,0.2536123574972153,-0.8091923764683305,-0.017071473244950175
1761505840666833400,4.93583349609375,0.3476455629348755,-0.8474715459801256,-0.013315408647060394
1761505840686990600,4.955990478515625,0.3695966979801655,-0.8148851812824607,-0.01843472442217171
1761505840707146500,4.976146484375,0.31248949387967584,-0.8092686565749346,-0.023686434405297038
1761505840727302700,4.996302734375,0.23201836532652376,-0.7991520439691842,-0.07738741025887429
1761505840747459300,5.016459228515625,0.12134732882082462,-0.7848765581183135,-0.13910656513422726
1761505840767615500,5.036615478515625,-0.02843231375813484,-0.7394675367265939,-0.19914814218617974
1761505840787772400,5.0567724609375,-0.14115794470608234,-0.6887798442795873,-0.27183826147429646
1761505840807928600,5.076928466796875,-0.24605215137600897,-0.6099415776252746,-0.3051123161751777
1761505840828084500,5.09708447265625,-0.3451210128933191,-0.5469980685867369,-0.3054579147424549
1761505840848241700,5.11724169921875,-0.40520401793420313,-0.6887189078725874,-0.17767719187326728
1761505840868397600,5.1373974609375,-0.5805260980486869,-0.71580784419775,-0.035005846929550166
1761505840888554500,5.157554443359375,-0.6358727222174406,-0.6873099178574978,-0.034814708271622655
1761505840908710400,5.17771044921875,-0.6762853966265916,-0.6607159254424274,-0.028991335880383846
1761505840928866800,5.19786669921875,-0.711794516903162,-0.3644508595243096,-0.09329583107382058
1761505840949024000,5.21802392578125,-0.6187871473819017,-0.15956103188097476,-0.20596732068173587
1761505840969180000,5.238179931640625,-0.5064361949652433,0.015618132631480692,-0.19944442171901464
1761505840989337000,5.258337158203125,-0.45192719066441056,0.0980249054223299,-0.2018772748891264
1761505841009493000,5.278492919921875,-0.3251999223709106,0.2047159323811531,-0.14258001339845358
1761505841029649000,5.29864892578125,-0.18348843543529508,0.2312482577368617,-0.20956687954366207
1761505841049805800,5.318805908203125,-0.0384551106005907,0.2898499381788075,-0.32437099726609886
1761505841069962000,5.3389619140625,0.12308335883319377,0.3257553642965853,-0.30170068110078574
1761505841090119000,5.359118896484375,0.24707798729240893,0.33959830394908785,-0.29710078608989715
1761505841110275000,5.379275146484375,0.4278746994256973,0.28491160499379037,-0.20359569617956877
1761505841130431000,5.399430908203125,0.5182108039110899,0.19464330504760144,-0.06560118394047021
1761505841150588200,5.419588134765625,0.5825426985681057,0.1441293617323041,-0.008747808470577
1761505841170744000,5.439744140625,0.6408177774041891,0.08023483557924628,-0.012045827102661132
1761505841190901000,5.45990087890625,0.5702344211369752,0.06176584356129169,-0.001619125634431839
1761505841211057000,5.480056884765625,0.49196051036715505,0.03780570678114891,0.12185030990689992
1761505841231212800,5.500212890625,0.3213467540740967,0.16100947712361813,0.1323592828311026
1761505841251370000,5.520369873046875,0.18635902243554592,0.3105173170238733,0.23580592104122042
1761505841271526000,5.54052587890625,0.17546645702123642,0.3960938058920204,0.34640257713645695
1761505841291682000,5.56068212890625,0.018272738793492317,0.5188470559880137,0.4108879087895155
1761505841311839000,5.5808388671875,-0.1051309380352497,0.6676371030077338,0.37038244153037664
1761505841331995100,5.6009951171875,-0.13275310445427893,0.723234487067163,0.4540750163480639
1761505841352151800,5.62115185546875,-0.08902268379926681,0.6941802420184016,0.5549960816033184
1761505841372308000,5.641307861328125,-0.006764671829342842,0.7051927805505692,0.7670309586957097
1761505841392464000,5.6614638671875,-0.056527358385920524,0.592453705599159,0.9704384388267994
1761505841412621000,5.68162109375,-0.14038579128980636,0.4175035275369882,1.0577943584576248
1761505841432777000,5.70177685546875,-0.3354524363160133,0.3382788919135928,1.059289857712388
1761505841452934100,5.72193408203125,-0.5451666153758764,0.35850437221005554,0.8862428829230368
1761505841473090000,5.742090087890625,-0.7460738031238318,0.5642695213831961,0.6395324137687682
1761505841493246000,5.762245849609375,-0.5834814407229423,0.7313453128084539,0.3437668218053877
1761505841513403000,5.78240283203125,-0.3622796529650688,0.8338521859504282,0.2384320317611098
1761505841533558800,5.802558837890625,-0.01171907936632633,0.6038678106695413,0.1781700168915093
1761505841553716000,5.822716064453125,0.2568511932879686,0.5177072383031249,0.344445159458369
1761505841573871900,5.842871826171875,0.3500321658104658,0.13521715648025273,0.473484065695107
1761505841594028000,5.863028076171875,0.45298751337230203,-0.09930120896846055,0.622208938524127
1761505841614185000,5.88318505859375,0.46734337098300455,-0.2594805188782513,0.6925145007632673
1761505841634341000,5.903341064453125,0.40000060407221316,-0.35069136037155985,0.6150364165462553
1761505841654497800,5.923497802734375,0.23269465715289114,-0.4427928670942783,0.6461322504252195
1761505841674654000,5.943654052734375,0.0682575436681509,-0.49543651591464877,0.615463994308561
1761505841694809900,5.963809814453125,-0.04535305342078209,-0.49734863314628597,0.5376322743482888
1761505841714967000,5.983967041015625,-0.1902110216885805,-0.4377883368052542,0.4612814405955374
1761505841735123000,6.004123046875,-0.2604436648219824,-0.38891236995533107,0.3745559278227389
1761505841755280100,6.024280029296875,-0.3431897525697946,-0.3380699253380298,0.3216669259391725
1761505841775436000,6.04443603515625,-0.32815760313272474,-0.32379648531377314,0.293520297254622
1761505841795592000,6.064592041015625,-0.21999124292433261,-0.2640609785363078,0.27279358943775295
1761505841815748900,6.084748779296875,-0.13817746759057045,-0.21068755413666365,0.27645547294616696
1761505841835904800,6.10490478515625,-0.062411155727505684,-0.13825637804567814,0.28702523614689707
1761505841856062000,6.12506201171875,0.025628946775197982,-0.14003814689591526,0.32133725559338927
1761505841876217900,6.1452177734375,0.11834580891728401,-0.1697463258087635,0.37909327899143097
1761505841896374000,6.1653740234375,0.12200959212183951,-0.268997265894711,0.5255800175048411
1761505841916531000,6.185531005859375,0.08834230031967162,-0.6299746040895581,0.6994463458530604
1761505841936687000,6.20568701171875,-0.029248306316137312,-0.8846353015959262,0.8548848909765482
1761505841956844000,6.225843994140625,-0.19047347201704978,-0.7961774120725691,0.7860016166254877
1761505841977000200,6.246000244140625,-0.2652916893750429,-0.4923164841979742,0.5487925507880747
1761505841997156000,6.266156005859375,-0.06518763470351696,-0.14822422983050346,0.2467456865981221
1761505842017313300,6.286313232421875,0.06428162577450275,0.13353417182937263,0.1555694780267775
1761505842037469200,6.30646923828125,0.13018588431477546,0.2546042911440134,0.1995961051493883
1761505842057625300,6.326625244140625,0.1098410154223442,0.1691116811670363,0.285459740395844
1761505842077782300,6.3467822265625,0.03660626786351204,0.004689619120955467,0.42435777734592556
1761505842097938200,6.366938232421875,-0.06876257058084011,-0.10227043403759598,0.5627594090811908
1761505842118095000,6.38709521484375,-0.17086743879318236,-0.09577741875648497,0.6205962426304816
1761505842138251300,6.407251220703125,-0.22860651105642318,-0.04830284313708544,0.5927072419688105
1761505842158407200,6.4274072265625,-0.30975802308917044,0.02054214503020048,0.5467526424583047
1761505842178564000,6.447564208984375,-0.31582945195734496,0.1569324369430542,0.49951056042052805
1761505842198720300,6.46772021484375,-0.3074064915269613,0.28550416405946016,0.47054209395907814
1761505842218877200,6.487877197265625,-0.2136263840675354,0.4052995872631669,0.4453926743291318
1761505842239033300,6.508033447265625,-0.0643318946570158,0.46558542139977216,0.4459097570057958
1761505842259189200,6.528189208984375,0.08240355792045592,0.49455958694964647,0.4827925037231296
1761505842279346200,6.54834619140625,0.17575754892230033,0.5124152693748474,0.45038244544044137
1761505842299502000,6.568502197265625,0.260209271544218,0.5365031241878867,0.36694077664390207
1761505842319659300,6.5886591796875,0.36581484135389325,0.6747261844858526,0.20435542850568889
1761505842339815200,6.608815185546875,0.44274668986499305,0.8333391218617558,0.0452316189981997
1761505842359971300,6.628971435546875,0.41222295678555965,1.011937447167933,-0.11810294007211923
1761505842380128300,6.649128173828125,0.47128129495382304,1.0653633324071765,-0.24445932922661304
1761505842400284400,6.669284423828125,0.42480069880783555,0.9620400283157825,-0.2904198470212519
1761505842420441000,6.689441162109375,0.4228653468310833,0.8441425476878881,-0.26289807223677636
1761505842440597200,6.70959716796875,0.3068231386810541,0.6142904204845429,-0.2055421540722251
1761505842460753200,6.729753173828125,0.258094471347332,0.32165450484901664,-0.09347381798923016
1761505842480910300,6.749910400390625,0.12852233501672744,0.030555297261476516,-0.00765226831883192
1761505842501066200,6.770066162109375,-0.19193711482882497,-0.2174725381016731,0.14603446470126508
1761505842521223400,6.790223388671875,-0.5329167901337146,-0.3963689695715904,0.19703706831634044
1761505842541379300,6.81037939453125,-0.6766998226463794,-0.4135606351301074,0.207198396846652
1761505842561535200,6.83053515625,-0.6126064129203558,-0.30574206544607874,0.13628537023365497
1761505842581692200,6.850692138671875,-0.5016121358096599,-0.17759879287481306,0.10055668892227113
1761505842601848000,6.87084814453125,-0.33922143346071243,-0.09110065911710262,0.16842421035952865
1761505842622005200,6.891005126953125,-0.18901801251173017,0.01600128673017025,0.15240027340613305
1761505842642161200,6.9111611328125,-0.06371697762906552,0.006055939038097858,0.19962883837521075
1761505842662317300,6.9313173828125,0.13596972841322422,-0.004586158746480941,0.15056282884590327
1761505842682474200,6.95147412109375,0.19874387223422527,0.09893529826551675,0.12490947828181087
1761505842702630400,6.97163037109375,0.341585239982605,0.09015490269958973,0.06336560690812766
1761505842722787000,6.991787109375,0.29249884525239467,0.17054945888519285,0.0692715430162847
1761505842742943200,7.011943115234375,0.25562486636340614,0.2540259067341685,0.13188479718714952
1761505842763099100,7.03209912109375,0.17021628140807152,0.47641807332038877,0.05500526338517665
1761505842783256300,7.05225634765625,0.14029109874367712,0.6040910980314016,0.019865195616707205
1761505842803412200,7.072412109375,0.03125847709476948,0.6524389493539929,0.0009996785618364811
1761505842823569400,7.0925693359375,-0.19877017571926114,0.7183803250342607,0.051582303199172015
1761505842843725300,7.112725341796875,-0.40311610574424267,0.6949190776869654,0.004585428094118833
1761505842863881200,7.132881103515625,-0.5124041634589434,0.6157610775589942,0.07043583755530416
1761505842884038100,7.1530380859375,-0.6363210505068302,0.5805357426598667,0.13533683733716606
1761505842904194000,7.173194091796875,-0.7286860304713249,0.48219051924198864,0.19244521048143504
1761505842924350200,7.19335009765625,-0.8740314899951219,0.3071840809479356,0.24782632144168018
1761505842944506000,7.213506103515625,-0.9434680143147707,0.24134178172796963,0.23163550348877907
1761505842964662000,7.233662109375,-0.8561673320025205,0.04590747243314981,0.22156726006940006
1761505842984819200,7.253819091796875,-0.6964478946894407,0.03461947796046733,0.246229261508584
1761505843004975000,7.27397509765625,-0.4600087903112173,-0.085986092582345,0.22542846554219723
1761505843025131300,7.29413134765625,-0.2156260334521532,-0.06412994234412908,0.27510727320760486
1761505843045288200,7.3142880859375,0.03393091117441654,-0.03662877195626497,0.2901579812146723
1761505843065444400,7.3344443359375,0.08954290828108787,-0.10939619426429271,0.36519232554137704
1761505843085601000,7.35460107421875,-0.03155716778039932,0.0702443335711956,0.35657676514834163
1761505843105757200,7.374757080078125,-0.0467640892624855,0.2817456883087754,0.16657792490571735
1761505843125913000,7.3949130859375,-0.02874561749100685,0.6030810442060232,0.07965601277798413
1761505843146070300,7.4150703125,-0.002433364626765251,0.8953829055815935,0.00851239227950573
1761505843166226200,7.43522607421875,-0.03493570430278778,1.0825099897801875,-0.0155992818005383
1761505843186383400,7.45538330078125,0.08668576528429985,1.1642810950160025,0.017642478065937755
1761505843206539300,7.475539306640625,0.11527765351831912,1.106580601197481,0.2076910026691854
1761505843226695400,7.4956953125,0.20349311258792877,1.1666288271859289,0.3007229221098125
1761505843246852000,7.51585205078125,0.2935778726607561,1.060058211736381,0.302809811386466
1761505843267008300,7.53600830078125,0.26842648026943206,1.0338368520259857,0.2665871360130608
1761505843287165200,7.556165283203125,0.0890448956310749,0.9399038920924067,0.2601270000882447
1761505843307321000,7.576321044921875,0.017847206857800484,0.8740586702629923,0.27002850863859057
1761505843327477200,7.596477294921875,-0.052019525572657585,0.8160328900128603,0.26211583581790326
1761505843347634200,7.61663427734375,-0.1172434006333351,0.8410632863730192,0.282164205981791
1761505843367790300,7.636790283203125,-0.27127251735031604,0.8711617797777056,0.23413243487104773
1761505843387947000,7.656947021484375,-0.41783962762355803,0.7520835649326443,0.25734905980750916
1761505843408103200,7.677103271484375,-0.608150602555275,0.7471922857597469,0.16124328587949274
1761505843428259000,7.697259033203125,-0.6739549078524112,0.7160244095578789,0.005400689999759197
1761505843448416300,7.717416259765625,-0.7328425656288862,0.7599088517308235,-0.13599603189826012
1761505843468572200,7.737572265625,-0.6621002194076776,0.7610629902020096,-0.2395760872296989
1761505843488729300,7.757729248046875,-0.5606611216276883,0.7564397143155336,-0.2902433214105665
1761505843508885200,7.77788525390625,-0.39536359192132947,0.6187985455587506,-0.3289904006950557
1761505843529041400,7.79804150390625,-0.2865571802437305,0.40175387748032804,-0.2995857347734272
1761505843549198000,7.818197998046875,-0.22275193980932234,0.23351824849545955,-0.19447057882919908
1761505843569354200,7.838354248046875,-0.20001754543185232,0.14590338566750288,-0.17147884868979454
1761505843589511200,7.85851123046875,-0.132667179736495,0.07005904013216495,-0.2068937148116529
1761505843609667300,7.878667236328125,-0.17040215936899183,-0.014402327100932597,-0.2021843680769205
1761505843629823200,7.8988232421875,-0.16993161924779415,-0.08873392998576164,-0.18932357132956384
1761505843649980400,7.91898046875,-0.2249281148046255,-0.09447744207382201,-0.15493790212497113
1761505843670136300,7.93913623046875,-0.19001286876797674,-0.019455226576328276,-0.1937747055195272
1761505843690293000,7.95929296875,-0.05143792629241943,0.06282499722540379,-0.23834201539009808
1761505843710449200,7.97944921875,0.013066402322053909,0.12799918792545795,-0.19859642658755183
1761505843730605000,7.99960498046875,0.08950199174880981,0.11915917112678288,-0.11759177567958831
1761505843750761200,8.01976123046875,0.1638169357597828,0.07122253095358609,0.008854045324027537
1761505843770917000,8.039917236328124,0.22369769622683525,0.0042681788384914396,0.12413447532132267
1761505843791074300,8.06007421875,0.1456827286541462,-0.08578589383512734,0.22389263427704573
1761505843811230200,8.080230224609375,0.11642097833454608,-0.18413637795001267,0.2466477791815996
1761505843831387400,8.100387451171875,0.03888824132084846,-0.21422990291863678,0.22420652253180742
1761505843851543300,8.120543212890626,0.006787468183040619,-0.23087591729313134,0.22969065303131936
1761505843871699200,8.14069921875,0.01903729342520237,-0.2419888474598527,0.21033684100285172
1761505843891856100,8.160856201171875,0.027175007173418995,-0.28454145650714635,0.27906653222739697
1761505843912012000,8.181011962890626,0.07450783623456954,-0.3877946179717779,0.29630057562291623
1761505843932169200,8.201169189453125,0.08764145857393742,-0.33650077632516623,0.3397830128662288
1761505843952326700,8.22132666015625,0.09184767809212208,-0.33140169962048527,0.304413739451766
1761505843972482600,8.241482666015624,0.08505962538719176,-0.3393637645408511,0.2556244279719889
1761505843992639500,8.261639404296876,0.06050912149846553,-0.34470424878597256,0.2004021608352661
1761505844012795400,8.28179541015625,-0.044458150407671926,-0.4046151121303439,0.1663607750236988
1761505844032952600,8.30195263671875,0.09545593171715736,-0.4186947831481695,0.29960546238720415
1761505844053108500,8.3221083984375,-0.0765665223300457,-0.6122714818775653,0.3346322059743106
1761505844073264600,8.3422646484375,-0.09002864597141742,-0.5369736643090843,0.3629027532994747
1761505844093421600,8.362421630859375,-0.2407663199275732,-0.443297017224133,0.40332141905799507
1761505844113577700,8.38257763671875,-0.25014322008192535,-0.32513328687548637,0.17681874841302633
1761505844133734400,8.402734375,-0.40944530876576896,-0.10776157879978418,0.22690540622696279
1761505844153891600,8.4228916015625,-0.2077221284598112,-0.07074263848215341,-0.037431905032694335
1761505844174047500,8.443047607421875,-0.12353694781959056,-0.028856676650047302,-0.06499035856574774
1761505844194204700,8.46320458984375,-0.15207272195219992,-0.11404869624525307,0.1976557847365737
1761505844214360600,8.483360595703125,0.08463701606094837,0.11535890206098556,-0.00739478642642498
1761505844234516700,8.503516845703125,-0.020449498310685158,-0.05299889199882746,0.07365721075460314
1761505844254673400,8.52367333984375,-0.050454760473966596,-0.11135112772434949,0.03959770476445555
1761505844274829600,8.54382958984375,0.07031447619795798,-0.26741847227066756,0.1283791271537542
1761505844294985500,8.5639853515625,0.15916531056165695,-0.46218964148163794,0.3033728520967066
1761505844315142700,8.584142578125,0.23259002773463724,-0.5892705455183983,0.45479149405434727
1761505844335298600,8.604298583984376,0.21618658994436263,-0.6677788495659828,0.6000144962422549
1761505844355455700,8.624455810546875,0.09385609530508518,-0.598097995096445,0.5721442002810537
1761505844375611600,8.644611572265624,0.20575053612589836,-0.5806181602463126,0.5915250464469194
1761505844395767600,8.664767578125,0.15091419956684113,-0.5169546663701534,0.3924111718565225
1761505844415924500,8.684924560546875,0.27866730377674104,-0.4278504417672753,0.05437602557092905
1761505844436080400,8.705080322265625,0.3040881607592106,-0.5176671985536814,-0.007642039185762405
1761505844456237600,8.725237548828124,0.1881938366472721,-0.2388026186391711,0.2521678577773273
1761505844476393500,8.7453935546875,0.46515141389667986,-0.4921662620723247,-0.08751695541143417
1761505844496549600,8.765549560546875,0.505175965771079,-0.2914405683711171,0.4907423667490482
1761505844516706600,8.78570654296875,0.2855097170174122,-0.1791056903064251,0.22271204619035123
1761505844536862700,8.80586279296875,0.30690321817994115,-0.09775193369984626,0.18217282279208302
1761505844557019400,8.826019287109375,0.1770961040496826,0.109115916018188,0.09111322633773088
1761505844577175600,8.846175537109374,0.03229483440518379,0.30652912417054173,0.04609378878548741
1761505844597331500,8.86633154296875,-0.14194061951637268,0.37665304623246193,-0.014982318945974111
1761505844617488600,8.886488525390625,-0.3460153313845396,0.4141965949460864,-0.06566219341270625
1761505844637644500,8.90664453125,-0.4977618901222944,0.4137175792574882,0.007596738739311695
1761505844657801700,8.9268017578125,-0.6484685844182968,0.418082204207778,0.09415807392634451
1761505844677957600,8.94695751953125,-0.8565595461905002,0.5517015701025724,0.04210201573558151
1761505844698113800,8.96711376953125,-0.8992851737171411,0.6851195682063699,-0.02885207354016602
1761505844718270500,8.9872705078125,-0.9362205274045466,0.7787637743264436,-0.1631008964449167
1761505844738426400,9.00742626953125,-0.6646873132914304,0.9218626239672303,-0.2863130692895502
1761505844758582500,9.02758251953125,-0.26525486449599267,0.9529805235475302,-0.36139819395542144
1761505844778739500,9.047739501953124,-0.11682605200409889,0.8160925112456083,-0.2006911338444799
1761505844798895600,9.0678955078125,0.009119126001000405,0.5051078689709305,-0.04721519403085112
1761505844819052500,9.088052490234375,0.04129471794068813,0.18818068490475415,0.21070479753240942
1761505844839208700,9.108208740234375,0.10289338824152947,-0.012924948024749755,0.16058482197076082
1761505844859364600,9.128364501953126,0.055547699698805804,-0.035410628338158126,0.225098795196414
1761505844879521500,9.148521484375,0.17805179733932017,0.0744745184868574,0.03041661944314837
1761505844899677400,9.168677490234375,0.23315701396763322,0.3682876612082124,-0.06659158321730792
1761505844919834600,9.188834716796874,0.5202595531344414,0.5262792518153786,-0.1904758101046085
1761505844939989800,9.20898974609375,0.5707376944839954,0.6114344465315341,-0.28937705997005103
1761505844960145700,9.229145751953125,0.5710445684760809,0.4221504765599966,-0.31244784669503567
1761505844980302600,9.249302490234374,0.48417117166519164,0.1028092170894146,-0.327483612861298
1761505845000458800,9.269458740234375,0.3727794196695089,-0.17774930726140736,-0.22207484426535665
1761505845020615700,9.28961572265625,0.3089695030599832,-0.2522366852298379,-0.21196681682486085
1761505845040771800,9.309771728515624,0.20004794057011605,-0.12642916212975977,-0.26741419795434923
1761505845060927700,9.329927734375,0.13119827622771263,0.06894844854176044,-0.5513327733227983
1761505845081084700,9.350084716796875,0.02722761414349079,0.29723054994940756,-0.8047579011522233
1761505845101240600,9.370240478515624,0.04362929836809635,0.33351503851264713,-0.9688169751048088
1761505845121396700,9.390396728515626,-0.10392974555194377,0.26667057651281356,-0.9955473072506487
1761505845141553700,9.4105537109375,-0.07861293346583843,0.07639350385069847,-0.7930106186047196
1761505845161709800,9.430709716796875,0.007824994537234306,-0.30436697770059107,-0.6220190419752151
1761505845181866800,9.45086669921875,-0.03893675663769245,-0.495660826189816,-0.3447787022616714
1761505845202023000,9.47102294921875,0.0012456161469221114,-0.6487620144069195,-0.17087266295757145
1761505845222178800,9.4911787109375,0.015848141995072364,-0.7461155964389443,-0.09614880935214459
1761505845242335700,9.511335693359374,-0.03139291712939739,-0.8468833708286285,-0.09632694239802658
1761505845262491600,9.53149169921875,-0.07534077992737293,-0.8364721591904759,-0.1234278248893097
1761505845282648800,9.55164892578125,0.013182137656211852,-0.6760951347514986,-0.22969467161931095
1761505845302804700,9.5718046875,-0.09676467622816562,-0.7244324646800756,-0.20855295326076448
1761505845322960600,9.591960693359376,0.014717676660418509,-0.5400695844978094,-0.3760156981769949
1761505845343117800,9.612117919921875,-0.06391571507155895,-0.5605380797699093,-0.38559170110002156
1761505845363273700,9.632273681640624,-0.10458733267784118,-0.5500979342982173,-0.4537588630709797
1761505845383430700,9.6524306640625,-0.1691577122658491,-0.5302329578772187,-0.5301263556975871
1761505845403586600,9.672586669921875,-0.20691256564259528,-0.4844920741826296,-0.6664906363863498
1761505845423742700,9.69274267578125,-0.16053776795864105,-0.4741688330888748,-0.6811978647179902
1761505845443899600,9.712899658203124,-0.05278232663869858,-0.5112096929773688,-0.6691331137191504
1761505845464055800,9.733055908203125,0.004044891476631164,-0.523167549535632,-0.5592554195482283
1761505845484211700,9.753211669921875,-0.004967851540446281,-0.6341276321157813,-0.3655816901851445
1761505845504369000,9.773368896484374,-0.23720307448804376,-0.9357105320557951,-0.08252725736536085
1761505845524524800,9.79352490234375,-0.47070612541437146,-0.7830047728970646,-0.00767089995406568
1761505845544681700,9.813681640625,-0.6975017876565456,-0.6102130880430341,0.047647594098746776
1761505845564837600,9.833837646484374,-0.8820318410992621,-0.3803714822337031,-0.18754070650078355
1761505845584993500,9.85399365234375,-0.6120096160709858,0.13514438350498675,-0.24396401999033987
1761505845605150700,9.874150634765625,-0.292684723213315,0.40652416062206026,-0.5734406698323786
1761505845625306600,9.894306640625,-0.13113280977606773,0.5921148290336131,-0.5459755206059664
1761505845645463800,9.9144638671875,-0.051962826949357985,0.5300143466904759,-0.4034958988420665
1761505845665619700,9.93461962890625,-0.13814941053986549,0.4025169708073139,-0.051382615908607834
1761505845685776000,9.95477587890625,-0.04651800554692745,0.29468817199021574,0.15002674920782447
1761505845705932500,9.9749326171875,-0.08674480199515819,0.3215527980402112,0.24807467017956075
1761505845726088700,9.995088623046875,-0.06320902810692787,0.4798559388145804,0.10765351531542837
1761505845746244600,10.01524462890625,-0.11376958704292774,0.6213195884689688,0.009783142867684363
1761505845766401800,10.03540185546875,-0.14775252066552638,0.7280448099583386,-0.022741847031563518
1761505845786557700,10.0555576171875,-0.1813876637637615,0.7492179463684558,-0.11057985109090804
1761505845806715000,10.07571484375,-0.12692775930166245,0.7735431170687079,-0.08637421511709689
1761505845826870800,10.095870849609375,-0.012854805397987366,0.8782213429003953,0.01390358379855752
1761505845847026700,10.116026611328126,0.17841536995470522,0.7577385219544172,0.08953998567163944
1761505845867183600,10.13618359375,0.3134405109941959,0.7987368872970342,0.4164906972326338
1761505845887339500,10.156339599609375,0.06292553499042987,0.5527531249821186,0.3061315031550825
1761505845907496700,10.17649658203125,0.030611995884776113,0.5321007975757122,0.504290122847259
1761505845927652600,10.196652587890625,0.11105565190911293,0.5627335439875721,0.4084622890777886
1761505845947809500,10.2168095703125,0.00007423427999019622,0.6086401396378874,0.47737157465294
1761505845967966500,10.236966552734375,0.3235843038678169,0.5006169872924685,0.38736440986096854
1761505845988122400,10.257122314453126,-0.03414835331737995,0.5683636588290334,0.6114490595787764
1761505846008278500,10.277278564453125,-0.0795510910987854,0.272553789332509,0.48144408478885886
1761505846028435500,10.297435546875,-0.4955927293896675,0.042265608799457545,0.5556994075670838
1761505846048591600,10.317591552734376,-0.3959796779930591,-0.03950666548013687,0.36160555309578774
1761505846068748500,10.33774853515625,-0.37555648316740986,0.06112228496074676,0.3118646399796009
