time,seconds_elapsed,z,y,x
1761505835809145900,0.078145751953125,0.04196486994624138,-0.09830881655216217,-0.12623172998428345
1761505835829302800,0.098302734375,0.04531002789735794,-0.07357180118560791,-0.08105167001485825
1761505835849459000,0.118458984375,0.07631691545248032,-0.11670859158039093,-0.06672302633523941
1761505835869614800,0.13861474609375,0.0836920514702797,-0.13433410227298737,-0.09992700815200806
1761505835889772000,0.15877197265625,0.07815335690975189,-0.09673160314559937,-0.12818622589111328
1761505835909928000,0.178927978515625,0.05814585089683533,-0.07279814034700394,-0.1596420407295227
1761505835930083800,0.199083740234375,0.04418452829122543,-0.0631733164191246,-0.20421074330806732
1761505835950240800,0.21924072265625,0.022989660501480103,-0.040656715631484985,-0.18819528818130493
1761505835970396700,0.239396728515625,0.011970817111432552,-0.04335355758666992,-0.15079660713672638
1761505835990553900,0.259553955078125,0.002925149630755186,-0.045696891844272614,-0.12489798665046692
1761505836010709800,0.279709716796875,-0.010558336973190308,-0.022361507639288902,-0.1171395406126976
1761505836030866000,0.299865966796875,-0.0018460548017174006,0.006286494433879852,-0.12637417018413544
1761505836051022800,0.32002294921875,0.019889742136001587,0.014477304182946682,-0.16693860292434692
1761505836071179000,0.340178955078125,0.016833379864692688,0.01184795517474413,-0.1970825344324112
1761505836091335000,0.3603349609375,0.04648599028587341,0.04751049727201462,-0.15753276646137238
1761505836111491800,0.380491943359375,0.09400555491447449,0.0632210448384285,-0.08025625348091125
1761505836131647700,0.400647705078125,0.10096072405576706,0.07096139341592789,0.002077047945931554
1761505836151805000,0.420804931640625,0.07804303616285324,0.10760907083749771,0.05411386862397194
1761505836171960800,0.4409609375,0.058991938829422,0.1445339173078537,0.024591976776719093
1761505836192116700,0.46111669921875,0.05350896343588829,0.16776134073734283,-0.034677546471357346
1761505836212274000,0.48127392578125,0.04665031656622887,0.2102508693933487,-0.06999976933002472
1761505836232429800,0.501429931640625,0.048288024961948395,0.26792505383491516,-0.05361485108733177
1761505836252586800,0.521586669921875,0.039714157581329346,0.28393957018852234,-0.006664695218205452
1761505836272742700,0.54174267578125,0.014002135023474693,0.20923496782779694,0.06324568390846252
1761505836292898800,0.56189892578125,-0.012365438044071198,0.07360897958278656,0.12740376591682434
1761505836313055700,0.5820556640625,-0.083868108689785,-0.05066058412194252,0.1977817416191101
1761505836333212000,0.6022119140625,-0.1549309492111206,-0.0537400096654892,0.26945552229881287
1761505836353367800,0.622367919921875,-0.2090121954679489,0.025789255276322365,0.30639588832855225
1761505836373525000,0.64252490234375,-0.23632220923900604,0.17753681540489197,0.31266143918037415
1761505836393681000,0.662680908203125,-0.214799165725708,0.31817179918289185,0.315289169549942
1761505836413837800,0.682837890625,-0.20914609730243683,0.36367517709732056,0.3328639566898346
1761505836433993700,0.70299365234375,-0.23927733302116394,0.41896650195121765,0.37737104296684265
1761505836454149600,0.723149658203125,-0.28206005692481995,0.45398208498954773,0.40132105350494385
1761505836474306800,0.743306884765625,-0.3169262409210205,0.47903719544410706,0.40482911467552185
1761505836494462700,0.763462646484375,-0.27975374460220337,0.4468684494495392,0.37777891755104065
1761505836514619000,0.783618896484375,-0.22444868087768555,0.38276761770248413,0.3268934190273285
1761505836534775800,0.80377587890625,-0.18779633939266205,0.28515860438346863,0.2650253176689148
1761505836554932000,0.823931884765625,-0.1574426293373108,0.15518416464328766,0.18491853773593903
1761505836575088600,0.844088623046875,-0.13454601168632507,0.05314271152019501,0.09879868477582932
1761505836595244800,0.864244873046875,-0.10674490034580231,-0.006530436221510172,0.024624841287732124
1761505836615400700,0.884400634765625,-0.05056232213973999,-0.022617794573307037,-0.017743654549121857
1761505836635558000,0.904557861328125,0.037021271884441376,0.021760305389761925,-0.01593402586877346
1761505836655713800,0.9247138671875,0.19487327337265015,0.15932725369930267,0.033538974821567535
1761505836675869700,0.94486962890625,0.3379564583301544,0.2604130804538727,0.056317415088415146
1761505836696027000,0.96502685546875,0.4296087920665741,0.2681640684604645,0.04677657410502434
1761505836716182800,0.985182861328125,0.4770931601524353,0.25285860896110535,0.03434626758098602
1761505836736339700,1.005339599609375,0.47813788056373596,0.2175861895084381,0.008555585518479347
1761505836756495600,1.02549560546875,0.460465669631958,0.20350413024425507,-0.024995772168040276
1761505836776651800,1.04565185546875,0.43367302417755127,0.25493529438972473,-0.06885713338851929
1761505836796808700,1.06580859375,0.3784487843513489,0.252819687128067,-0.10708905756473541
1761505836816964900,1.08596484375,0.34228962659835815,0.13037827610969543,-0.12803837656974792
1761505836837120800,1.106120849609375,0.27109092473983765,-0.060410045087337494,-0.12905901670455933
1761505836857278000,1.12627783203125,0.13305149972438812,-0.16373948752880096,-0.12151647359132767
1761505836877433900,1.146433837890625,-0.015418950468301773,-0.13954344391822815,-0.15555281937122345
1761505836897590800,1.1665908203125,-0.10198799520730972,-0.07359272241592407,-0.19198140501976013
1761505836917746700,1.18674658203125,-0.11480288207530975,-0.032388873398303986,-0.17859399318695068
1761505836937902800,1.20690283203125,-0.02292867936193943,0.08593576401472092,-0.102125383913517
1761505836958059800,1.227059814453125,0.11372082680463791,0.2575458884239197,-0.006740286946296692
1761505836978216000,1.2472158203125,0.2110215425491333,0.38969841599464417,0.011157277040183544
1761505836998371800,1.267371826171875,0.2764394283294678,0.44202572107315063,-0.049354325979948044
1761505837018528800,1.28752880859375,0.27703309059143066,0.36037230491638184,-0.09307906776666641
1761505837038685000,1.307684814453125,0.1937166005373001,0.15965966880321503,-0.07114315778017044
1761505837058841600,1.327841552734375,0.07170376926660538,-0.06597495824098587,0.007663162425160408
1761505837078997800,1.347997802734375,-0.02260759100317955,-0.2172713726758957,0.11732622236013412
1761505837099153700,1.368153564453125,-0.052416928112506866,-0.2339087575674057,0.18000181019306183
1761505837119310800,1.388310791015625,-0.06041722744703293,-0.23021098971366882,0.15584279596805573
1761505837139466800,1.408466796875,-0.09740746021270752,-0.24261073768138885,0.10152331739664078
1761505837159623000,1.428622802734375,-0.14251406490802765,-0.21276912093162537,0.04364423453807831
1761505837179779800,1.44877978515625,-0.17876867949962616,-0.1461770236492157,0.011690826155245304
1761505837199936000,1.46893603515625,-0.18673159182071686,-0.09587723761796951,-0.003142522182315588
1761505837220092700,1.4890927734375,-0.19216568768024445,-0.11800380796194077,-0.03131912276148796
1761505837240248800,1.509248779296875,-0.21117693185806274,-0.167438805103302,-0.04948300123214722
1761505837260404700,1.52940478515625,-0.21046267449855804,-0.18197940289974213,-0.043453071266412735
1761505837280562000,1.54956201171875,-0.1859842985868454,-0.1624056100845337,-0.019075922667980194
1761505837300717800,1.5697177734375,-0.15209193527698517,-0.13368232548236847,0.00042388332076370716
1761505837320875000,1.589875,-0.1388668715953827,-0.12759281694889069,0.014536339789628983
1761505837341031000,1.610031005859375,-0.16287022829055786,-0.1583007127046585,0.026938922703266144
1761505837361186800,1.630186767578125,-0.20434139668941498,-0.18268753588199615,0.041810162365436554
1761505837381343700,1.65034375,-0.2376539707183838,-0.16291983425617218,0.050641246140003204
1761505837401499600,1.670499755859375,-0.24096836149692535,-0.1119203045964241,0.05122744292020798
1761505837421655800,1.69065576171875,-0.2430882304906845,-0.10897065699100494,0.02530897594988346
1761505837441812700,1.710812744140625,-0.2322765588760376,-0.11590616405010223,0.013989840634167194
1761505837461969000,1.730968994140625,-0.23194891214370728,-0.12951979041099548,0.0479557067155838
1761505837482125800,1.751125732421875,-0.20722465217113495,-0.13936103880405426,0.12725333869457245
1761505837502282000,1.771281982421875,-0.1506153643131256,-0.1672767549753189,0.19457939267158508
1761505837522438000,1.79143798828125,-0.10545457154512405,-0.256062775850296,0.2054792046546936
1761505837542594800,1.8115947265625,-0.05938403308391571,-0.3848680257797241,0.20754201710224152
1761505837562750700,1.831750732421875,-0.0639403834939003,-0.47835057973861694,0.1256529986858368
1761505837582906600,1.85190673828125,-0.16596326231956482,-0.5597032308578491,-0.10063791275024414
1761505837603063800,1.872063720703125,-0.30078554153442383,-0.4538041353225708,-0.37391188740730286
1761505837623219700,1.8922197265625,-0.3414147198200226,-0.2602185010910034,-0.5228369832038879
1761505837643377000,1.912376953125,-0.2537887394428253,-0.11152718216180801,-0.5092470645904541
1761505837663532800,1.93253271484375,-0.058829326182603836,0.045218467712402344,-0.33671578764915466
1761505837683689000,1.95268896484375,0.2097322642803192,0.0671444982290268,-0.11076255142688751
1761505837703845600,1.972845703125,0.40730053186416626,0.023681730031967163,0.09460976719856262
1761505837724001800,1.993001708984375,0.48627224564552307,0.021248117089271545,0.24374891817569733
1761505837744158700,2.01315869140625,0.4962797164916992,0.05302383005619049,0.3042847812175751
1761505837764315000,2.03331494140625,0.5205713510513306,0.02457258850336075,0.2829878032207489
1761505837784470800,2.053470703125,0.4904802739620209,-0.14041250944137573,0.20684519410133362
1761505837804628000,2.0736279296875,0.34170565009117126,-0.3510891795158386,0.16957500576972961
1761505837824784000,2.093783935546875,0.11587662994861603,-0.43404799699783325,0.16504402458667755
1761505837844939800,2.113939697265625,-0.07286349684000015,-0.36660465598106384,0.12612181901931763
1761505837865096700,2.1340966796875,-0.19356831908226013,-0.2631838321685791,0.043687764555215836
1761505837885252600,2.154252685546875,-0.23660533130168915,-0.19288870692253113,-0.026851072907447815
1761505837905409800,2.174409912109375,-0.24506893754005432,-0.12166237831115723,-0.007334526628255844
1761505837925566000,2.19456591796875,-0.20983587205410004,-0.06623496860265732,0.10430215299129486
1761505837945721900,2.214721923828125,-0.1717280000448227,-0.06304100155830383,0.23945559561252594
1761505837965879000,2.234879150390625,-0.1258106380701065,-0.08136095851659775,0.3339754343032837
1761505837986035000,2.255034912109375,-0.13036081194877625,-0.09208375215530396,0.3315677344799042
1761505838006191000,2.275191162109375,-0.1793929487466812,-0.11800569295883179,0.21855977177619934
1761505838026347800,2.29534765625,-0.28380531072616577,-0.09862400591373444,0.03570915013551712
1761505838046504000,2.31550390625,-0.3663569390773773,-0.12766839563846588,-0.19294573366641998
1761505838066660900,2.335660888671875,-0.43977493047714233,-0.13832955062389374,-0.3906385600566864
1761505838086817000,2.355817138671875,-0.4777463376522064,-0.13707339763641357,-0.46078893542289734
1761505838106973000,2.375972900390625,-0.45611903071403503,-0.03677981346845627,-0.4109530448913574
1761505838127130000,2.396130126953125,-0.3626610338687897,0.11565801501274109,-0.30991119146347046
1761505838147286000,2.4162861328125,-0.21053831279277802,0.2379162758588791,-0.19104605913162231
1761505838167443000,2.43644287109375,-0.06051572039723396,0.27628612518310547,-0.12333225458860397
1761505838187598800,2.456598876953125,0.025905082002282143,0.27701008319854736,-0.09440480172634125
1761505838207755000,2.476755126953125,0.04743724316358566,0.2282223254442215,-0.09160924702882767
1761505838227912000,2.496911865234375,0.025325125083327293,0.08663951605558395,-0.1039087250828743
1761505838248068000,2.517068115234375,-0.010961716994643211,-0.005615171045064926,-0.12524190545082092
1761505838268224000,2.53722412109375,0.005005333106964827,-0.032040324062108994,-0.16689106822013855
1761505838288381200,2.557381103515625,0.10798239707946777,-0.07622810453176498,-0.229817196726799
1761505838308537000,2.577537109375,0.23720143735408783,-0.10691264271736145,-0.2834007143974304
1761505838328693800,2.59769384765625,0.33440110087394714,-0.15484197437763214,-0.3044546842575073
1761505838348850000,2.617849853515625,0.380325049161911,-0.2196827530860901,-0.28300994634628296
1761505838369005800,2.638005859375,0.3671453595161438,-0.23402522504329681,-0.2270852029323578
1761505838389163000,2.6581630859375,0.3559340536594391,-0.15366895496845245,-0.1752093881368637
1761505838409319000,2.67831884765625,0.36614182591438293,0.014792225323617458,-0.12823855876922607
1761505838429476000,2.69847607421875,0.3745511770248413,0.16439951956272125,-0.0829794630408287
1761505838449632000,2.718632080078125,0.3229875862598419,0.20555002987384796,-0.016868963837623596
1761505838469788200,2.7387880859375,0.2503276467323303,0.2135584056377411,0.0787130743265152
1761505838489944800,2.75894482421875,0.17777381837368011,0.25738072395324707,0.1569245159626007
1761505838510101000,2.77910107421875,0.12639936804771423,0.351411372423172,0.16920967400074005
1761505838530257000,2.7992568359375,0.12226466834545135,0.42862728238105774,0.10757222026586533
1761505838550414000,2.8194140625,0.12046342343091965,0.42468392848968506,0.04290337115526199
1761505838570570000,2.839570068359375,0.11786775290966034,0.4179229736328125,0.06236422061920166
1761505838590727200,2.85972705078125,0.12767162919044495,0.3794589638710022,0.15049898624420166
1761505838610883000,2.879883056640625,0.16425181925296783,0.3146235942840576,0.24567480385303497
1761505838631039000,2.9000390625,0.22119231522083282,0.26410382986068726,0.29273703694343567
1761505838651196000,2.92019580078125,0.2954104542732239,0.23255634307861328,0.29535987973213196
1761505838671351800,2.940351806640625,0.3006556034088135,0.10215818136930466,0.2734655439853668
1761505838691509000,2.960509033203125,0.23740582168102264,-0.006491626612842083,0.27611181139945984
1761505838711665000,2.980664794921875,0.19941380620002747,-0.0007849177345633507,0.2664770483970642
1761505838731821000,3.000821044921875,0.16738782823085785,0.08322097361087799,0.2712082266807556
1761505838751978000,3.02097802734375,0.12210780382156372,0.1475892812013626,0.25885555148124695
1761505838772134100,3.041134033203125,0.06129734590649605,0.19744367897510529,0.22746767103672028
1761505838792290800,3.061290771484375,0.028019435703754425,0.2281394600868225,0.20800848305225372
1761505838812447000,3.081447021484375,0.009637967683374882,0.26389846205711365,0.1899522989988327
1761505838832603000,3.101602783203125,-0.00165839702822268,0.28891921043395996,0.163436621427536
1761505838852760000,3.121760009765625,-0.012989825569093227,0.3062049448490143,0.1234249547123909
1761505838872916000,3.141916015625,-0.010463438928127289,0.2954179048538208,0.10812690854072571
1761505838893072000,3.16207177734375,0.02598673291504383,0.30610254406929016,0.15261077880859375
1761505838913229000,3.18222900390625,0.06479377299547195,0.29039642214775085,0.1684170812368393
1761505838933388800,3.202388916015625,0.10173206776380539,0.26564255356788635,0.12854261696338654
1761505838953545500,3.22254541015625,0.11898817867040634,0.19740869104862213,0.0938689261674881
1761505838973701600,3.24270166015625,0.12626612186431885,0.12261136621236801,0.10412809997797012
1761505838993857500,3.262857421875,0.11037303507328033,0.062100473791360855,0.12800122797489166
1761505839014014700,3.2830146484375,0.0793333575129509,0.0337594598531723,0.10915809869766235
1761505839034170600,3.303170654296875,0.0556001290678978,0.027171209454536438,0.0777515172958374
1761505839054327800,3.323327880859375,0.047307781875133514,0.03259166702628136,0.061821479350328445
1761505839074483700,3.343483642578125,0.04221128299832344,0.01985863968729973,0.04176713526248932
1761505839094639900,3.363639892578125,0.029100295156240463,0.026794884353876114,-0.011626288294792175
1761505839114796500,3.383796630859375,0.006579726468771696,0.04027562215924263,-0.06643904000520706
1761505839134952700,3.40395263671875,-0.01622759737074375,0.01197914406657219,-0.09348778426647186
1761505839155109600,3.424109619140625,-0.03435893356800079,-0.05859143286943436,-0.06787057220935822
1761505839175265800,3.444265869140625,-0.009412003681063652,-0.03562309220433235,0.029635056853294373
1761505839195421700,3.464421630859375,0.03916123881936073,0.02540518529713154,0.09552378952503204
1761505839215579000,3.484578857421875,0.10344064235687256,0.05909395217895508,0.06463993340730667
1761505839235734800,3.50473486328125,0.1264372169971466,0.03145822510123253,-0.02836061455309391
1761505839255891700,3.5248916015625,0.10748837143182755,-0.051314420998096466,-0.1103125736117363
1761505839276047600,3.545047607421875,0.040340788662433624,-0.14417675137519836,-0.16275744140148163
1761505839296203500,3.56520361328125,-0.050760943442583084,-0.16789624094963074,-0.22971752285957336
1761505839316360700,3.585360595703125,-0.11570362746715546,-0.13537506759166718,-0.32019296288490295
1761505839336516600,3.6055166015625,-0.12335137277841568,-0.08290418237447739,-0.4025611877441406
1761505839356672800,3.6256728515625,-0.10696109384298325,-0.03443329781293869,-0.47761771082878113
1761505839376829700,3.64582958984375,-0.09105123579502106,0.009296806529164314,-0.4978081285953522
1761505839396985900,3.66598583984375,0.007219337858259678,0.06802663952112198,-0.449710875749588
1761505839417142500,3.686142578125,0.1052531823515892,0.17387475073337555,-0.3202913701534271
1761505839437298700,3.706298583984375,0.1216927096247673,0.1164369285106659,-0.1825702041387558
1761505839457454600,3.72645458984375,0.06864676624536514,-0.05917281284928322,-0.08623918145895004
1761505839477611800,3.74661181640625,0.025136800482869148,-0.19701679050922394,-0.03105001337826252
1761505839497767700,3.766767578125,0.01734205335378647,-0.24324406683444977,-0.03803380951285362
1761505839517924900,3.7869248046875,0.034491851925849915,-0.23638466000556946,-0.10135626047849655
1761505839538080800,3.807080810546875,0.035667598247528076,-0.2235478013753891,-0.18523097038269043
1761505839558236700,3.827236572265625,-0.0008070159237831831,-0.18484345078468323,-0.22168347239494324
1761505839578393600,3.8473935546875,-0.05450717732310295,-0.1259126514196396,-0.19036385416984558
1761505839598549500,3.867549560546875,-0.10872704535722733,-0.11045407503843307,-0.1658441126346588
1761505839618706700,3.887706787109375,-0.133259579539299,-0.1047476977109909,-0.16486164927482605
1761505839638862600,3.907862548828125,-0.14197883009910583,-0.10530538111925125,-0.1952967792749405
1761505839659018800,3.928018798828125,-0.1314036101102829,-0.1339264214038849,-0.19555197656154633
1761505839679175700,3.94817578125,-0.13111139833927155,-0.18296174705028534,-0.1260705590248108
1761505839699331800,3.968331787109375,-0.13600248098373413,-0.23527729511260986,-0.02848430909216404
1761505839719488500,3.988488525390625,-0.1267039179801941,-0.3262769281864166,0.019634127616882324
1761505839739642600,4.008642578125,-0.13317334651947021,-0.3382582664489746,0.10041497647762299
1761505839759799800,4.0287998046875,-0.10207229852676392,-0.3694281578063965,0.21526074409484863
1761505839779955700,4.048955810546875,-0.08484795689582825,-0.3776208460330963,0.26629164814949036
1761505839800112600,4.069112548828125,-0.11712366342544556,-0.3308281898498535,0.19614578783512115
1761505839820268500,4.0892685546875,-0.15875767171382904,-0.15351778268814087,0.06571301817893982
1761505839840424700,4.1094248046875,-0.12455900758504868,0.06071900203824043,0.022714605554938316
1761505839860581600,4.12958154296875,-0.05293150991201401,0.15073738992214203,0.07355877012014389
1761505839880737800,4.14973779296875,0.03674794360995293,0.09433726221323013,0.12115492671728134
1761505839900894700,4.169894775390625,0.08363644033670425,-0.038863830268383026,0.14969447255134583
1761505839921051000,4.19005078125,0.054010093212127686,-0.17152877151966095,0.15260756015777588
1761505839941202400,4.210202392578125,0.004709928296506405,-0.3140076994895935,0.12046340852975845
1761505839961359600,4.230359619140625,-0.01236689928919077,-0.3856343626976013,0.12982648611068726
1761505839981515500,4.250515625,0.012886697426438332,-0.3840716779232025,0.16074985265731812
1761505840001672400,4.27067236328125,0.036724261939525604,-0.31038516759872437,0.1937335580587387
1761505840021828400,4.290828369140625,0.05226227641105652,-0.20042775571346283,0.2313585877418518
1761505840041984500,4.310984619140625,0.03745236247777939,-0.12174325436353683,0.2696821987628937
1761505840062141400,4.331141357421875,-0.005135638173669577,-0.09874220192432404,0.3140921890735626
1761505840082297600,4.351297607421875,-0.05154147744178772,-0.08835763484239578,0.34928756952285767
1761505840102453500,4.37145361328125,-0.10060985386371613,-0.07486999779939651,0.34087884426116943
1761505840122610700,4.391610595703125,-0.1391715407371521,-0.045153338462114334,0.28317898511886597
1761505840142767400,4.411767333984375,-0.1593940407037735,-0.02436777390539646,0.21193163096904755
1761505840162923500,4.431923583984375,-0.15691205859184265,-0.007686113007366657,0.1321619302034378
1761505840183080400,4.45208056640625,-0.1700415462255478,-0.0030690329149365425,0.019686590880155563
1761505840203236600,4.472236572265625,-0.18222267925739288,-0.009438138455152512,-0.08921945095062256
1761505840223393500,4.4923935546875,-0.21094070374965668,-0.015138870105147362,-0.22604772448539734
1761505840243549700,4.5125498046875,-0.23696894943714142,-0.008856364525854588,-0.3843916058540344
1761505840263705600,4.53270556640625,-0.229340597987175,0.013459593988955021,-0.5128830075263977
1761505840283862500,4.552862548828125,-0.16466455161571503,0.02378448098897934,-0.5326220989227295
1761505840304018400,4.573018310546875,-0.08193815499544144,0.025540616363286972,-0.44015616178512573
1761505840324175600,4.593175537109375,-0.01841793581843376,0.023074230179190636,-0.2955048680305481
1761505840344331500,4.61333154296875,-0.007079825736582279,-0.003700028173625469,-0.1813243329524994
1761505840364487400,4.6334873046875,-0.0016961591318249702,-0.025215864181518555,-0.11433354765176773
1761505840384644600,4.65364453125,0.0007062118966132402,-0.05366327986121178,-0.08230850845575333
1761505840404800500,4.673800537109375,-0.016987890005111694,-0.10083653032779694,-0.08450063318014145
1761505840424957400,4.69395751953125,-0.05487823858857155,-0.1607692688703537,-0.11550723761320114
1761505840445113300,4.71411328125,-0.12434813380241394,-0.22006714344024658,-0.17597025632858276
1761505840465269500,4.73426953125,-0.19207243621349335,-0.24152371287345886,-0.23769314587116241
1761505840485426400,4.754426513671875,-0.21534526348114014,-0.25606510043144226,-0.30301541090011597
1761505840505582600,4.77458251953125,-0.1685163676738739,-0.20815785229206085,-0.32484376430511475
1761505840525739500,4.794739501953125,-0.07204478979110718,-0.1107419803738594,-0.30081886053085327
1761505840545895700,4.814895751953125,0.026847081258893013,0.00963092502206564,-0.20566602051258087
1761505840566051600,4.835051513671875,0.08819622546434402,0.09392094612121582,-0.08456160128116608
1761505840586208500,4.85520849609375,0.08525023609399796,0.1117873564362526,-0.01641172170639038
1761505840606364400,4.875364501953125,0.08304883539676666,0.1506466269493103,0.004806521814316511
1761505840626521600,4.895521484375,0.08323643356561661,0.18488457798957825,-0.00819903053343296
1761505840646677500,4.915677490234375,0.061593443155288696,0.18163834512233734,-0.03055187501013279
1761505840666833400,4.93583349609375,0.04821159318089485,0.18400269746780396,-0.03603905439376831
1761505840686990600,4.955990478515625,0.0498308464884758,0.18539093434810638,-0.020808247849345207
1761505840707146500,4.976146484375,0.08517510443925858,0.14073887467384338,-0.010553526692092419
1761505840727302700,4.996302734375,0.11813919246196747,0.11316055804491043,-0.008564120158553123
1761505840747459300,5.016459228515625,0.1416911482810974,0.10632941126823425,-0.004292060621082783
1761505840767615500,5.036615478515625,0.1598290652036667,0.1102486178278923,-0.015885895118117332
1761505840787772400,5.0567724609375,0.18325062096118927,0.12158464640378952,-0.03614254295825958
1761505840807928600,5.076928466796875,0.2160252183675766,0.12075388431549072,-0.031811993569135666
1761505840828084500,5.09708447265625,0.2591778039932251,0.13821092247962952,0.00967391673475504
1761505840848241700,5.11724169921875,0.3328579366207123,0.14934787154197693,0.07359172403812408
1761505840868397600,5.1373974609375,0.3382613956928253,0.06577716022729874,0.10282140970230103
1761505840888554500,5.157554443359375,0.28389450907707214,0.02797938510775566,0.09720852226018906
1761505840908710400,5.17771044921875,0.20594996213912964,0.01894029974937439,0.08873235434293747
1761505840928866800,5.19786669921875,0.14182962477207184,0.0010067783296108246,0.08625899255275726
1761505840949024000,5.21802392578125,0.13746246695518494,0.06578706949949265,0.09980066120624542
1761505840969180000,5.238179931640625,0.15740306675434113,0.19444540143013,0.10853324830532074
1761505840989337000,5.258337158203125,0.18411728739738464,0.2837706506252289,0.08936575055122375
1761505841009493000,5.278492919921875,0.1859278827905655,0.31660977005958557,0.07161740213632584
1761505841029649000,5.29864892578125,0.1919795423746109,0.3645327091217041,0.07104460895061493
1761505841049805800,5.318805908203125,0.2048415243625641,0.4267498552799225,0.0758543387055397
1761505841069962000,5.3389619140625,0.21439629793167114,0.46132683753967285,0.07554491609334946
1761505841090119000,5.359118896484375,0.24070483446121216,0.469428688287735,0.08009276539087296
1761505841110275000,5.379275146484375,0.26704689860343933,0.4597107470035553,0.08917759358882904
1761505841130431000,5.399430908203125,0.27706173062324524,0.3967767655849457,0.09820380806922913
1761505841150588200,5.419588134765625,0.24533985555171967,0.35333770513534546,0.0993339791893959
1761505841170744000,5.439744140625,0.18718166649341583,0.31854870915412903,0.09568646550178528
1761505841190901000,5.45990087890625,0.1107931137084961,0.253957599401474,0.069744773209095
1761505841211057000,5.480056884765625,0.03273988515138626,0.19087444245815277,0.030086539685726166
1761505841231212800,5.500212890625,-0.024784469977021217,0.11995315551757812,-0.034849803894758224
1761505841251370000,5.520369873046875,-0.05742184817790985,0.03748651221394539,-0.0768410861492157
1761505841271526000,5.54052587890625,-0.06857781857252121,-0.017688943073153496,-0.04169435426592827
1761505841291682000,5.56068212890625,-0.0584956631064415,0.01656767539680004,-0.009766144677996635
1761505841311839000,5.5808388671875,-0.012293449603021145,0.11061377078294754,-0.021311506628990173
1761505841331995100,5.6009951171875,0.055507294833660126,0.21340107917785645,-0.03438839688897133
1761505841352151800,5.62115185546875,0.14820560812950134,0.27245649695396423,-0.033835235983133316
1761505841372308000,5.641307861328125,0.1917715221643448,0.23089145123958588,-0.018922917544841766
1761505841392464000,5.6614638671875,0.18956664204597473,0.1150488555431366,0.0033189263194799423
1761505841412621000,5.68162109375,0.18270990252494812,0.00255025178194046,0.0010796037968248129
1761505841432777000,5.70177685546875,0.15508517622947693,-0.06300324201583862,-0.056152284145355225
1761505841452934100,5.72193408203125,0.10870559513568878,-0.05257266014814377,-0.153004452586174
1761505841473090000,5.742090087890625,0.052613984793424606,0.006542504765093327,-0.2623196840286255
1761505841493246000,5.762245849609375,0.07643058896064758,0.18796446919441223,-0.3192005455493927
1761505841513403000,5.78240283203125,0.16652821004390717,0.34339430928230286,-0.315702348947525
1761505841533558800,5.802558837890625,0.3406934142112732,0.4304294288158417,-0.24560633301734924
1761505841553716000,5.822716064453125,0.418841153383255,0.41179680824279785,-0.18476296961307526
1761505841573871900,5.842871826171875,0.4185740053653717,0.3172845244407654,-0.14774702489376068
1761505841594028000,5.863028076171875,0.37766173481941223,0.20887047052383423,-0.09240490943193436
1761505841614185000,5.88318505859375,0.3369314670562744,0.0988822877407074,-0.044382572174072266
1761505841634341000,5.903341064453125,0.3370681703090668,-0.013607538305222988,-0.04747490957379341
1761505841654497800,5.923497802734375,0.3169513940811157,-0.13290375471115112,-0.09047333896160126
1761505841674654000,5.943654052734375,0.2540815472602844,-0.19982175529003143,-0.10783569514751434
1761505841694809900,5.963809814453125,0.17791977524757385,-0.2041553556919098,-0.08132471889257431
1761505841714967000,5.983967041015625,0.12750205397605896,-0.1785573661327362,-0.05535375326871872
1761505841735123000,6.004123046875,0.12306709587574005,-0.11929376423358917,-0.058028366416692734
1761505841755280100,6.024280029296875,0.12239819765090942,-0.07668734341859818,-0.08424368500709534
1761505841775436000,6.04443603515625,0.11824700981378555,-0.03848171606659889,-0.07671413570642471
1761505841795592000,6.064592041015625,0.09907885640859604,-0.016110394150018692,-0.007161359302699566
1761505841815748900,6.084748779296875,0.07962331175804138,-0.05234333872795105,0.08037164807319641
1761505841835904800,6.10490478515625,0.06824202835559845,-0.11044179648160934,0.14548353850841522
1761505841856062000,6.12506201171875,0.07346206158399582,-0.13966383039951324,0.19776834547519684
1761505841876217900,6.1452177734375,0.10273107886314392,-0.1716148555278778,0.23757483065128326
1761505841896374000,6.1653740234375,0.11973270028829575,-0.22331561148166656,0.22293996810913086
1761505841916531000,6.185531005859375,0.1409752368927002,-0.24929291009902954,0.17967039346694946
1761505841936687000,6.20568701171875,0.11457941681146622,-0.26700377464294434,0.09772345423698425
1761505841956844000,6.225843994140625,0.01160292886197567,-0.26581689715385437,-0.04280468821525574
1761505841977000200,6.246000244140625,-0.08345796912908554,-0.1669531911611557,-0.19399835169315338
1761505841997156000,6.266156005859375,-0.0383659228682518,-0.0009752707555890083,-0.24458515644073486
1761505842017313300,6.286313232421875,0.11955966800451279,0.07076875120401382,-0.1961764395236969
1761505842037469200,6.30646923828125,0.2991892993450165,0.01129317469894886,-0.06072903424501419
1761505842057625300,6.326625244140625,0.441565603017807,-0.09756474196910858,0.12495464086532593
1761505842077782300,6.3467822265625,0.4976203739643097,-0.15206988155841827,0.2670050859451294
1761505842097938200,6.366938232421875,0.501410722732544,-0.17126646637916565,0.2950044870376587
1761505842118095000,6.38709521484375,0.5183611512184143,-0.20541413128376007,0.24462515115737915
1761505842138251300,6.407251220703125,0.5434600710868835,-0.20999793708324432,0.17809809744358063
1761505842158407200,6.4274072265625,0.5446085929870605,-0.16651570796966553,0.1411801278591156
1761505842178564000,6.447564208984375,0.5211762189865112,-0.0872059017419815,0.1485196053981781
1761505842198720300,6.46772021484375,0.488052636384964,0.018214263021945953,0.17211414873600006
1761505842218877200,6.487877197265625,0.49502673745155334,0.14704777300357819,0.17375819385051727
1761505842239033300,6.508033447265625,0.5444496273994446,0.2625865340232849,0.1452038437128067
1761505842259189200,6.528189208984375,0.5928977131843567,0.3263463079929352,0.0988302230834961
1761505842279346200,6.54834619140625,0.6080063581466675,0.35471975803375244,0.04231172800064087
1761505842299502000,6.568502197265625,0.5993294715881348,0.403092622756958,0.0075713652186095715
1761505842319659300,6.5886591796875,0.6167764067649841,0.4266497492790222,-0.014690481126308441
1761505842339815200,6.608815185546875,0.6429883241653442,0.38915613293647766,-0.02813735418021679
1761505842359971300,6.628971435546875,0.6713870167732239,0.33753618597984314,-0.003697446081787348
1761505842380128300,6.649128173828125,0.7238555550575256,0.36321815848350525,0.05585353821516037
1761505842400284400,6.669284423828125,0.8104992508888245,0.41476356983184814,0.08727269619703293
1761505842420441000,6.689441162109375,0.9000983834266663,0.41776782274246216,0.05936753377318382
1761505842440597200,6.70959716796875,0.9754059910774231,0.34599968791007996,-0.003123560920357704
1761505842460753200,6.729753173828125,1.0396806001663208,0.3132171034812927,-0.02806840091943741
1761505842480910300,6.749910400390625,1.0940085649490356,0.24728545546531677,-0.09011176973581314
1761505842501066200,6.770066162109375,1.0989487171173096,0.10569498687982559,-0.26471519470214844
1761505842521223400,6.790223388671875,1.0638407468795776,0.019985102117061615,-0.44304928183555603
1761505842541379300,6.81037939453125,1.0302717685699463,0.05350878834724426,-0.5145596265792847
1761505842561535200,6.83053515625,1.0619077682495117,0.17552632093429565,-0.48919355869293213
1761505842581692200,6.850692138671875,1.1591721773147583,0.2574863135814667,-0.4113657772541046
1761505842601848000,6.87084814453125,1.2663360834121704,0.27869632840156555,-0.3199736177921295
1761505842622005200,6.891005126953125,1.3309440612792969,0.26348796486854553,-0.2397606074810028
1761505842642161200,6.9111611328125,1.3660763502120972,0.30117160081863403,-0.19168411195278168
1761505842662317300,6.9313173828125,1.4439376592636108,0.3698079586029053,-0.19002839922904968
1761505842682474200,6.95147412109375,1.510409951210022,0.3843366801738739,-0.2143348604440689
1761505842702630400,6.97163037109375,1.5582737922668457,0.437220960855484,-0.23351535201072693
1761505842722787000,6.991787109375,1.552395224571228,0.46146705746650696,-0.2890211343765259
1761505842742943200,7.011943115234375,1.5171523094177246,0.4528752267360687,-0.3566603362560272
1761505842763099100,7.03209912109375,1.5128991603851318,0.43961668014526367,-0.4051380157470703
1761505842783256300,7.05225634765625,1.562844157218933,0.5052340626716614,-0.4122663140296936
1761505842803412200,7.072412109375,1.6635055541992188,0.581725001335144,-0.4070551097393036
1761505842823569400,7.0925693359375,1.7412090301513672,0.5730482339859009,-0.39482277631759644
1761505842843725300,7.112725341796875,1.7894632816314697,0.5991998910903931,-0.3684622645378113
1761505842863881200,7.132881103515625,1.8288826942443848,0.6896876692771912,-0.33769118785858154
1761505842884038100,7.1530380859375,1.8765959739685059,0.695207953453064,-0.31777817010879517
1761505842904194000,7.173194091796875,1.930655837059021,0.6493982672691345,-0.2945481538772583
1761505842924350200,7.19335009765625,1.9403326511383057,0.6134600043296814,-0.27448201179504395
1761505842944506000,7.213506103515625,1.8990556001663208,0.5778498649597168,-0.2501729428768158
1761505842964662000,7.233662109375,1.8622283935546875,0.5610823631286621,-0.1795293539762497
1761505842984819200,7.253819091796875,1.782646656036377,0.5655152201652527,-0.10692492872476578
1761505843004975000,7.27397509765625,1.6927824020385742,0.5906729102134705,-0.03948979079723358
1761505843025131300,7.29413134765625,1.58385169506073,0.5552876591682434,0.04430784285068512
1761505843045288200,7.3142880859375,1.4806857109069824,0.46514052152633667,0.162318617105484
1761505843065444400,7.3344443359375,1.3494051694869995,0.3715607821941376,0.25432199239730835
1761505843085601000,7.35460107421875,1.142613172531128,0.26380640268325806,0.2630418539047241
1761505843105757200,7.374757080078125,0.9661319851875305,0.22318816184997559,0.2344503402709961
1761505843125913000,7.3949130859375,0.8484621047973633,0.26786184310913086,0.20008991658687592
1761505843146070300,7.4150703125,0.8037722110748291,0.33345869183540344,0.15153157711029053
1761505843166226200,7.43522607421875,0.8046156764030457,0.3754020929336548,0.0643545612692833
1761505843186383400,7.45538330078125,0.8168025612831116,0.4812600314617157,-0.02577243186533451
1761505843206539300,7.475539306640625,0.8389524221420288,0.5250830054283142,-0.09974910318851471
1761505843226695400,7.4956953125,0.8518210649490356,0.49581193923950195,-0.12961165606975555
1761505843246852000,7.51585205078125,0.8864704966545105,0.4765263795852661,-0.13798247277736664
1761505843267008300,7.53600830078125,0.9112693667411804,0.49761727452278137,-0.17474210262298584
1761505843287165200,7.556165283203125,0.940974771976471,0.47684311866760254,-0.22339949011802673
1761505843307321000,7.576321044921875,0.961352527141571,0.4854803681373596,-0.23967759311199188
1761505843327477200,7.596477294921875,0.9813750386238098,0.5069906711578369,-0.25163766741752625
1761505843347634200,7.61663427734375,1.001884937286377,0.5076841115951538,-0.279532790184021
1761505843367790300,7.636790283203125,1.0411051511764526,0.46487149596214294,-0.34205058217048645
1761505843387947000,7.656947021484375,1.0966007709503174,0.4201156795024872,-0.39716753363609314
1761505843408103200,7.677103271484375,1.1411051750183105,0.3699520230293274,-0.3966672420501709
1761505843428259000,7.697259033203125,1.1542202234268188,0.38779088854789734,-0.3507961332798004
1761505843448416300,7.717416259765625,1.1503939628601074,0.48148849606513977,-0.2975272238254547
1761505843468572200,7.737572265625,1.2021552324295044,0.566877007484436,-0.23996976017951965
1761505843488729300,7.757729248046875,1.2868860960006714,0.5810242295265198,-0.19418378174304962
1761505843508885200,7.77788525390625,1.3444619178771973,0.6114733815193176,-0.15026924014091492
1761505843529041400,7.79804150390625,1.3520439863204956,0.6209564805030823,-0.12093742191791534
1761505843549198000,7.818197998046875,1.2946399450302124,0.5544537305831909,-0.092776358127594
1761505843569354200,7.838354248046875,1.2143274545669556,0.4705124795436859,-0.062441252171993256
1761505843589511200,7.85851123046875,1.1551618576049805,0.4390595555305481,-0.02670424059033394
1761505843609667300,7.878667236328125,1.1142652034759521,0.4392032325267792,-0.028044678270816803
1761505843629823200,7.8988232421875,1.0648695230484009,0.444957435131073,-0.07241342216730118
1761505843649980400,7.91898046875,0.9782076478004456,0.40993332862854004,-0.15436050295829773
1761505843670136300,7.93913623046875,0.9166789054870605,0.3867157995700836,-0.2101723998785019
1761505843690293000,7.95929296875,0.9016363024711609,0.41376373171806335,-0.2288789302110672
1761505843710449200,7.97944921875,0.918120265007019,0.4314897656440735,-0.2434416264295578
1761505843730605000,7.99960498046875,0.9313724040985107,0.4136330783367157,-0.26504531502723694
1761505843750761200,8.01976123046875,0.9274876713752747,0.33249855041503906,-0.2563687562942505
1761505843770917000,8.039917236328124,0.9044210910797119,0.2329784333705902,-0.22332780063152313
1761505843791074300,8.06007421875,0.8581386208534241,0.14209014177322388,-0.20817887783050537
1761505843811230200,8.080230224609375,0.8247312903404236,0.09951654076576233,-0.1980849802494049
1761505843831387400,8.100387451171875,0.7935015559196472,0.10906585305929184,-0.19986025989055634
1761505843851543300,8.120543212890626,0.7584710717201233,0.14487726986408234,-0.19184419512748718
1761505843871699200,8.14069921875,0.7284837365150452,0.14618650078773499,-0.19320836663246155
1761505843891856100,8.160856201171875,0.6759020686149597,0.12577834725379944,-0.20068083703517914
1761505843912012000,8.181011962890626,0.6202845573425293,0.11720466613769531,-0.21061347424983978
1761505843932169200,8.201169189453125,0.5515336394309998,0.08575017750263214,-0.1931125819683075
1761505843952326700,8.22132666015625,0.5049558281898499,0.046356942504644394,-0.15941619873046875
1761505843972482600,8.241482666015624,0.4817850887775421,0.0697544664144516,-0.14979904890060425
1761505843992639500,8.261639404296876,0.4647047817707062,0.13895255327224731,-0.17497289180755615
1761505844012795400,8.28179541015625,0.468378484249115,0.17529642581939697,-0.23542095720767975
1761505844032952600,8.30195263671875,0.4327687621116638,0.1950175166130066,-0.21063019335269928
1761505844053108500,8.3221083984375,0.4048038125038147,0.14692862331867218,-0.19360965490341187
1761505844073264600,8.3422646484375,0.34310182929039,0.1101609617471695,-0.1874655932188034
1761505844093421600,8.362421630859375,0.2760537266731262,0.05671500042080879,-0.2592078745365143
1761505844113577700,8.38257763671875,0.26438769698143005,0.04961705207824707,-0.3258620500564575
1761505844133734400,8.402734375,0.2527965009212494,-0.009190134704113007,-0.40529322624206543
1761505844153891600,8.4228916015625,0.3159092366695404,-0.040854401886463165,-0.40821489691734314
1761505844174047500,8.443047607421875,0.3736329972743988,-0.022324344143271446,-0.31078898906707764
1761505844194204700,8.46320458984375,0.40117061138153076,-0.09007058292627335,-0.1682940572500229
1761505844214360600,8.483360595703125,0.41012415289878845,-0.08960025012493134,-0.026673849672079086
1761505844234516700,8.503516845703125,0.4113434851169586,-0.058040276169776917,0.049365051090717316
1761505844254673400,8.52367333984375,0.42873358726501465,-0.033092476427555084,0.06773094087839127
1761505844274829600,8.54382958984375,0.4510602653026581,0.008380241692066193,0.06759222596883774
1761505844294985500,8.5639853515625,0.4629061818122864,0.02865203469991684,0.04104973375797272
1761505844315142700,8.584142578125,0.4267973005771637,0.046469252556562424,-0.004596874583512545
1761505844335298600,8.604298583984376,0.3648469150066376,0.01628953218460083,-0.011032412759959698
1761505844355455700,8.624455810546875,0.28489407896995544,-0.09308821707963943,-0.010340448468923569
1761505844375611600,8.644611572265624,0.21256664395332336,-0.11333958804607391,0.018214628100395203
1761505844395767600,8.664767578125,0.19977469742298126,-0.0605134479701519,0.028624020516872406
1761505844415924500,8.684924560546875,0.2274235635995865,0.1282559335231781,0.04738182947039604
1761505844436080400,8.705080322265625,0.2696831226348877,0.33617067337036133,0.10130643844604492
1761505844456237600,8.725237548828124,0.2548829913139343,0.3874933421611786,0.08967748284339905
1761505844476393500,8.7453935546875,0.3993911147117615,0.1717977672815323,0.081391341984272
1761505844496549600,8.765549560546875,0.48437613248825073,0.013491145335137844,0.07579293847084045
1761505844516706600,8.78570654296875,0.49709707498550415,-0.15263353288173676,0.13286851346492767
1761505844536862700,8.80586279296875,0.4795672595500946,-0.19007715582847595,0.2482946664094925
1761505844557019400,8.826019287109375,0.48435959219932556,-0.19636820256710052,0.34708213806152344
1761505844577175600,8.846175537109374,0.48959553241729736,-0.22472192347049713,0.37844428420066833
1761505844597331500,8.86633154296875,0.4900455176830292,-0.28378236293792725,0.3345876932144165
1761505844617488600,8.886488525390625,0.4541941285133362,-0.3239978849887848,0.2734134793281555
1761505844637644500,8.90664453125,0.3868638873100281,-0.3416580855846405,0.2582176923751831
1761505844657801700,8.9268017578125,0.32870328426361084,-0.36660099029541016,0.26520413160324097
1761505844677957600,8.94695751953125,0.255807101726532,-0.3558964133262634,0.20594647526741028
1761505844698113800,8.96711376953125,0.18819233775138855,-0.20621933043003082,0.09279948472976685
1761505844718270500,8.9872705078125,0.18924418091773987,-0.05291493237018585,-0.061668213456869125
1761505844738426400,9.00742626953125,0.259782612323761,0.13328039646148682,-0.13135801255702972
1761505844758582500,9.02758251953125,0.393845796585083,0.3360086977481842,-0.08990748226642609
1761505844778739500,9.047739501953124,0.5401452779769897,0.42730292677879333,-0.08084186911582947
1761505844798895600,9.0678955078125,0.6872325539588928,0.40410199761390686,-0.129281684756279
1761505844819052500,9.088052490234375,0.7957959175109863,0.2841017544269562,-0.17841263115406036
1761505844839208700,9.108208740234375,0.8770869970321655,0.16915421187877655,-0.18130451440811157
1761505844859364600,9.128364501953126,0.8863438963890076,0.06869310885667801,-0.14887839555740356
1761505844879521500,9.148521484375,0.8892330527305603,0.049929000437259674,-0.11721409112215042
1761505844899677400,9.168677490234375,0.881470799446106,0.012526155449450016,-0.09752790629863739
1761505844919834600,9.188834716796874,0.9132104516029358,0.037143100053071976,-0.043554697185754776
1761505844939989800,9.20898974609375,0.9552101492881775,0.08572304248809814,0.011701432056725025
1761505844960145700,9.229145751953125,1.0015501976013184,0.16832712292671204,-0.010484250262379646
1761505844980302600,9.249302490234374,1.0111773014068604,0.27615511417388916,-0.08349931985139847
1761505845000458800,9.269458740234375,0.9495187401771545,0.34113216400146484,-0.16521422564983368
1761505845020615700,9.28961572265625,0.8380042314529419,0.2908700108528137,-0.261514812707901
1761505845040771800,9.309771728515624,0.7021339535713196,0.1397673487663269,-0.37515437602996826
1761505845060927700,9.329927734375,0.601995587348938,0.03187030553817749,-0.44805672764778137
1761505845081084700,9.350084716796875,0.5494797825813293,-0.015386748127639294,-0.45281732082366943
1761505845101240600,9.370240478515624,0.555450975894928,0.04054923355579376,-0.4174269437789917
1761505845121396700,9.390396728515626,0.6109423041343689,0.05304991081357002,-0.37377479672431946
1761505845141553700,9.4105537109375,0.6503949761390686,0.11526874452829361,-0.3240250051021576
1761505845161709800,9.430709716796875,0.6668891310691833,0.22987163066864014,-0.22655467689037323
1761505845181866800,9.45086669921875,0.605491578578949,0.2874734401702881,-0.1944342851638794
1761505845202023000,9.47102294921875,0.5222442746162415,0.27295982837677,-0.22814278304576874
1761505845222178800,9.4911787109375,0.45764318108558655,0.24879181385040283,-0.28036102652549744
1761505845242335700,9.511335693359374,0.41661083698272705,0.2512929439544678,-0.31269997358322144
1761505845262491600,9.53149169921875,0.3769163489341736,0.2906145751476288,-0.30235689878463745
1761505845282648800,9.55164892578125,0.3379668593406677,0.35866037011146545,-0.26813092827796936
1761505845302804700,9.5718046875,0.38349705934524536,0.33233675360679626,-0.23448997735977173
1761505845322960600,9.591960693359376,0.4740162491798401,0.29668545722961426,-0.1719781756401062
1761505845343117800,9.612117919921875,0.5489526987075806,0.21398553252220154,-0.07623393088579178
1761505845363273700,9.632273681640624,0.5416728854179382,0.17778755724430084,0.03059718944132328
1761505845383430700,9.6524306640625,0.4969521462917328,0.1766587346792221,0.08795848488807678
1761505845403586600,9.672586669921875,0.48568302392959595,0.1894652247428894,0.09972041845321655
1761505845423742700,9.69274267578125,0.484820693731308,0.24052532017230988,0.09958548098802567
1761505845443899600,9.712899658203124,0.48880231380462646,0.3234272003173828,0.12126271426677704
1761505845464055800,9.733055908203125,0.4515901207923889,0.35064607858657837,0.16119322180747986
1761505845484211700,9.753211669921875,0.4207551181316376,0.3491029143333435,0.19553865492343903
1761505845504369000,9.773368896484374,0.40890976786613464,0.24782979488372803,0.18677270412445068
1761505845524524800,9.79352490234375,0.29726704955101013,0.08442866802215576,0.13224248588085175
1761505845544681700,9.813681640625,0.10714202374219894,-0.058154359459877014,0.015900515019893646
1761505845564837600,9.833837646484374,-0.03294818103313446,-0.14024688303470612,-0.057969313114881516
1761505845584993500,9.85399365234375,-0.16436456143856049,-0.06636262685060501,-0.023354925215244293
1761505845605150700,9.874150634765625,-0.12636235356330872,0.04202546179294586,0.09211190789937973
1761505845625306600,9.894306640625,0.0025791656225919724,0.22948744893074036,0.14360399544239044
1761505845645463800,9.9144638671875,0.15918868780136108,0.4040273129940033,0.08116655051708221
1761505845665619700,9.93461962890625,0.2221740484237671,0.43685993552207947,-0.014242170378565788
1761505845685776000,9.95477587890625,0.18069957196712494,0.41632696986198425,-0.03470536693930626
1761505845705932500,9.9749326171875,0.10727608948945999,0.37175747752189636,-0.02129712514579296
1761505845726088700,9.995088623046875,0.11045493185520172,0.29934805631637573,-0.009180083870887756
1761505845746244600,10.01524462890625,0.1636667251586914,0.20612812042236328,-0.011355320923030376
1761505845766401800,10.03540185546875,0.1977885663509369,0.15596067905426025,-0.001942069036886096
1761505845786557700,10.0555576171875,0.220221608877182,0.18217432498931885,0.009344098158180714
1761505845806715000,10.07571484375,0.26474156975746155,0.22726768255233765,0.02435719221830368
1761505845826870800,10.095870849609375,0.3191269338130951,0.2627717852592468,0.03403058648109436
1761505845847026700,10.116026611328126,0.37060144543647766,0.30795133113861084,0.028273802250623703
1761505845867183600,10.13618359375,0.33771008253097534,0.31320086121559143,0.024463031440973282
1761505845887339500,10.156339599609375,0.37369251251220703,0.2656260132789612,0.016242310404777527
1761505845907496700,10.17649658203125,0.3477696180343628,0.22403472661972046,0.055474717170000076
1761505845927652600,10.196652587890625,0.3042992353439331,0.23505403101444244,0.06876398622989655
1761505845947809500,10.2168095703125,0.25613415241241455,0.19097453355789185,0.01829899474978447
1761505845967966500,10.236966552734375,0.24645280838012695,0.2725638151168823,0.06014185771346092
1761505845988122400,10.257122314453126,0.20287710428237915,0.0878702700138092,0.12958849966526031
1761505846008278500,10.277278564453125,0.2185172140598297,0.0012858100235462189,0.14705193042755127
1761505846028435500,10.297435546875,0.17504540085792542,-0.02597075141966343,0.06365960836410522
1761505846048591600,10.317591552734376,0.13379894196987152,0.10240929573774338,-0.04739583656191826
1761505846068748500,10.33774853515625,0.0013213346246629953,0.16199252009391785,-0.19005149602890015
