time,seconds_elapsed,z,y,x
1761509332948486400,0.078486328125,-0.0011810834985226393,-0.001273161731660366,-0.000834004720672965
1761509332968639500,0.098639404296875,0.0004972894676029682,-0.0003408985212445259,-0.0007646731100976467
1761509332988797700,0.118797607421875,-0.0007787008071318269,0.001769769936800003,0.0006953412666916847
1761509333008955600,0.13895556640625,0.00275878282263875,0.0012543629854917526,1.0174699127674103e-7
1761509333029112600,0.159112548828125,-0.002160447183996439,0.0017569363117218018,-0.00007955962792038918
1761509333049270500,0.1792705078125,0.00103210867382586,0.0020704008638858795,-0.00033090333454310894
1761509333069428700,0.1994287109375,-0.0024879875127226114,0.000554683618247509,0.00039180973544716835
1761509333089585700,0.219585693359375,0.0009595092851668596,0.00010228808969259262,0.003698489395901561
1761509333109743600,0.23974365234375,0.002065498847514391,0.0023468025028705597,0.001594482222571969
1761509333129901600,0.259901611328125,0.0006003673188388348,0.001824861392378807,0.00013599521480500698
1761509333150058800,0.280058837890625,-0.0009019701974466443,-0.00030209217220544815,-0.001873179106041789
1761509333170216400,0.300216552734375,-0.0008500386029481888,0.0034265993162989616,-0.00012321583926677704
1761509333190373600,0.32037353515625,-0.0002791406586766243,0.0006974255666136742,-0.0012669668067246675
1761509333210531600,0.340531494140625,-0.0006444774335250258,-0.00006701145321130753,0.0002769588027149439
1761509333230689500,0.360689453125,0.0007896830793470144,0.0004897424951195717,0.000029370887205004692
1761509333250846700,0.3808466796875,0.0007704035378992558,0.0005696751177310944,-0.0006383117288351059
1761509333271004700,0.401004638671875,-0.00045893515925854445,0.0007556015625596046,0.0011821966618299484
1761509333291162600,0.42116259765625,-0.0018969669472426176,-0.00020268000662326813,-0.00036812806501984596
1761509333311319600,0.441319580078125,-0.0025586504489183426,-0.0013581868261098862,-0.001442586537450552
1761509333331477800,0.461477783203125,0.0009721450041979551,0.0010356521233916283,-0.0008211026433855295
1761509333351635700,0.4816357421875,-0.0014849260915070772,-0.00033519137650728226,-0.0010563298128545284
1761509333371792600,0.501792724609375,-0.00014785886742174625,-0.0007943203672766685,-0.0013066669926047325
1761509333391950600,0.52195068359375,0.0009572599083185196,0.0013649966567754745,-0.00012073875404894352
1761509333412107800,0.542107666015625,-0.00003555184230208397,0.0006522703915834427,-0.0010335533879697323
1761509333432265700,0.562265625,-0.0013190224999561906,-0.0003911927342414856,-0.000874001532793045
1761509333452423700,0.582423583984375,0.002534052124246955,0.00005021039396524429,-0.0011667569633573294
1761509333472580600,0.60258056640625,0.000582162756472826,0.0009859250858426094,-0.001993034966289997
1761509333492738800,0.62273876953125,0.0022089947015047073,0.0026978878304362297,-0.001542824087664485
1761509333512896500,0.642896484375,0.0031111803837120533,-0.00006350874900817871,-0.00032693822868168354
1761509333533053700,0.6630537109375,0.0002936923410743475,0.002873903140425682,0.0005754439625889063
1761509333553211600,0.683211669921875,-0.0014356655301526189,0.0017408709973096848,0.0005657176952809095
1761509333573369900,0.703369873046875,0.0018770755268633366,0.0012867245823144913,-0.0010622541885823011
1761509333593526500,0.723526611328125,0.0008009751327335835,-0.0004744241014122963,0.001664095325395465
1761509333613684700,0.743684814453125,0.0002338665071874857,0.0013924622908234596,0.00027368334122002125
1761509333633841700,0.763841552734375,0.00030290731228888035,0.0010941028594970703,-0.0021877174731343985
1761509333653999600,0.78399951171875,-0.0016793162794783711,-0.001803097315132618,0.0007789020892232656
1761509333674157600,0.804157470703125,-0.00014363275840878487,-0.0012018261477351189,-0.000580706400796771
1761509333694314800,0.824314697265625,-0.000712699256837368,-0.0017064716666936874,-0.0003854529932141304
1761509333714472400,0.844472412109375,-0.0015023431042209268,0.0026691248640418053,0.001481320708990097
1761509333734630700,0.864630615234375,-0.0017674071714282036,0.0014010118320584297,0.000003495020791888237
1761509333754787600,0.88478759765625,0.0005213760305196047,-0.0012190509587526321,0.0011674477718770504
1761509333774945800,0.90494580078125,0.0016134744510054588,0.00038028787821531296,0.00037701893597841263
1761509333795102700,0.925102783203125,0.00008842558600008488,-0.0007519451901316643,0.0007990717422217131
1761509333815260700,0.9452607421875,-0.0015284190885722637,0.0013992255553603172,0.0017846592236310244
1761509333835418600,0.965418701171875,0.0012192109134048223,0.0006498601287603378,-0.00015785405412316322
1761509333855575600,0.985575439453125,0.0011025213170796633,0.0001811617985367775,-0.002482039388269186
1761509333875733500,1.0057333984375,0.0006659610662609339,0.0006613759323954582,-0.0012405451852828264
1761509333895891700,1.0258916015625,-0.0007250072667375207,0.0013992860913276672,0.00035554682835936546
1761509333916048600,1.046048583984375,0.0002808789722621441,0.0009516524150967598,0.00004247413016855717
1761509333936206600,1.06620654296875,-0.0029114563949406147,-0.0009176488965749741,-0.0004181091208010912
1761509333956364500,1.086364501953125,-0.0013191234320402145,0.000697040930390358,-0.0007458063773810863
1761509333976525000,1.106525146484375,-0.0018440531566739082,0.0018728291615843773,0.00046991556882858276
1761509333996683000,1.12668310546875,-0.0005627047503367066,-0.00048119761049747467,-0.0010860199108719826
1761509334016840000,1.14683984375,-0.00013187434524297714,0.0004876432940363884,-0.0008938903920352459
1761509334036998100,1.166998046875,0.0033275075256824493,0.0025902651250362396,0.0007398419547826052
1761509334057156000,1.187156005859375,0.0003155912272632122,0.0020574405789375305,-0.0029209319036453962
1761509334077313000,1.20731298828125,-0.001244035316631198,-0.002112763002514839,-0.0001452420838177204
1761509334097471000,1.227470947265625,-0.0026376470923423767,-0.00032805372029542923,0.002988787367939949
1761509334117629000,1.24762890625,-0.0014994319062680006,0.002136106602847576,0.0006433057133108377
1761509334137786000,1.2677861328125,0.0025783174205571413,-0.0018918104469776154,-0.00017853034660220146
1761509334157944000,1.287944091796875,-0.00031990325078368187,-0.0009130062535405159,0.00005115685053169727
1761509334178101000,1.30810107421875,0.0008083535358309746,-0.00040861498564481735,0.0005140793509781361
1761509334198259200,1.32825927734375,-0.0025397217832505703,-0.0004405975341796875,-0.0007520434446632862
1761509334218417200,1.348417236328125,-0.000654433504678309,-0.0003350973129272461,0.002113389316946268
1761509334238574000,1.368573974609375,-0.0017747238744050264,0.002261824905872345,-0.0016999675426632166
1761509334258732000,1.38873193359375,-0.00161966891027987,-0.0024099992588162422,0.00008448143489658833
1761509334278890200,1.40889013671875,-0.0028333752416074276,0.0016357535496354103,-0.0008059432730078697
1761509334299047000,1.429046875,0.00013653701171278954,-0.0013911817222833633,0.00011033844202756882
1761509334319205000,1.449205078125,0.0005488782189786434,0.0006684334948658943,-0.0007338991854339838
1761509334339362000,1.469362060546875,-0.0010005810763686895,-0.0021798517554998398,-0.0010354120749980211
1761509334359520000,1.48952001953125,-0.0010944950627163053,-0.002104233019053936,-0.0006946660578250885
1761509334379678000,1.509677978515625,0.000785099808126688,0.0005953628569841385,-0.003882643999531865
1761509334399835100,1.529835205078125,0.0018468014895915985,-0.001834898255765438,0.00010382803156971931
1761509334419993000,1.5499931640625,0.0005122637376189232,-0.0009384602308273315,-0.00029002572409808636
1761509334440151000,1.570151123046875,0.0032874993048608303,0.001451972872018814,0.00003676442429423332
1761509334460308000,1.590307861328125,-0.0030099055729806423,-0.0018080314621329308,-0.0011647436767816544
1761509334480466200,1.610466064453125,-0.0009862167062237859,-0.0016950424760580063,0.0012629278935492039
1761509334500623000,1.630623046875,-0.0013721784343943,-0.0005580289289355278,-0.0005119997076690197
1761509334520781000,1.650781005859375,-0.00047020986676216125,-0.0005935803055763245,-0.0011484953574836254
1761509334540939000,1.67093896484375,-0.0008679971797391772,0.002065029926598072,-0.0013176626525819302
1761509334561096000,1.691095947265625,0.0006797648966312408,0.0008291769772768021,0.0006050060037523508
1761509334581254000,1.71125390625,-0.0016003265045583248,-0.0017404751852154732,-0.0022441858891397715
1761509334601412000,1.731412109375,0.000040111131966114044,-0.00027392618358135223,-0.0008877373766154051
1761509334621569300,1.7515693359375,-0.003903245087713003,0.000034024007618427277,0.000561877153813839
1761509334641727000,1.77172705078125,0.0009909390937536955,0.0017826305702328682,-0.0012629823759198189
1761509334661884200,1.79188427734375,-0.0010253227083012462,-0.0015213610604405403,0.0017131641507148743
1761509334682042000,1.8120419921875,0.00017735478468239307,-0.0006288597360253334,-0.0006673438474535942
1761509334702200000,1.832199951171875,0.0009732372127473354,0.0007276656106114388,0.0016951473662629724
1761509334722357000,1.85235693359375,0.0025592504534870386,0.0012501496821641922,0.00008324114605784416
1761509334742515200,1.87251513671875,0.0027425731532275677,0.00010820571333169937,0.0009456661064177752
1761509334762673200,1.892673095703125,0.001128888688981533,-0.0001814812421798706,0.0017289931420236826
1761509334782830000,1.912830078125,-0.0018672836013138294,-0.0008470546454191208,0.0004731598310172558
1761509334802988000,1.932988037109375,-0.0007049447158351541,-0.0008887778967618942,-0.00036136829294264317
1761509334823145200,1.953145263671875,0.001096290536224842,0.00038109906017780304,0.0008031255565583706
1761509334843303000,1.973302978515625,0.002227116608992219,-0.0018396256491541862,0.0012164735235273838
1761509334863461000,1.993461181640625,-0.0014590142527595162,-0.0007310193032026291,0.0017355434829369187
1761509334883618000,2.0136181640625,-0.003721084911376238,0.0008863303810358047,0.00155475246720016
1761509334903776300,2.0337763671875,-0.0010972615564242005,0.000044082291424274445,-0.00007713283412158489
1761509334923933000,2.053932861328125,-0.001174188102595508,0.0006354385986924171,0.0009155720472335815
1761509334944091100,2.074091064453125,-0.0007070307619869709,0.00037163589149713516,-0.00000509386882185936
1761509334964245200,2.094245361328125,0.0009420809801667929,-0.0016007432714104652,-0.0015753929037600756
1761509334984402400,2.11440234375,0.001067035598680377,0.00044028647243976593,-0.00045872689224779606
1761509335004560400,2.134560302734375,-0.0018339075613766909,0.0002143336459994316,-0.0009320036042481661
1761509335024718600,2.154718505859375,0.000017915619537234306,0.0028511444106698036,-0.00023847119882702827
1761509335044875300,2.174875244140625,-0.0015337835066020489,0.0006578024476766586,0.00218563131056726
1761509335065033500,2.195033447265625,-0.0014403753448277712,-0.0011310232803225517,-0.0041843801736831665
1761509335085190700,2.215190673828125,0.002334346529096365,0.0009479979053139687,-0.0016694674268364906
1761509335105348400,2.235348388671875,-0.0004097640048712492,0.000582793727517128,0.0002513343933969736
1761509335125506300,2.25550634765625,0.0014583151787519455,0.0003116810694336891,0.0011483882553875446
1761509335145663500,2.27566357421875,0.000518634682521224,0.0016603264957666397,-0.0013710674829781055
1761509335165821400,2.295821533203125,-0.002035257639363408,-0.0005638673901557922,0.002655408577993512
1761509335185979400,2.3159794921875,-0.0016611269675195217,0.000528198666870594,0.002870826981961727
1761509335206136600,2.336136474609375,0.0001272417139261961,0.0020985808223485947,0.00040046870708465576
1761509335226294500,2.35629443359375,-0.0004647900350391865,-0.0008974112570285797,-0.0001505513209849596
1761509335246451500,2.376451416015625,0.002271345816552639,-0.0008950512856245041,0.002198072150349617
1761509335266609400,2.396609375,-0.0016919978661462665,0.0014762664213776588,0.0010717783588916063
1761509335286767400,2.416767333984375,-0.0004994075279682875,-0.002751767635345459,0.0004785205237567425
1761509335306924300,2.43692431640625,-0.0019340692088007927,-0.001974917948246002,-0.0006297854706645012
1761509335327082500,2.45708251953125,-0.0015044938772916794,-0.0017310380935668945,-0.0001541974488645792
1761509335347240400,2.477240478515625,-0.0003344027791172266,-0.0015156399458646774,-0.0006219584029167891
1761509335367397600,2.497397705078125,0.00034849089570343494,0.0006883367896080017,0.001098892418667674
1761509335387555300,2.517555419921875,0.00291631487198174,-0.0014362428337335587,-0.0009729219600558281
1761509335407712500,2.53771240234375,-0.001728591276332736,0.0002456819638609886,0.0013961237855255604
1761509335427870500,2.557870361328125,0.00028700241819024086,-0.00006949063390493393,0.00039303419180214405
1761509335448028400,2.5780283203125,0.00022705900482833385,-0.0016891080886125565,0.0013310627546161413
1761509335468185300,2.598185302734375,-0.0011539730476215482,-0.0007488317787647247,-0.0013259106781333685
1761509335488343600,2.618343505859375,-0.00025971257127821445,0.00034591834992170334,-0.0009177485480904579
1761509335508501500,2.63850146484375,0.0013032122515141964,0.0014326488599181175,0.002756627509370446
1761509335528658400,2.658658447265625,-0.0018211546121165156,-0.00005892198532819748,0.001227695494890213
1761509335548816400,2.67881640625,0.0022487447131425142,-0.0008563036099076271,0.003224567510187626
1761509335568973600,2.6989736328125,-0.0025403103791177273,0.00024377461522817612,-0.0009012355003505945
1761509335589131300,2.71913134765625,-0.0005232953699305654,-0.00017969775944948196,-0.0003262832760810852
1761509335609289500,2.73928955078125,-0.001995804952457547,0.0018807575106620789,-0.0002562408335506916
1761509335629446400,2.7594462890625,-0.0003585042431950569,0.0007634609937667847,-0.0004559089429676533
1761509335649604400,2.779604248046875,-0.000027493108063936234,0.0028170645236968994,0.001757458783686161
1761509335669762300,2.79976220703125,0.0015248851850628853,-0.001896723173558712,0.0011392515152692795
1761509335689919500,2.81991943359375,0.0032945293933153152,0.001164100132882595,-0.0010072572622448206
1761509335710077400,2.840077392578125,-0.0021344120614230633,0.00093100406229496,0.0014195619150996208
1761509335730234400,2.860234375,0.0012757556978613138,0.0028546685352921486,0.0004397425800561905
1761509335750392300,2.880392333984375,0.00020055053755640984,0.00043227337300777435,0.00101816700771451
1761509335770550500,2.900550537109375,0.0017835374455899,0.0004804115742444992,-0.00021698209457099438
1761509335790707500,2.92070751953125,0.0008787186816334724,-0.0028422605246305466,-0.0008793575689196587
1761509335810865400,2.940865478515625,-0.0023414038587361574,0.0002577193081378937,-0.0010099413339048624
1761509335831022600,2.961022705078125,-0.0032968460582196712,0.0010535111650824547,0.0007109420839697123
1761509335851180500,2.9811806640625,-0.00197412958368659,-0.0008722878992557526,0.001517301658168435
1761509335871338200,3.001338134765625,-0.00008222460746765137,0.00010906346142292023,0.0035177504178136587
1761509335891495400,3.021495361328125,0.0009781976696103811,-0.0003481721505522728,0.00058700330555439
1761509335911653600,3.041653564453125,0.0019236975349485874,0.00035544391721487045,-0.001237476710230112
1761509335931811300,3.061811279296875,-0.00048631918616592884,0.0007870225235819817,0.001647518016397953
1761509335951968500,3.081968505859375,0.0008991528302431107,0.0017655817791819572,0.0012904424220323563
1761509335972130000,3.102130126953125,0.00129125383682549,0.0023602601140737534,-0.0010117900092154741
1761509335992287000,3.122286865234375,-0.0018226344836875796,-0.000727587379515171,-0.0020015165209770203
1761509336012445000,3.14244482421875,-0.0009572396520525217,0.00012322235852479935,-0.0007786599453538656
1761509336032603100,3.16260302734375,0.00045110913924872875,0.0007719304412603378,-0.00038322294130921364
1761509336052760000,3.182760009765625,0.0012096147984266281,0.00008495990186929703,0.0013917216565459967
1761509336072918000,3.20291796875,0.0003287750296294689,-0.002047116868197918,0.00041145202703773975
1761509336093075000,3.223074951171875,-0.0016711964271962643,0.001906505785882473,0.00025573791936039925
1761509336113233200,3.243233154296875,-0.0005724742077291012,0.00011758599430322647,0.000332212308421731
1761509336133390800,3.263390869140625,-0.0006068388465791941,-0.0005065780133008957,0.0015649532433599234
1761509336153548000,3.283548095703125,0.00046245986595749855,-0.0020817816257476807,0.0013628746382892132
1761509336173706000,3.3037060546875,0.003442916553467512,-0.0010576928034424782,-0.0003457050770521164
1761509336193864200,3.3238642578125,0.000463167205452919,0.0005079088732600212,-0.002138214185833931
1761509336214020900,3.344020751953125,-0.001002489123493433,0.0010714083909988403,-0.0010590087622404099
1761509336234179000,3.364178955078125,-0.0006743912817910314,0.001677265390753746,0.0018425493035465479
1761509336254336000,3.3843359375,0.00012443074956536293,0.0008566491305828094,-0.0004277171101421118
1761509336274494000,3.404493896484375,0.0005152432713657618,0.0007760738953948021,-0.0022983390372246504
1761509336294652000,3.42465185546875,0.00010358472354710102,-0.00019910559058189392,-0.0019828323274850845
1761509336314809000,3.44480908203125,0.002176607958972454,0.00005350075662136078,-0.0024152598343789577
1761509336334967000,3.464967041015625,-0.00022531300783157349,-0.0004818616434931755,0.0003763986751437187
1761509336355125000,3.485125,0.0012373377103358507,-0.0004971697926521301,0.0013099063653498888
1761509336375282200,3.5052822265625,-0.0011074779322370887,0.0023337090387940407,0.0019531683064997196
1761509336395440000,3.525440185546875,0.00027467031031847,-0.0017502810806035995,0.00037001329474151134
1761509336415597000,3.54559716796875,-0.0002873907797038555,-0.0005262074992060661,0.00046311249025166035
1761509336435755000,3.565755126953125,-0.0001355384010821581,0.000027089379727840424,0.00012765848077833652
1761509336455913000,3.585912841796875,0.0002817334607243538,-0.0007295450195670128,0.00010496075265109539
1761509336476070000,3.60606982421875,0.00006492459215223789,0.000879799947142601,0.00045994389802217484
1761509336496228000,3.62622802734375,0.0010915084276348352,0.0030432920902967453,0.00029953918419778347
1761509336516385000,3.646385009765625,-0.0019876156002283096,0.0005381302908062935,-0.0004533822648227215
1761509336536543200,3.666543212890625,-0.0010499462950974703,-0.0008323416113853455,-0.0008118222467601299
1761509336556701000,3.686700927734375,0.0005205122288316488,-0.00007144547998905182,-0.00010642712004482746
1761509336576858000,3.706858154296875,0.0030259601771831512,0.0024562710896134377,-0.00188564439304173
1761509336597016000,3.72701611328125,-0.0006533584091812372,0.0018293363973498344,0.0020703000482171774
1761509336617174000,3.747174072265625,0.002013425575569272,0.00042961910367012024,-0.0005825613625347614
1761509336637331000,3.7673310546875,-0.0020020657684653997,-0.00024306587874889374,-0.0022648670710623264
1761509336657489200,3.7874892578125,0.0009010210633277893,-0.0007827701047062874,2.1327286958694458e-7
1761509336677645800,3.807645751953125,-0.0012219062773510814,0.000470893457531929,0.0004738431889563799
1761509336697804000,3.827803955078125,0.0019611280877143145,0.0013561975210905075,0.00033297878690063953
1761509336717962000,3.8479619140625,-0.0007059703348204494,0.0014748629182577133,-0.0008683241903781891
1761509336738119200,3.868119140625,-0.002236234722658992,0.0006484249606728554,0.00011334940791130066
1761509336758276900,3.88827685546875,-0.0000550542026758194,0.00012475624680519104,0.0009007004555314779
1761509336778434000,3.90843408203125,-0.000012049451470375061,0.0007341690361499786,0.00010405830107629299
1761509336798592000,3.928592041015625,-0.0008716507581993937,0.002101907506585121,-0.0006869982462376356
1761509336818750000,3.94875,-0.00002004089765250683,-0.0002887388691306114,-0.0009364255238324404
1761509336838907000,3.968906982421875,-0.001001898548565805,0.00014544092118740082,0.0019233619095757604
1761509336859065000,3.989065185546875,-0.0004272123333066702,-0.0005118642002344131,0.0006042253226041794
1761509336879223000,4.00922314453125,0.00201729079708457,-0.0009483005851507187,0.00016888417303562164
1761509336899380000,4.0293798828125,-0.0022360854782164097,-0.0006177118048071861,0.0009430407080799341
1761509336919538000,4.049537841796875,0.0003953890409320593,-0.0007174108177423477,-0.00022745621390640736
1761509336939695000,4.069695068359375,-0.0020892806351184845,-0.0017972541972994804,-0.0003614388406276703
1761509336959853000,4.08985302734375,0.0012788670137524605,0.0003811921924352646,-0.0009080925956368446
1761509336980008200,4.11000830078125,0.00033802539110183716,0.00019156839698553085,-0.0030372904147952795
1761509337000165000,4.1301650390625,0.0010640285909175873,-0.0031027812510728836,0.0011606363113969564
1761509337020323000,4.150322998046875,-0.0014075501821935177,-0.0008567366749048233,-0.0011957057286053896
1761509337040480300,4.170480224609375,-0.0018059808062389493,-0.00021848734468221664,-0.0013552734162658453
1761509337060638200,4.19063818359375,-0.0009452240774407983,0.0001896275207400322,-0.0009294517803937197
1761509337080796200,4.210796142578125,0.0005407675635069609,0.00043619610369205475,0.0021169765386730433
1761509337100953000,4.230953125,0.0007842860650271177,-0.0004824260249733925,0.003063467564061284
1761509337121111000,4.251111083984375,-0.0016815443523228168,-0.0019173389300704002,0.00014824862591922283
1761509337141268200,4.271268310546875,-0.0013610386522486806,0.0003744345158338547,0.0007772252429276705
1761509337161426200,4.29142626953125,0.0012918575666844845,-0.0013948483392596245,0.0010157192591577768
1761509337181584100,4.311584228515625,-0.0006087197689339519,0.002507994882762432,0.0003552038688212633
1761509337201741300,4.3317412109375,-0.0002062516286969185,-0.001662708818912506,-0.0013621954713016748
1761509337221899000,4.35189892578125,0.0019974024035036564,-0.000770246610045433,-0.00003942498005926609
1761509337242057000,4.372056884765625,-0.0003433101810514927,-0.002687256783246994,-0.001068422570824623
1761509337262214100,4.392214111328125,-0.0007630145410075784,-0.0015148445963859558,0.00027821329422295094
1761509337282372400,4.412372314453125,-0.003567175939679146,0.0005038687959313393,0.0011193174868822098
1761509337302530000,4.432530029296875,0.00037500355392694473,-0.001765330322086811,0.00031908717937767506
1761509337322688000,4.45268798828125,-0.0020794852171093225,-0.0007767006754875183,0.0012228451669216156
1761509337342845200,4.47284521484375,0.00005609006620943546,-0.0008927145972847939,0.001486256718635559
1761509337363003100,4.493003173828125,0.00007191556505858898,0.00007262732833623886,-0.0010867270175367594
1761509337383161000,4.5131611328125,0.0005773829761892557,0.0010078493505716324,0.00018164841458201408
1761509337403318300,4.533318359375,0.0018038912676274776,-0.0007636593654751778,0.001802197308279574
1761509337423476200,4.553476318359375,0.003453135257586837,0.00000639352947473526,0.0006427217740565538
1761509337443634000,4.573634033203125,0.0010117103811353445,0.0002798615023493767,0.000021353131160140038
1761509337463791000,4.593791015625,-0.00025392440147697926,0.002150321379303932,-0.0015950929373502731
1761509337483949300,4.61394921875,-0.0017985037993639708,-0.0000933213159441948,0.00013343850150704384
1761509337504106000,4.63410595703125,0.0010532229207456112,-0.0009361943230032921,0.0005723184440284967
1761509337524264200,4.65426416015625,0.0024748805444687605,0.0025057075545191765,-0.0005933379288762808
1761509337544422100,4.674422119140625,-0.0020035153720527887,0.0002765413373708725,0.0010240876581519842
1761509337564579300,4.694579345703125,-0.00007007783278822899,0.0008579464629292488,-0.0011262467596679926
1761509337584737000,4.714737060546875,-0.0010567891877144575,0.00007706321775913239,0.0006542846094816923
1761509337604894200,4.734894287109375,-0.0004433231661096215,-0.0006715608760714531,-0.004094397649168968
1761509337625052200,4.75505224609375,-0.00008576107211410999,-0.00022564083337783813,-0.0028794780373573303
1761509337645210000,4.775210205078125,-0.00039186934009194374,-0.0000023441389203071594,-0.00008817040361464024
1761509337665367000,4.795366943359375,0.0031059489119797945,0.0004919432103633881,-0.000549092423170805
1761509337685525200,4.815525146484375,0.000252679456025362,0.0006588604301214218,-0.0002683361526578665
1761509337705682000,4.835681884765625,-0.0017713210545480251,0.000956779345870018,0.001144076231867075
1761509337725840100,4.855840087890625,-0.0011615410912781954,0.001127113588154316,-0.000988029409199953
1761509337745998000,4.875998046875,0.002139909891411662,0.0004317173734307289,-0.0007219919934868813
1761509337766155300,4.8961552734375,0.0017077021766453981,-0.0013699233531951904,-0.00041399640031158924
1761509337786313000,4.91631298828125,-0.0009862588485702872,0.0026832204312086105,0.0011653364636003971
1761509337806471200,4.93647119140625,0.00085597881115973,0.0010904241353273392,0.0004442993085831404
1761509337826628000,4.956628173828125,-0.00032347324304282665,-0.0005592592060565948,0.0012677235063165426
1761509337846786300,4.976786376953125,-0.0027040094137191772,0.0018230928108096123,-0.0002115920651704073
1761509337866943200,4.996943115234375,-0.000444397097453475,0.0012259259819984436,0.00031860778108239174
1761509337887101200,5.01710107421875,0.0016891995910555124,0.001528855413198471,-0.001094662118703127
1761509337907259100,5.037259033203125,0.0008362026419490576,0.0009419368579983711,-0.0019061807543039322
1761509337927416000,5.057416015625,0.003973876126110554,0.0015005143359303474,-0.00009213131852447987
1761509337947574000,5.077573974609375,-0.0010971296578645706,-9.10833477973938e-7,-0.00022833282127976418
1761509337967730200,5.097730224609375,-0.002406660234555602,-0.0007286285981535912,-0.0008292393758893013
1761509337987888400,5.117888427734375,-0.003839479759335518,-0.0006446894258260727,0.0014858068898320198
1761509338008046300,5.13804638671875,-0.0026941627729684114,-0.0008214572444558144,-0.00183353410102427
1761509338028203500,5.15820361328125,-0.0008970593335106969,-0.0031062867492437363,0.001226269407197833
1761509338048361200,5.178361328125,-0.0006056737620383501,-0.0012797657400369644,-0.0013510819990187883
1761509338068518400,5.198518310546875,-0.00012139976024627686,-0.0006905412301421165,0.00043517909944057465
1761509338088676400,5.21867626953125,0.00045536458492279053,-0.0008075060322880745,0.0011132583022117615
1761509338108834600,5.23883447265625,-0.002177070826292038,-0.002768205478787422,0.00233053439296782
1761509338128991500,5.258991455078125,-0.0005762659711763263,-0.0006251605227589607,-0.0024547178763896227
1761509338149149400,5.2791494140625,-0.002770413178950548,0.0004344116896390915,-0.002806222764775157
1761509338169306400,5.299306396484375,0.0011863450054079294,-0.0004021013155579567,-0.0021890937350690365
1761509338189464300,5.31946435546875,0.0011954456567764282,-0.0004946747794747353,-0.0012717247009277344
1761509338209622300,5.339622314453125,0.002159049268811941,-0.002693760208785534,-0.0011409493163228035
1761509338229779500,5.359779541015625,-0.00011361436918377876,-0.001320868730545044,-0.0021757176145911217
1761509338249937400,5.3799375,0.00239565409719944,0.0015732645988464355,0.0016375785926356912
1761509338270094300,5.40009423828125,0.0007270222995430231,-0.00044724438339471817,-0.002042229985818267
1761509338290252500,5.42025244140625,0.0005503809079527855,-0.0006242990493774414,0.0002893677446991205
1761509338310410500,5.440410400390625,-0.0006266913842409849,-0.0005183443427085876,0.0007310081273317337
1761509338330567400,5.4605673828125,0.0001816938165575266,-0.002074478194117546,-0.0010651955381035805
1761509338350725400,5.480725341796875,-0.00014317547902464867,-0.0003711739555001259,0.00012970739044249058
1761509338370882600,5.500882568359375,-0.0002644844353199005,0.0006035361438989639,-0.000862419605255127
1761509338391040300,5.521040283203125,-0.001029882812872529,-0.0012048445641994476,0.0012409558985382318
1761509338411198500,5.541198486328125,-0.0018299849471077323,-0.0025030700489878654,-0.0023713703267276287
1761509338431355400,5.56135546875,0.0007297939155250788,0.0026065194979310036,-0.00012330967001616955
1761509338451513300,5.581513427734375,-0.0010598807130008936,0.00048543885350227356,-0.0013636972289532423
1761509338471670300,5.601670166015625,0.0026999872643500566,0.002256462350487709,-0.0008669982198625803
1761509338491828500,5.621828369140625,-0.00005895411595702171,-0.0002867532894015312,-0.000809492077678442
1761509338511986400,5.641986328125,-0.00160110997967422,0.0010597528889775276,0.0003091958351433277
1761509338532143400,5.662143310546875,0.000063739949837327,-0.0010849125683307648,0.000224230345338583
1761509338552301300,5.68230126953125,0.0010981559753417969,-0.0005796728655695915,0.0003638735506683588
1761509338572459500,5.70245947265625,0.00132857752032578,0.0010401774197816849,0.000943224411457777
1761509338592616200,5.7226162109375,-0.000006435904651880264,0.0008677104488015175,-0.0008683900814503431
1761509338612774400,5.7427744140625,-0.0005329344421625137,-0.0015395376831293106,-0.000060883816331624985
1761509338632931600,5.762931640625,-0.0023508055601269007,-0.00036254432052373886,0.00008375127799808979
1761509338653089300,5.78308935546875,-0.00016271322965621948,0.0011675553396344185,0.0014738085446879268
1761509338673247200,5.803247314453125,0.0006799008697271347,-0.0008980538696050644,-0.002874493133276701
1761509338693404400,5.823404296875,-0.00042958976700901985,0.001008487306535244,-0.0020928357262164354
1761509338713562400,5.843562255859375,0.0029698435682803392,-0.0025091851130127907,-0.0011608516797423363
1761509338733719300,5.86371923828125,0.0005392828024923801,-0.00014005694538354874,0.0003397911787033081
1761509338753877500,5.88387744140625,0.00025723036378622055,0.000818067230284214,0.0004245045129209757
1761509338774035500,5.904035400390625,-0.001087237847968936,-0.000022810883820056915,0.00237398874014616
1761509338794192400,5.9241923828125,-0.0008091483032330871,-0.0004925690591335297,-0.0007881545461714268
1761509338814350300,5.944350341796875,0.0003937415312975645,-0.000011886470019817352,-0.0020322296768426895
1761509338834507500,5.964507568359375,0.002091518137603998,0.0007912879809737206,0.0008763412479311228
1761509338854665200,5.984665283203125,0.00010994868353009224,0.00023385323584079742,0.001375134801492095
1761509338874823400,6.004823486328125,0.0015183219220489264,-0.001406683586537838,-0.0021179502364248037
1761509338894980400,6.02498046875,-0.00028616725467145443,-0.00026824697852134705,-0.0010401902254670858
1761509338915138600,6.045138671875,0.0015327117871493101,0.00006162095814943314,-0.00024736905470490456
1761509338935295200,6.065295166015625,-0.0018580788746476173,0.00012160465121269226,0.0005232063122093678
1761509338955453400,6.085453369140625,-0.0002494279760867357,0.001436370424926281,-0.00019291439093649387
1761509338975611000,6.10561083984375,0.0013553674798458815,-0.0010264050215482712,0.002614276949316263
1761509338995768000,6.12576806640625,0.003662580158561468,0.00014765281230211258,-0.001210840418934822
1761509339015926000,6.145926025390625,-0.0005007094005122781,-0.0010206438601016998,0.0005688339006155729
1761509339036083000,6.1660830078125,-0.0014570403145626187,0.0019174851477146149,0.0010810040403157473
1761509339056241200,6.1862412109375,0.0005024694837629795,-0.000825861468911171,0.0011734149884432554
1761509339076399000,6.206399169921875,0.0010496336035430431,-0.0014448342844843864,-0.0023349823895841837
1761509339096556000,6.22655615234375,0.0013656092341989279,-0.0006753494963049889,-0.001633618725463748
1761509339116714000,6.2467138671875,0.00012570014223456383,0.0008356934413313866,0.0013537281192839146
1761509339136871200,6.26687109375,-0.0002031782642006874,0.0018905485048890114,-0.0001662315335124731
1761509339157029000,6.287029052734375,0.0002499439287930727,0.0006415005773305893,0.0032823788933455944
1761509339177187000,6.30718701171875,-0.002416374161839485,-0.0005135228857398033,0.0016027713427320123
1761509339197344000,6.327343994140625,0.0003009703941643238,-0.0013333922252058983,-0.0006528918165713549
1761509339217502200,6.347502197265625,-0.0006393525982275605,-0.0005264617502689362,0.0003382961731404066
1761509339237659000,6.367658935546875,0.0008688885718584061,-0.0008181678131222725,-0.0013384881895035505
1761509339257817000,6.387817138671875,0.005572695285081863,-0.00026194844394922256,0.0031991880387067795
1761509339277975000,6.40797509765625,0.00026353076100349426,-0.0020405594259500504,-0.00059752375818789
1761509339298132000,6.428132080078125,-0.003059248672798276,-0.0007127560675144196,-0.0005575683899223804
1761509339318290000,6.4482900390625,-0.0006204127566888928,0.0014975424855947495,0.0013443275820463896
1761509339338447000,6.468447021484375,-0.0005439937813207507,-0.00298511516302824,0.0008147757034748793
1761509339358605000,6.48860498046875,0.000920736463740468,0.0007943278178572655,-0.00022148783318698406
1761509339378763000,6.508762939453125,0.002625878434628248,0.00014594011008739471,0.0007345054764300585
1761509339398920000,6.528919921875,-0.002186194993555546,0.0005049742758274078,-0.0017076293006539345
1761509339419078100,6.549078125,0.0004129973240196705,0.0016295267269015312,0.0007102282252162695
1761509339439235000,6.569235107421875,-0.002474952954798937,-0.0017511015757918358,-0.0003148715477436781
1761509339459393000,6.58939306640625,-0.0009422560688108206,0.00019240006804466248,-0.0006933258846402168
1761509339479551000,6.609551025390625,-0.001183121930807829,-0.001977694220840931,0.0003999334294348955
1761509339499708200,6.629708251953125,0.001043396070599556,0.00100810918956995,0.0022987443953752518
1761509339519866000,6.6498662109375,0.002391344867646694,0.00018229149281978607,-0.0003629953134804964
1761509339540023000,6.67002294921875,-0.0009723705006763339,0.00006316602230072021,0.0005293732974678278
1761509339560181200,6.69018115234375,0.0008025660645216703,-0.0020114900544285774,0.002100733108818531
1761509339580339000,6.7103388671875,-0.000049193622544407845,0.0000561615452170372,-0.003062041476368904
1761509339600496000,6.73049609375,-0.0014415273908525705,0.0006308220326900482,-0.0034346089232712984
1761509339620654000,6.750654052734375,0.0007095504552125931,0.000205138698220253,0.00017916131764650345
1761509339640811000,6.77081103515625,0.002577122300863266,0.0019769025966525078,-0.00010854844003915787
1761509339660969000,6.790968994140625,-0.001648189383558929,0.0014094337821006775,0.0006079955492168665
1761509339681127200,6.811127197265625,0.0004822937771677971,0.0018538795411586761,-0.0004449270199984312
1761509339701284000,6.8312841796875,0.001278089126572013,0.0012757694348692894,-0.001962072914466262
1761509339721442000,6.851442138671875,-0.001065351185388863,0.00015166029334068298,-0.0012298328801989555
1761509339741599000,6.871598876953125,0.0015740543603897095,-0.0015658177435398102,0.0016918459441512823
1761509339761757200,6.891757080078125,0.0005209022201597691,-0.0012291418388485909,0.0020214682444930077
1761509339781915000,6.911914794921875,0.0016039973124861717,-0.0011013410985469818,-0.0011792469304054976
1761509339802072000,6.932072021484375,0.002440586918964982,-0.000688496045768261,-0.0004494735039770603
1761509339822230000,6.95222998046875,-0.0011199689470231533,0.0004168851301074028,0.0004955942276865244
1761509339842387000,6.972386962890625,-0.0003910791128873825,0.0013033626601099968,0.0018608589889481664
1761509339862545000,6.992544921875,-0.000656107091344893,-0.00022478774189949036,-0.0006400577258318663
1761509339882702000,7.0127021484375,0.0008956606034189463,0.0007377862930297852,-0.0014878336805850267
1761509339902860300,7.0328603515625,0.0016632741317152977,-0.000643409788608551,0.0017036087810993195
1761509339923018000,7.05301806640625,-0.0020971265621483326,-0.0006505036726593971,-0.0023632668890058994
1761509339943175200,7.073175048828125,-0.001180762890726328,0.0013483613729476929,0.0014800077769905329
1761509339963333000,7.0933330078125,-0.0024905684404075146,-0.00003795512020587921,0.0012180141638964415
1761509339983490800,7.11349072265625,-0.001376758678816259,-0.0009361868724226952,-0.00019109458662569523
1761509340003648800,7.133648681640625,-0.0011352096917107701,0.00045942142605781555,0.00003286241553723812
1761509340023806700,7.153806640625,0.001508874585852027,0.001044456847012043,0.00017731101252138615
1761509340043964000,7.1739638671875,-0.0019381310557946563,-0.0012173429131507874,0.000131294596940279
1761509340064121600,7.19412158203125,0.00024177879095077515,-0.003065303899347782,0.004185127560049295
1761509340084278800,7.21427880859375,0.00040829461067914963,0.0008932147175073624,0.000045665306970477104
1761509340104437000,7.23443701171875,0.0013942546211183071,0.0003834795206785202,0.0011136587709188461
1761509340124595000,7.254594970703125,-0.0007675333181396127,0.0004649544134736061,0.00009426032193005085
1761509340144751900,7.274751953125,-0.00031993165612220764,0.001693560741841793,0.0016117881750687957
1761509340164909800,7.294909912109375,0.000389032531529665,-0.0030898461118340492,0.00017658807337284088
1761509340185066800,7.315066650390625,0.0005974390078336,0.0009235432371497154,0.00024011707864701748
1761509340205224700,7.335224609375,0.0023885664995759726,-0.0002028467133641243,-0.000042926520109176636
1761509340225383000,7.3553828125,0.0012238908093422651,-0.0011569410562515259,0.00047131627798080444
1761509340245539800,7.375539794921875,0.00045848172158002853,0.0007851310074329376,0.00021225912496447563
1761509340265697800,7.39569775390625,-0.0012144678039476275,0.0009867548942565918,-0.000069853151217103
1761509340285854700,7.415854736328125,0.0015119165182113647,0.0013430938124656677,-0.00208815885707736
1761509340306013000,7.436012939453125,-0.000854617333970964,0.0017986791208386421,-0.001057974761351943
1761509340326171000,7.4561708984375,-0.0003207129193469882,0.00027802400290966034,0.0014436328783631325
1761509340346327800,7.476327880859375,-0.0010323417373001575,0.0006277179345488548,-0.0007944274693727493
1761509340366485800,7.49648583984375,-0.00029472215101122856,-0.0009061330929398537,0.0006345303263515234
1761509340386642700,7.516642578125,-0.00041881296783685684,-0.0013100123032927513,0.00018987292423844337
1761509340406800600,7.536800537109375,0.0004674261435866356,-0.00020639784634113312,0.0004690769128501415
1761509340426958800,7.556958740234375,-0.00005178432911634445,-0.0009738858789205551,-0.0022072179708629847
1761509340447115800,7.57711572265625,0.001723861088976264,-0.00013774633407592773,-0.0015492832753807306
1761509340467273700,7.597273681640625,-0.00008683581836521626,0.002909090369939804,0.0003028858918696642
1761509340487431000,7.617430908203125,-0.0018671017605811357,0.0009867148473858833,0.0029113690834492445
1761509340507588900,7.6375888671875,-0.001395814586430788,0.002093723975121975,0.0014684556517750025
1761509340527746800,7.657746826171875,-0.00047776999417692423,0.00299949012696743,-0.0005746961105614901
1761509340547903700,7.67790380859375,0.0014116768725216389,-0.002350267954170704,0.002612731885164976
1761509340568062000,7.69806201171875,0.0015882353764027357,0.00277659110724926,0.0005629253573715687
1761509340588219000,7.718218994140625,0.0002493634819984436,0.001180950552225113,-0.000967969186604023
1761509340608376800,7.738376953125,0.00019606109708547592,0.0016843443736433983,0.0029339392203837633
1761509340628534800,7.75853466796875,-0.0010639287065714598,-0.001121903769671917,-0.0001668180339038372
1761509340648692000,7.77869189453125,-0.001632473897188902,0.0007874183356761932,0.001964225433766842
1761509340668849700,7.798849609375,0.00011974060907959938,0.0003616688773036003,0.00011762022040784359
1761509340689006800,7.8190068359375,0.0003700624220073223,-0.0005275104194879532,0.0007218439131975174
1761509340709164800,7.839164794921875,-0.0005214019911363721,-0.00003796536475419998,-0.0003544262144714594
1761509340729321700,7.85932177734375,-0.0018589955288916826,-0.0021362220868468285,-0.002308282069861889
1761509340749479700,7.879479736328125,-0.0002781201619654894,-0.0014926837757229805,-0.0012903041206300259
1761509340769638000,7.899637939453125,-0.00038590445183217525,0.0008496381342411041,0.0015541380271315575
1761509340789794800,7.919794921875,0.00138945528306067,0.0005898131057620049,0.0019885622896254063
1761509340809952800,7.939952880859375,-0.0014444764237850904,-0.0023013977333903313,0.00066525605507195
1761509340830110000,7.96010986328125,0.0002950001507997513,0.0019817082211375237,0.0003656477201730013
1761509340850268000,7.980267822265625,0.0008759871125221252,-0.001480642706155777,-0.00041271024383604527
1761509340870425600,8.000425537109376,0.0010674463119357824,0.00020639970898628235,0.0019577504135668278
1761509340890581800,8.020581787109375,-0.0008786956313997507,0.0006280587986111641,0.0025256723165512085
1761509340910740000,8.040739990234375,-0.0009644633391872048,-0.0007354049012064934,-0.0009086430072784424
1761509340930897700,8.060897705078125,-0.00005299667827785015,0.00010082684457302094,-0.0011363967787474394
1761509340951054800,8.081054931640624,0.0013163594994693995,0.0023432867601513863,0.0009668762795627117
1761509340971212300,8.10121240234375,0.0002779772039502859,-0.000029272399842739105,-0.0024038709234446287
1761509340991369500,8.121369384765625,0.00009142118506133556,0.0007231710478663445,0.0006183797959238291
1761509341011527400,8.14152734375,0.0001041314098984003,0.00029420293867588043,-0.0004229019396007061
1761509341031684400,8.161684326171875,-0.0009557140292599797,-0.0013076448813080788,-0.0006307980511337519
1761509341051842600,8.181842529296874,0.0006442561279982328,-0.001631665974855423,0.001107039861381054
1761509341072000500,8.20200048828125,0.00007169297896325588,0.0014638099819421768,-0.000023458385840058327
1761509341092157400,8.222157470703126,0.0012319192755967379,-0.0009250771254301071,0.0008682424668222666
1761509341112315400,8.2423154296875,-0.0005757126491516829,0.0003482010215520859,-0.002050727838650346
1761509341132472300,8.262472412109375,0.0013781033921986818,-0.00024227797985076904,0.0033655427396297455
1761509341152630300,8.28263037109375,0.0012598028406500816,-0.0036837225779891014,0.001487121800892055
1761509341172788500,8.30278857421875,0.000491350656375289,0.00043526943773031235,0.0007751160301268101
1761509341192945400,8.3229453125,-0.001501909107901156,0.0015354203060269356,0.0012730150483548641
1761509341213103400,8.343103271484376,-0.0001348867081105709,0.0002737687900662422,-0.0021406228188425303
1761509341233260300,8.36326025390625,0.0005070664919912815,0.0001248801127076149,-0.0002506314776837826
1761509341253418500,8.38341845703125,0.0011920079123228788,-0.0008143121376633644,0.0013022043276578188
1761509341273576400,8.403576416015625,-0.0001580687239766121,-0.0007334090769290924,-0.00039087538607418537
1761509341293733400,8.4237333984375,-0.00009189918637275696,0.0002385331317782402,-0.00018832017667591572
1761509341313892400,8.443892333984374,-0.0012015013489872217,0.0014403760433197021,0.0016494439914822578
1761509341334050300,8.46405029296875,-0.00031912303529679775,0.000773504376411438,-0.003166869515553117
1761509341354208500,8.48420849609375,0.00034617865458130836,-0.0001023225486278534,-0.0011125674936920404
1761509341374365400,8.504365478515625,-0.0014438026119023561,0.000022868625819683075,-0.001631659921258688
1761509341394523400,8.5245234375,-0.0018521705642342567,0.0018556183204054832,0.0002323330845683813
1761509341414680600,8.5446806640625,0.0019849766977131367,0.002009119838476181,-0.0008535368833690882
1761509341434838300,8.56483837890625,-0.0020378229673951864,-0.0007671341300010681,0.0007682396098971367
1761509341454996200,8.584996337890624,-0.0007579638622701168,0.0007161572575569153,-0.00023545604199171066
1761509341475153400,8.6051533203125,-0.0002643140032887459,-0.00012512970715761185,-0.00011339620687067509
1761509341495311600,8.6253115234375,0.0033962540328502655,-0.0022907331585884094,0.0016331366496160626
1761509341515468300,8.64546826171875,-0.0000688815489411354,0.0004964591935276985,-0.0002856198698282242
1761509341535626500,8.66562646484375,0.0001237455289810896,0.0008772788569331169,-0.0020237138960510492
1761509341555783400,8.685783447265624,-0.0013075743336230516,0.0010638236999511719,-0.0008318186737596989
1761509341575941400,8.70594140625,-0.004088384564965963,0.00039669219404459,-0.00034816027618944645
1761509341596099300,8.726099365234376,0.00003969878889620304,-0.0009588180109858513,0.0011117961257696152
1761509341616256500,8.746256591796875,-0.00043030455708503723,-0.0001560477539896965,-0.0006436188705265522
1761509341636414200,8.766414306640625,0.00043774559162557125,0.0014506559818983078,-0.001883071381598711
1761509341656571400,8.7865712890625,0.0019780355505645275,-0.0007336921989917755,0.0005977959372103214
1761509341676729300,8.806729248046874,0.00022485340014100075,-0.001377028413116932,0.000519587891176343
1761509341696887600,8.826887451171874,-0.00027575460262596607,-0.001771257258951664,0.0008863925468176603
1761509341717044500,8.84704443359375,-0.0005535134114325047,-0.0012423507869243622,-0.000018385006114840508
1761509341737202400,8.867202392578125,-0.002160663716495037,0.0014679515734314919,0.00041118916124105453
1761509341757359600,8.887359619140625,0.000057410215958952904,0.0007108533754944801,-0.0006159066688269377
1761509341777517300,8.907517333984375,-0.000161745585501194,0.00041592586785554886,0.00003718002699315548
1761509341797675300,8.92767529296875,0.00009452458471059799,-0.0028003090992569923,-0.001845373073592782
1761509341817832400,8.94783251953125,-0.0020318259485065937,0.0028120316565036774,0.0004519280046224594
1761509341837990400,8.967990478515626,-0.0010650834301486611,-0.000055880285799503326,-0.0006771944463253021
1761509341858147300,8.988147216796875,0.000041751423850655556,0.002016272395849228,-0.0012934152036905289
1761509341878305500,9.008305419921875,0.0013608620502054691,0.0000768657773733139,-0.0007620546966791153
1761509341898462200,9.028462158203125,0.0006670232396572828,-0.001680673100054264,-0.0011283028870821
1761509341918620400,9.048620361328124,0.0035813236609101295,0.0008610282093286514,0.003612678498029709
1761509341938778400,9.0687783203125,0.0012460509315133095,-0.0004822993651032448,0.0012380708940327168
1761509341958935600,9.088935546875,-0.00254612579010427,-0.0005955398082733154,0.0012672652956098318
1761509341979093800,9.10909375,-0.002199935493990779,-0.0011766878888010979,-0.0010946518741548061
1761509341999251000,9.1292509765625,-0.0008870422607287765,0.00030026771128177643,0.0008551250211894512
1761509342019409000,9.149408935546875,-0.0003659243229776621,0.0010413676500320435,-0.0003910863306373358
1761509342039567000,9.169567138671875,0.001101059140637517,-0.0008354168385267258,0.0010324111208319664
1761509342059723800,9.189723876953124,-0.0036802212707698345,-0.0005773315206170082,-0.004323259927332401
1761509342079882000,9.209882080078126,-0.0005155211547389627,-0.0012176036834716797,-0.0017476023640483618
1761509342100039000,9.230038818359375,-0.0021122999023646116,0.0010437797755002975,0.0008493224158883095
1761509342120196900,9.25019677734375,-0.0028078535106033087,-0.0009100381284952164,-0.0024225320667028427
1761509342140353800,9.270353759765625,-0.0017660233424976468,-0.0004719039425253868,0.002275549340993166
1761509342160512000,9.290511962890625,0.0010344386100769043,0.0010315654799342155,0.0022191645111888647
1761509342180669700,9.310669677734374,0.001031710533425212,0.0005540018901228905,0.000038804253563284874
1761509342200827000,9.330826904296876,0.001432514050975442,0.0006392728537321091,0.0006312839686870575
1761509342220984800,9.35098486328125,0.002723910380154848,0.0027568629011511803,0.0026096440851688385
1761509342241141800,9.371141845703125,0.0010494054295122623,-0.0011440590023994446,0.0018886241596192122
1761509342261300000,9.391300048828125,-0.0006931602256372571,-0.0007164152339100838,-0.0003562881611287594
1761509342281458000,9.4114580078125,-0.00042922981083393097,-0.0003502797335386276,-0.0018712980672717094
1761509342301615000,9.431614990234374,-0.000014086486771702766,-0.0016822339966893196,-0.0003481979947537184
1761509342321772800,9.451772705078126,0.0009259856306016445,-0.0002691997215151787,0.002470671199262142
1761509342341930000,9.471929931640625,-0.002135009039193392,-0.0015824288129806519,-0.0007025380618870258
1761509342362088000,9.492087890625,-0.0008486072765663266,-0.000586790032684803,0.0017356515163555741
1761509342382244900,9.512244873046875,-0.0009525024797767401,-0.001559276133775711,0.00037978868931531906
1761509342402402800,9.53240283203125,0.001189365517348051,0.0015038633719086647,0.0002041792031377554
1761509342422561000,9.55256103515625,0.001023187767714262,-0.00028371531516313553,0.0013108989223837852
1761509342442717700,9.5727177734375,0.002896776655688882,0.0004146825522184372,0.002089950256049633
1761509342462876000,9.5928759765625,0.00017909565940499306,-0.0008757226169109344,-0.0009313914924860001
1761509342483032800,9.61303271484375,-0.0007620030082762241,0.0006534978747367859,0.00010081799700856209
1761509342503191000,9.63319091796875,-0.0026618074625730515,0.00016040820628404617,0.0028278944082558155
1761509342523348700,9.6533486328125,0.00007860246114432812,0.0028235269710421562,-0.001989391865208745
1761509342543506000,9.673505859375,-0.001211671275086701,0.0005767149850726128,0.002164693083614111
1761509342563664000,9.693663818359376,-0.00040358840487897396,-0.0013778330758213997,-0.0013404469937086105
1761509342583820800,9.71382080078125,-0.0014249461237341166,0.0008690217509865761,-0.000017933547496795654
1761509342603978800,9.733978759765625,0.0009789150208234787,0.0009983498603105545,-0.0005103873554617167
1761509342624136000,9.754135986328125,0.0014609559439122677,-0.001372775062918663,0.000399530865252018
1761509342644294000,9.7742939453125,-0.0014617235865443945,-0.00027488358318805695,-0.0014395315665751696
1761509342664451800,9.794451904296874,-0.0013999419752508402,-0.00001729372888803482,-0.0031141452491283417
1761509342684609000,9.814609130859376,-0.00009288941510021687,0.000439424067735672,-0.0004382925108075142
1761509342704767000,9.83476708984375,-0.0008731959387660027,-0.001916009932756424,-0.0002298720646649599
1761509342724924000,9.854923828125,-0.0012581899063661695,0.000245789997279644,0.0002764004748314619
1761509342745081900,9.875081787109375,0.0008796441834419966,0.001452835276722908,-0.00080916378647089
1761509342765239000,9.895239013671874,0.0012006524484604597,-0.000037746503949165344,-0.0008509650360792875
1761509342785396700,9.915396728515624,0.002233831211924553,-0.0016333479434251785,-0.0006505616474896669
1761509342805555000,9.935554931640626,-0.0005905443103983998,0.000914277508854866,0.0003830131608992815
1761509342825711900,9.9557119140625,-0.0006753708003088832,-0.00019179284572601318,0.0012307309079915285
1761509342845869800,9.975869873046875,-0.0006757152732461691,-0.0014000264927744865,-0.0006394039373844862
1761509342866026800,9.99602685546875,0.0021251090802252293,-0.0005120793357491493,-0.0014562138821929693
1761509342886185000,10.01618505859375,-0.002278496278449893,0.00045075081288814545,0.0027892126236110926
1761509342906343000,10.036343017578124,0.000795022351667285,0.002985425293445587,0.0008909523021429777
1761509342926499800,10.056499755859376,-0.001884590252302587,-0.0003087064251303673,-0.0006438556592911482
1761509342946657800,10.07665771484375,0.0001789955422282219,0.0015679523348808289,0.0009092632681131363
1761509342966815000,10.09681494140625,-0.002610594965517521,0.00009385589510202408,0.0004108562134206295
1761509342986973000,10.116972900390625,0.0010994875337928534,0.0006173122674226761,0.00038314471021294594
1761509343007129600,10.137129638671874,0.0005684331990778446,0.0012248028069734573,-0.0005177331622689962
1761509343027287800,10.157287841796874,0.00018361094407737255,0.0019943667575716972,0.001093023456633091
1761509343047445800,10.17744580078125,0.00004324503242969513,0.0008809380233287811,-0.0018865158781409264
1761509343067603000,10.19760302734375,0.0004934612661600113,0.00036595482379198074,-0.0007928214035928249
1761509343087760600,10.2177607421875,-0.0006336290389299393,0.0024828938767313957,0.0001888612750917673
1761509343107917800,10.237917724609375,-0.0005130143836140633,-0.00032565556466579437,0.00041219196282327175
1761509343128075800,10.25807568359375,-0.0013887541135773063,-0.0024110302329063416,0.0013514426536858082
1761509343148233700,10.278233642578124,-0.0005155144026502967,0.002155720256268978,0.0030150138773024082
1761509343168390700,10.298390625,-0.002164437435567379,0.0009398944675922394,-0.0007020269986242056
1761509343188548900,10.318548828125,-0.0005797871854156256,0.0012587234377861023,-0.0004996601492166519
1761509343208705500,10.33870556640625,-0.001200567465275526,-0.0005615949630737305,0.00002881954424083233
1761509343228863700,10.35886376953125,-0.001070466823875904,0.0011703930795192719,-0.0013755098916590214
1761509343249021000,10.37902099609375,0.0017589912749826908,0.00012200605124235153,0.0010449306573718786
1761509343269179000,10.399178955078124,0.002053617499768734,-0.003642880357801914,0.0003442862071096897
1761509343289336600,10.419336669921876,0.0018090915400534868,0.0019033681601285934,-0.0011181693989783525
1761509343309493800,10.43949365234375,-0.0009361403062939644,-0.00022158678621053696,0.0019943031948059797
1761509343329651700,10.459651611328125,-0.0015369136817753315,-0.0013031084090471268,-0.0005488023161888123
1761509343349808600,10.47980859375,-0.00006722565740346909,-0.001705036498606205,-0.0008550668135285378
1761509343369966800,10.499966796875,0.00017066369764506817,0.0016270289197564125,-0.00008175498805940151
1761509343390123800,10.520123779296876,0.002293679164722562,0.00011957157403230667,-0.00006293226033449173
1761509343410281700,10.54028173828125,-0.0004269607597962022,-0.0007094861939549446,-0.002358132041990757
1761509343430439700,10.560439697265625,-0.0014599162386730313,0.0007965248078107834,0.0007669772021472454
1761509343450596900,10.580596923828125,-0.0028990963473916054,-0.0005175052210688591,0.0024429364129900932
1761509343470754800,10.6007548828125,0.000799909932538867,0.0011378303170204163,0.0007467009127140045
1761509343490911700,10.620911865234374,-0.000024965498596429825,0.0001230156049132347,0.0016320443246513605
1761509343511069700,10.641069580078126,0.0011104797013103962,0.00496418122202158,0.0036584055051207542
1761509343531227000,10.661226806640625,0.0015256996266543865,0.02092934027314186,0.014572443440556526
1761509343551384600,10.681384521484375,-0.003288600128144026,0.03543507680296898,0.037335269153118134
1761509343571542800,10.701542724609375,-0.0005664471536874771,0.010620225220918655,0.010921656154096127
1761509343591699700,10.72169970703125,-0.002263285918161273,0.009441584348678589,0.00886445865035057
1761509343611857700,10.741857666015624,-0.0013506751274690032,-0.007575958501547575,-0.009972900152206421
1761509343632014800,10.762014892578126,-0.001258021336980164,-0.03039153292775154,-0.029978962615132332
1761509343652172800,10.7821728515625,-0.0013567827409133315,-0.03575235232710838,-0.029866373166441917
1761509343672329700,10.802329833984375,0.0036613515112549067,0.019319213926792145,0.0017859297804534435
