time,seconds_elapsed,z,y,x
1761509345017584000,0.081584228515625,-0.05429214667975902,0.0002064366917591542,-0.002999939867807552
1761509345037741800,0.101741943359375,-0.057582420396804807,0.013253522391989826,0.007472920563397928
1761509345057899000,0.12189892578125,-0.05070084418952465,-0.00605888904700987,-0.0033005393827334043
1761509345078057000,0.142056884765625,-0.0611772300183773,0.0022261972826439886,0.0074698609566316
1761509345098215200,0.162215087890625,-0.046212300598621366,-0.00013569127679802475,0.007953105295775458
1761509345118371800,0.182371826171875,-0.037979309782385826,0.001552252676989883,-0.002815230950666591
1761509345138530000,0.202530029296875,-0.05683306333422661,-0.0014743103362619876,-0.0020364742636680604
1761509345158687200,0.222687255859375,-0.06401274570524693,0.012741517749242483,0.005087970788776874
1761509345178845000,0.242844970703125,-0.05667758051156997,0.0013030819552019238,-0.009989469961589201
1761509345199002000,0.263002197265625,-0.06775310127735137,0.0010602222431916743,-0.0024266974239610132
1761509345219160000,0.28316015625,-0.05279167898893356,-0.0018920334248337895,0.006962925214646384
1761509345239317000,0.30331689453125,-0.05084755918383598,-0.0037128556438256054,-0.003250370964920148
1761509345259475000,0.323474853515625,-0.04590893373787403,0.008152290262840688,0.003654668316338211
1761509345279633200,0.343633056640625,-0.0700000034213066,0.012816619678912684,-0.004206329116038978
1761509345299789800,0.363789794921875,-0.057279053536057466,-0.0002288403198122978,0.005886537287943065
1761509345319948000,0.383947998046875,-0.06535773057341575,-0.0007393288589082658,-0.0007994250156916678
1761509345340105000,0.40410498046875,-0.04859598086476326,-0.0018211784120183436,0.0014476780576631427
1761509345360263200,0.42426318359375,-0.05502981330454349,0.0037373964300379155,0.0007998542739544064
1761509345380420000,0.444420166015625,-0.05442892480194568,0.01178917632731609,-0.0002715286840684712
1761509345400578000,0.464578125,-0.06849485955536365,-0.0007609835682902484,-0.0030923308589961376
1761509345420735200,0.4847353515625,-0.05278349568247795,0.0026515282889362423,-0.005590814877534285
1761509345440893000,0.504892822265625,-0.057870005166530604,0.0061287302796728905,-0.004052608992205932
1761509345461051000,0.52505078125,-0.05772095208466053,0.0010278817430138588,0.004115372030111029
1761509345481208000,0.5452080078125,-0.0553255813807249,0.007740083599602803,0.004704780157469213
1761509345501366000,0.565365966796875,-0.05412672698497772,0.005195550215942785,0.0016364329622592776
1761509345521523000,0.58552294921875,-0.049338908186554904,0.000679963354486972,0.006749465127056464
1761509345541681200,0.60568115234375,-0.05966156475841999,0.005117717473069205,-0.00601531476676464
1761509345561837800,0.625837890625,-0.05921265194714069,0.0022290194273926318,-0.0020187742101959883
1761509345581996000,0.64599609375,-0.06848784529268741,-0.00014986593262292445,-0.006434791421005502
1761509345602153000,0.666153076171875,-0.06145487791597843,0.006328609366482123,-0.004028287401702255
1761509345622311200,0.686311279296875,-0.05815992802381515,0.002120225290674716,0.0008217464453540742
1761509345642468900,0.70646875,-0.05097498495578766,0.012420551299722865,0.0015796704068779944
1761509345662626000,0.7266259765625,-0.058007367810606954,0.0015178937496617435,-0.006267207168601453
1761509345682784000,0.746783935546875,-0.06069967563450336,0.004611366252973675,-0.001628806778229773
1761509345702941000,0.76694091796875,-0.05576280375421047,-0.009850920007424428,-0.0029810616374015804
1761509345723099000,0.787098876953125,-0.060550038030743596,0.01000474972911179,-0.013584791039815173
1761509345743256000,0.807256103515625,-0.06145020174086094,0.0029774357750546186,0.000444620228651911
1761509345763414000,0.8274140625,-0.0443938529998064,0.005443688891269266,-0.006270513370539993
1761509345783571000,0.847571044921875,-0.052474283602833745,0.001047947283508256,0.005519804601091891
1761509345803729200,0.867729248046875,-0.06310089155733585,0.0032997173988260327,-0.000525731774000451
1761509345823885800,0.8878857421875,-0.063398997721076,0.006212198178889229,-0.005208765890542417
1761509345844044000,0.9080439453125,-0.05756371569633484,0.005979640665184706,-0.00001074058972299099
1761509345864202000,0.928201904296875,-0.050831192570924756,0.0042061738524120295,0.004035475194314494
1761509345884359200,0.948359130859375,-0.06729132898449898,-0.002893821745365858,-0.008270345418248325
1761509345904516900,0.968516845703125,-0.062355041626095765,0.0035577746799681335,-0.01630962202697992
1761509345924674000,0.988674072265625,-0.06399988622367382,0.00747887538014911,0.0036294699430000034
1761509345944832000,1.00883203125,-0.05427402650117874,0.0011334062104113398,-0.002039597802516073
1761509345964989000,1.028989013671875,-0.053823944646120066,-0.003797072461713105,0.003121995344897732
1761509345985147000,1.04914697265625,-0.06804243961274624,0.007343138437578454,-0.0008158555606845766
1761509346005303800,1.0693037109375,-0.05083236161470413,0.005138696329016238,-0.003951943363016471
1761509346025462000,1.0894619140625,-0.05531973616182804,-0.0033877153426874426,-0.012595414676284417
1761509346045620000,1.109619873046875,-0.05950900454521179,0.004465016584843397,-0.009409596847556531
1761509346065777200,1.129777099609375,-0.04828735330700874,-0.001575386957405135,-0.004255858213035389
1761509346085934800,1.149934814453125,-0.0653466246575117,0.0017549356422387062,-0.0018606427727267145
1761509346106092000,1.170092041015625,-0.05951251167654991,-0.0005529394413344562,0.00634657428143546
1761509346126250000,1.19025,-0.06505027205944061,-0.0015203779676929115,-0.002100086684944108
1761509346146407000,1.210406982421875,-0.058015551117062567,0.00397178057464771,-0.00024761808551847936
1761509346166564900,1.23056494140625,-0.058167526808381075,0.0004627678066957742,0.0032267343610059467
1761509346186722000,1.25072216796875,-0.057418169745802876,0.004914185124449431,-0.0039457328179385515
1761509346206879700,1.270879638671875,-0.06146072313487529,0.0024814415521919727,0.000861521333316341
1761509346227037000,1.291036865234375,-0.04768997193574905,0.004180116962548345,-0.0025379940450191494
1761509346247195000,1.31119482421875,-0.05397241320610046,0.006015634427173063,-0.003397350820712745
1761509346267353000,1.33135302734375,-0.05786065281629562,0.006911962212389334,0.001889622272038832
1761509346287510000,1.351510009765625,-0.05726093335747719,-0.0009743431911803782,-0.001053591573005542
1761509346307668000,1.37166796875,-0.05875380226373672,0.00816550593744032,-0.00834075290649198
1761509346327825200,1.3918251953125,-0.05067220261693001,0.005621356146270409,-0.0023050255393609405
1761509346347982800,1.41198291015625,-0.0454354710072279,-0.00549003051733598,-0.0030710414757952093
1761509346368140000,1.43214013671875,-0.055309799289703365,0.0064515690258704125,-0.0011878489445429294
1761509346388298000,1.452298095703125,-0.06159282508194446,0.0017445877781603484,-0.001130638864589855
1761509346408455000,1.472454833984375,-0.05067103357315063,0.006328024844592437,-0.001194415682647377
1761509346428612900,1.49261279296875,-0.05575871210098266,0.011077237798832356,-0.005431066871713847
1761509346448770000,1.51277001953125,-0.05426175154149532,0.010160451747477053,-0.00025440401933155953
1761509346468927700,1.532927734375,-0.049022681844234466,0.0037634076541289683,-0.007299637222569435
1761509346489086000,1.5530859375,-0.055905427095293996,0.00889618569901213,-0.00750945318150334
1761509346509243100,1.5732431640625,-0.0568026681959629,0.004535944662895053,0.005614003956876694
1761509346529401000,1.593401123046875,-0.06428396386206149,0.009527633736655116,-0.010910703859198838
1761509346549558000,1.61355810546875,-0.062037646239995956,0.004645031060557812,-0.0020664036110509187
1761509346569716000,1.633716064453125,-0.0536567713856697,0.008208970619831234,-0.004757177064986899
1761509346589873200,1.653873046875,-0.06443009433448314,0.0009133702515624463,-0.008210906848590821
1761509346610030800,1.67403076171875,-0.04736790037453174,0.0043309236100874835,-0.00864656745265238
1761509346630188000,1.69418798828125,-0.06292904212176799,0.005682045958098024,0.0006165244631469249
1761509346650346000,1.714345947265625,-0.04557166460752487,0.004167695872392505,-0.001432571820076555
1761509346670503000,1.7345029296875,-0.0546983893930912,0.009757670499710366,-0.007930445939395576
1761509346690660900,1.754660888671875,-0.07609890481829643,0.017411719783674926,0.005969018806470557
1761509346710819000,1.774819091796875,-0.05859130517840385,0.010158131926227361,0.0026058990489225835
1761509346730975700,1.794975830078125,-0.05500175625383854,-0.0035744974859058857,-0.005246193557791412
1761509346751134000,1.815134033203125,-0.04677051900327205,0.005418353520613164,0.003007967910636216
1761509346771291100,1.835291015625,-0.059490884366631504,0.009953722794773056,0.0009856409033294766
1761509346791449000,1.855448974609375,-0.058442836618423456,0.015831062996108085,-0.009952836878784
1761509346811606000,1.87560595703125,-0.06517594426572322,0.004982181459898129,-0.007714729962637648
1761509346831764000,1.895763916015625,-0.06367898370623588,-0.0008758147201500833,-0.00498303084326908
1761509346851921200,1.915921142578125,-0.0626326895236969,0.0013899017221294342,0.00023147980147041378
1761509346872078800,1.936078857421875,-0.05350538021624088,0.0072326090015005316,-0.002550369469402358
1761509346892236000,1.956236083984375,-0.047071547776460644,-0.0035169677455443886,0.0025349435714073477
1761509346912394000,1.97639404296875,-0.05933832415342331,0.006093668099446222,-0.00038104433999396856
1761509346932552000,1.996552001953125,-0.06472410884499549,0.007052603658940643,-0.004238907078234479
1761509346952708900,2.016708984375,-0.05874035826027393,0.0017967654899694024,-0.004202502324292436
1761509346972867300,2.036867431640625,-0.04557341817319393,0.004714671363821253,-0.0007240947571583091
1761509346993024000,2.05702392578125,-0.05858896709084511,0.00720586712504737,-0.007853919237619265
1761509347013182200,2.07718212890625,-0.06128244395852089,0.007674151357077062,-0.0030213936477899547
1761509347033339100,2.097339111328125,-0.0741524469256401,0.005128275399701669,0.003971762308338657
1761509347053497000,2.1174970703125,-0.05529752433001995,0.009233893220778553,-0.006326408276241272
1761509347073654300,2.137654296875,-0.06053425593972206,-0.004358387005748227,-0.004105608687922358
1761509347093812200,2.157812255859375,-0.04975917942523956,-0.000519676492549479,-0.008764503877051175
1761509347113970000,2.177969970703125,-0.0578355183750391,-0.0005484185298439115,-0.0013843944299500434
1761509347134127000,2.198127197265625,-0.06232406196594238,-0.003614957360457629,0.0068599397642072285
1761509347154285300,2.218285400390625,-0.04571194986104965,0.0004952909699641167,-0.003354333662893623
1761509347174442000,2.23844189453125,-0.06426759724915027,0.0009899334859568626,-0.004588104108395055
1761509347194600200,2.25860009765625,-0.05573825383484363,0.005323597042402252,-0.0020772355323191733
1761509347214757000,2.278757080078125,-0.053641573816537856,0.010106639201007782,-0.014358634089678525
1761509347234915000,2.2989150390625,-0.05379062689840793,0.0013105620087590067,-0.009928487888816744
1761509347255072000,2.319072021484375,-0.058279170489311215,0.012889356121560558,-0.008622894316120072
1761509347275230200,2.339230224609375,-0.0512432805031538,0.002293654761975631,-0.006083146705431863
1761509347295387100,2.35938720703125,-0.05992109247744083,0.008077626724587754,0.000028623306285589932
1761509347315545000,2.379545166015625,-0.06560732142031192,0.008449647507909684,-0.0027477917376440017
1761509347335702300,2.399702392578125,-0.055880292654037475,0.0021592969257384536,-0.003317216522898525
1761509347355860200,2.419860107421875,-0.05797346554100513,0.010655897981068118,-0.008011703615216538
1761509347376018000,2.440017822265625,-0.060817749056220054,0.011671943155815824,0.001047244030609727
1761509347396175000,2.460175048828125,-0.04914601596295833,0.005970936768921092,0.002548816833132878
1761509347416333300,2.480333251953125,-0.050341947749257085,0.005045903479028493,-0.009594282931811176
1761509347436490000,2.500489990234375,-0.04929506904482841,0.010318848046427591,-0.007300514005403966
1761509347456648200,2.520648193359375,-0.05692424874901771,-0.0018281196094583718,0.002144336818624288
1761509347476805000,2.54080517578125,-0.061713821113109586,0.008820563179533928,-0.008166615615715273
1761509347496963000,2.560963134765625,-0.06096855570375919,0.0008566168293356895,-0.004816414705244824
1761509347517120000,2.5811201171875,-0.05019464823305607,0.017946274184947833,-0.006194699054816738
1761509347537278200,2.6012783203125,-0.05902326685488224,0.006885512596881017,0.006874671542458236
1761509347557436200,2.621436279296875,-0.05902385137677192,-0.00022844759416766464,-0.005392387962294742
1761509347577593000,2.641593017578125,-0.0507943676918745,0.002951123156864196,0.004759743481408805
1761509347597751000,2.6617509765625,-0.06770517048239708,0.009845513179944828,0.00406643658815883
1761509347617908200,2.681908203125,-0.05513736533224582,0.00037196598439477385,-0.004716470595262944
1761509347638066200,2.702066162109375,-0.060524903589487075,0.015000320393545553,0.005791077556833625
1761509347658223000,2.72222314453125,-0.04960135851502418,0.006943645125441253,-0.000369719228381291
1761509347678381300,2.74238134765625,-0.051095980986952776,0.007575513288192451,0.005788967798138037
1761509347698538000,2.7625380859375,-0.06411503703594207,0.00021843765680678188,-0.006633346200408414
1761509347718696200,2.7826962890625,-0.056931847533583636,0.006086854766169563,0.0008371175444219261
1761509347738853000,2.80285302734375,-0.05034603940248489,0.0011909085513092576,-0.005040998975047842
1761509347759011000,2.823010986328125,-0.058872460207343096,0.005497885030228644,-0.0013675802924670278
1761509347779168300,2.843168212890625,-0.06276479147076607,0.009664329660451039,-0.008958711274899542
1761509347799326200,2.863326171875,-0.048102059867978095,0.005776683705300092,-0.01488931603343226
1761509347819484200,2.883484130859375,-0.06097089379131793,0.00463907624380663,-0.0040759076694026584
1761509347839641000,2.90364111328125,-0.05303951627016067,0.001023927087103948,0.002714099530596286
1761509347859799000,2.923799072265625,-0.05648235020041466,0.008307937482278793,-0.007471340527664869
1761509347879956200,2.943956298828125,-0.05513794985413551,0.0016318389855325222,-0.004045969188865274
1761509347900114200,2.9641142578125,-0.0501975708425045,0.000467809307994321,-0.0060530164286494255
1761509347920271000,2.98427099609375,-0.047054596641659736,-0.0005547021401580423,-0.003708426063880324
1761509347940429300,3.00442919921875,-0.06336743353903293,0.005692667816812172,-0.0017151607542764393
1761509347960586000,3.0245859375,-0.05947510227560997,-0.001422790211578831,0.004303715942753478
1761509347980743700,3.04474365234375,-0.050794952213764184,0.016095029428228734,0.00002050393191166222
1761509348000901600,3.064901611328125,-0.06381400826275348,0.007660734753077849,0.0022673695432487875
1761509348021058600,3.08505859375,-0.044808863541483876,0.006178268509823829,-0.004777891059452668
1761509348041216500,3.105216552734375,-0.055585693621635436,0.009371246731700375,-0.0003255969588644802
1761509348061373400,3.12537353515625,-0.048103228911757466,0.005772391122672706,-0.0025061376020312307
1761509348081531600,3.14553173828125,-0.06815525233745574,0.007926938808057457,-0.007348097740486264
1761509348101688600,3.1656884765625,-0.05453881491720676,-0.001995265470445156,-0.0064397963896859435
1761509348121846800,3.1858466796875,-0.05244447298645973,0.003185790429264307,-0.003730939289787784
1761509348142003500,3.20600341796875,-0.06426818177103996,0.00038119047046639024,0.0028985161867924034
1761509348162161700,3.22616162109375,-0.05514028794169425,-0.0040684824147727335,-0.0006577789221424609
1761509348182318600,3.246318603515625,-0.05199731374084949,-0.0029188100561499592,-0.0042363497949670995
1761509348202476500,3.2664765625,-0.04736030158996582,0.005314244692167267,-0.009061696725338696
1761509348222633700,3.2866337890625,-0.0572387215256691,-0.0019353976425249128,-0.00014503449387848376
1761509348242791700,3.306791748046875,-0.05484451986551284,0.00739769076956436,-0.0055493412228301165
1761509348262949600,3.32694970703125,-0.056039282608032225,0.007055928127188235,-0.010320108421752228
1761509348283106600,3.3471064453125,-0.04765899227559566,-0.004523313510185107,-0.002079464022023603
1761509348303264500,3.367264404296875,-0.06516542287170887,0.006878306537959724,-0.004265685487305745
1761509348323421400,3.38742138671875,-0.04047463372945785,0.004016377768199891,0.0011630798294674605
1761509348343579600,3.40757958984375,-0.061570028728246684,0.0029727595999371258,-0.0025197368691209704
1761509348363736600,3.427736572265625,-0.05349018264710903,0.007445968624390661,-0.0029583383489400145
1761509348383894800,3.447894775390625,-0.06695756698548794,0.00482566659078002,-0.0019345939249265937
1761509348404051500,3.468051513671875,-0.06426525916159152,-0.0030992629232816397,-0.0012187098736874758
1761509348424209700,3.488209716796875,-0.05902794302999973,0.011524269180279224,-0.0013689137330278754
1761509348444366600,3.50836669921875,-0.048555064332485194,0.0013389204535633325,-0.005843474464351311
1761509348464524500,3.528524658203125,-0.06396832204163073,0.009250798689806832,0.004580094331875443
1761509348484682500,3.5486826171875,-0.04705751925110817,-0.0025463508814107627,-0.008357667508674786
1761509348504839700,3.568839599609375,-0.06755845548808574,0.0037902773947454988,-0.0053610429759602994
1761509348524997400,3.588997314453125,-0.05154898545145988,0.008558889169199392,-0.006840038620494306
1761509348545154600,3.609154541015625,-0.05888239707946777,0.01029578683124855,0.0037232035079039633
1761509348565312500,3.6293125,-0.06112754565775394,0.0016799615767318754,0.0016474749460816383
1761509348585469400,3.649469482421875,-0.051551908060908314,-0.0015944295845925808,-0.003465986476978287
1761509348605627600,3.669627685546875,-0.04915829092264175,-0.007053526107547804,0.004139465291751548
1761509348625784600,3.68978466796875,-0.06412146677672863,0.011787669356819241,-0.00326496574585326
1761509348645942800,3.70994287109375,-0.04541851987242698,-0.0013052556459791957,0.0015419048129115252
1761509348666099500,3.730099365234375,-0.05050853648781776,0.004870537778967991,-0.013863598848041146
1761509348686257700,3.750257568359375,-0.05619184282124042,0.003449327603122219,-0.00647008193009533
1761509348706415600,3.77041552734375,-0.05005903915464878,0.008776267380081117,0.002268584252800792
1761509348726572500,3.790572509765625,-0.046322190713882445,0.0013761837240308522,0.0007162219779565929
1761509348746730500,3.81073046875,-0.06682312695086003,0.0023650851635262367,-0.004200666560232639
1761509348766887700,3.8308876953125,-0.05769698668718338,0.006974843981303274,-0.0030804486249573527
1761509348787045400,3.85104541015625,-0.05530336954891681,0.0001308415717445314,-0.00656030836366117
1761509348807202600,3.87120263671875,-0.05859831944108009,0.003573237110581249,0.0018686616824008524
1761509348827360500,3.891360595703125,-0.04797521861791611,0.0014861377713736145,-0.006068743720743805
1761509348847517400,3.911517333984375,-0.04393500331640243,-0.002495716672716662,0.0023692498819902538
1761509348867675600,3.931675537109375,-0.06713116998672485,0.000040834333887323736,0.002018902074359357
1761509348887832600,3.95183251953125,-0.04273965605199337,0.0017521500301081686,-0.006388102735066786
1761509348907990800,3.97199072265625,-0.06443827764093875,0.002100598141597584,0.0006937087520491332
1761509348928146700,3.992146728515625,-0.04917582657933235,-0.0025234997287858275,0.0021226912423968312
1761509348948303600,4.0123037109375,-0.06054945350885391,0.0018260372502263635,0.006163527598418295
1761509348968461600,4.032461669921875,-0.05695873554050922,0.005469416987570003,-0.004839804713986814
1761509348988619300,4.052619384765625,-0.0660877984136343,-0.003876731835491955,-0.011351552095031366
1761509349008777500,4.072777587890625,-0.06144961721897125,0.004167979000182822,-0.0017107677069492636
1761509349028934100,4.09293408203125,-0.05366612373590469,0.010775651903217658,0.0030843758814036843
1761509349049092400,4.11309228515625,-0.06922726548314094,0.0038888241320848465,-0.012757445970736444
1761509349069250300,4.133250244140625,-0.05202011009454727,0.00608285444448702,0.000973018883774057
1761509349089407500,4.153407470703125,-0.06384498792290687,0.0031219314128160475,0.0013895820617210119
1761509349109565200,4.173565185546875,-0.057413493570685384,-0.001123542403522879,-0.010582768812775612
1761509349129722400,4.193722412109375,-0.05531856711804867,0.00710797797483392,-0.0032623719299677756
1761509349149880300,4.21388037109375,-0.049932782426476474,0.0069709623906295745,-0.00429977955315262
1761509349170037200,4.234037353515625,-0.05397416677176952,0.002985801744600758,-0.0006834522195160389
1761509349190195200,4.2541953125,-0.04978314482271671,-0.00007729388675652444,0.007502585049299523
1761509349210352400,4.274352294921875,-0.0614560469597578,0.0023717980321031062,0.0030298509488813578
1761509349230510300,4.29451025390625,-0.05367489156424999,-0.000022586291143670675,-0.010442784953350201
1761509349250667300,4.314667236328125,-0.059063598865270614,-0.0032242136103566733,-0.0036922786466777324
1761509349270825500,4.334825439453125,-0.0542757800668478,-0.001076031733676791,-0.004049147526640445
1761509349290983400,4.3549833984375,-0.05951660332977771,0.0031558336824178694,-0.0001506696502212435
1761509349311140400,4.375140380859375,-0.057125908800959586,0.0008892039246857165,0.005734461131924763
1761509349331298300,4.39529833984375,-0.06356266385018826,0.004567737173801288,0.008764229882415384
1761509349351455500,4.41545556640625,-0.05967150163054466,-0.00222266275184229,-0.003728792998474091
1761509349371613200,4.43561328125,-0.0560796146184206,-0.0009302483211271464,-0.004932561031356453
1761509349391770400,4.455770263671875,-0.055931146058440205,-0.0017236454548314212,-0.0035150771825574337
1761509349411928300,4.47592822265625,-0.05293722493946552,-0.0004627952061593532,-0.004800285554351285
1761509349432085200,4.496085205078125,-0.06445756686329841,0.01055274813384749,-0.011074643982946872
1761509349452243500,4.516243408203125,-0.04799801497161388,-0.00238390859500505,-0.0001476648423820734
1761509349472400400,4.536400390625,-0.05338730679452419,0.0029400172409601508,0.0012832721430342644
1761509349492558300,4.556558349609375,-0.05608136818408966,0.00039736528713256116,-0.00851807310162112
1761509349512715300,4.57671533203125,-0.05518237351775169,0.003282958060270175,-0.003402574985101819
1761509349532873500,4.59687353515625,-0.06311258199512958,-0.009114258029637858,-0.002814217170514166
1761509349553030100,4.617030029296875,-0.05084171396493911,-0.0023858082911465315,-0.00017106398427858949
1761509349573188400,4.637188232421875,-0.06011982991993427,0.0008219108421355485,-0.0029148554002400486
1761509349593346300,4.65734619140625,-0.0556307018071413,-0.0035278544657398013,0.0013998568605631588
1761509349613503500,4.67750341796875,-0.0506897382736206,-0.0010234978288412094,-0.0030169275352265683
1761509349633661200,4.6976611328125,-0.05278583377003669,-0.000927599706314504,-0.0004009272173978388
1761509349653818400,4.717818359375,-0.04515256241261959,-0.0003744776018895209,-0.004200529562914744
1761509349673976300,4.737976318359375,-0.0608633417636156,0.0007192998510319739,-0.00564684678055346
1761509349694133200,4.75813330078125,-0.04979366621673107,0.002969553862698376,-0.007305016650585457
1761509349714291500,4.77829150390625,-0.05413257220387459,-0.0025757870384491978,-0.005783816698985174
1761509349734448400,4.798448486328125,-0.06176058286428451,0.0007053626572247594,-0.004088584487885237
1761509349754606300,4.8186064453125,-0.0511386510848999,-0.0037863410051446407,-0.003947157590044662
1761509349774763300,4.83876318359375,-0.06520692392587661,0.00785388270500116,-0.0023599523306824266
1761509349794921500,4.85892138671875,-0.04949439100921154,-0.008999792203959077,0.0027379553302191197
1761509349815078100,4.879078125,-0.06011632278859615,-0.00014333572713658212,-0.004384809221792966
1761509349835236400,4.899236328125,-0.06550327652394772,-0.005446465370245277,-0.008235356303257868
1761509349855394300,4.919394287109375,-0.06370704075694084,-0.007872596538625657,-0.00369661689507775
1761509349875551200,4.93955126953125,-0.057874096819758414,-0.001663257037103176,-0.004608681105542928
1761509349895709200,4.959709228515625,-0.058176294636726376,0.007678014681441709,0.00328039164384827
1761509349915866400,4.979866455078125,-0.04994213477671146,-0.00017888196455314754,0.00008078275178559125
1761509349936024300,5.0000244140625,-0.06490589515268802,0.0099887758418452,0.004013016767334193
1761509349956181200,5.02018115234375,-0.050693245404958724,-0.00344416737081483,-0.006565833922149613
1761509349976339500,5.04033935546875,-0.052936640417575835,-0.007069755723141133,-0.004191003682743758
1761509349996495600,5.06049560546875,-0.06086743341684341,-0.006091320878732949,0.0023261961915530265
1761509350016653600,5.080653564453125,-0.04410685275197029,-0.002776341978693381,0.001623034624569118
1761509350036810800,5.100810791015625,-0.057125908800959586,0.002606099978322163,-0.0016329806298483163
1761509350056968700,5.12096875,-0.05054302327930927,-0.004677727753762156,0.002303902161354199
1761509350077125600,5.141125732421875,-0.05936988833546638,0.012217840935010462,-0.008945239871973171
1761509350097283600,5.16128369140625,-0.05248597404062748,-0.000612359744682908,0.0002745426250621676
1761509350117441500,5.181441650390625,-0.05667524242401123,-0.0021850250220391896,-0.002816719654854387
1761509350137598500,5.201598388671875,-0.06161445239186287,-0.005856416144315153,-0.0016100107462145388
1761509350157756700,5.221756591796875,-0.05996902327239513,0.0007521792073268443,0.0007409271609503775
1761509350177913600,5.24191357421875,-0.055180035430192946,-0.0014714151262771337,0.0031239041741937396
1761509350198071800,5.26207177734375,-0.0548813447445631,-0.0026209961533546445,-0.00203026371859014
1761509350218228500,5.282228515625,-0.05413432576954364,0.011147005966259166,-0.003932955534756183
1761509350238386700,5.30238671875,-0.06281155322194099,-0.0015779625069815663,-0.002204058516072109
1761509350258543600,5.322543701171875,-0.04141512944996357,0.0011583031896501778,-0.00000558035741560161
1761509350278701600,5.34270166015625,-0.0548813447445631,0.006122556267213076,0.0015087057962082325
1761509350298858800,5.362858642578125,-0.06056815820932388,0.0032138657462783154,-0.001659813837846741
1761509350319016700,5.3830166015625,-0.06386252357959747,-0.005419376433920115,-0.0011889175236225128
1761509350339173600,5.403173583984375,-0.050097617599368094,-0.002108078195154667,0.004578368165669962
1761509350359331600,5.42333154296875,-0.056232759353518486,0.001469506296981126,-0.0013837825085967778
1761509350379488800,5.44348876953125,-0.05653612621426582,0.0018379103511106222,-0.00010856580785475671
1761509350399646500,5.463646484375,-0.058334700068831444,-0.002516229737782851,0.0101018625611905
1761509350419804700,5.4838046875,-0.05653787977993488,-0.001724905830156058,-0.0013388747877907006
1761509350439961600,5.503961669921875,-0.04995440973639488,0.0029126817094627766,-0.002491332758544013
1761509350460119800,5.524119873046875,-0.05489361970424652,0.00004775726501829922,-0.00613506868891418
1761509350480276500,5.5442763671875,-0.058037762948870655,-0.005693772928509861,0.002752942836796865
1761509350500434700,5.5644345703125,-0.050556467282772063,0.0020925883650779725,-0.00827777067287825
1761509350520591600,5.584591552734375,-0.058040101036429405,-0.0001830740824807435,0.012220023758942261
1761509350540749600,5.60474951171875,-0.05834171433150768,0.007256492200586944,-0.0009868830123450606
1761509350560906800,5.62490673828125,-0.06238543676435947,-0.000976151555776596,0.00850685758786276
1761509350581064700,5.645064697265625,-0.0558007976770401,0.007652030856814235,-0.003834929387224838
1761509350601221600,5.6652216796875,-0.04352992964684963,0.00419578032256104,-0.0025914869310799983
1761509350621379600,5.685379638671875,-0.04906535194218158,-0.007668963725306093,-0.005323094718903303
1761509350641536800,5.705536865234375,-0.059388008514046665,0.00980000267094001,-0.0021932448611129076
1761509350661694500,5.725694580078125,-0.06058510934412479,0.004954380137519911,0.003900149243697524
1761509350681851600,5.7458515625,-0.04622106842696667,0.0009254351486917585,-0.0075181570777669545
1761509350702009600,5.766009521484375,-0.061035191199183464,0.0059522138021420685,-0.0011513985248282552
1761509350722166500,5.78616650390625,-0.05415419951379299,-0.00876949971257709,-0.0025593108276836573
1761509350742324500,5.806324462890625,-0.06208265442550182,0.0009452358277048915,0.004197323825675994
1761509350762482700,5.826482666015625,-0.05924129351973533,0.0019506865432020275,-0.0005421988516114652
1761509350782639600,5.8466396484375,-0.05430149902999401,0.008262034247629344,-0.0050609457845333964
1761509350802797600,5.866797607421875,-0.05953939968347549,-0.005622086798632517,0.001453952534822747
1761509350822954800,5.886954833984375,-0.04622106842696667,-0.0006049527563620358,0.00836218842016533
1761509350843112700,5.90711279296875,-0.05818973864018917,0.006696483697649091,0.0006781915225088596
1761509350863269600,5.92726953125,-0.06716916390955448,-0.005167191771138459,-0.0038328652943018823
1761509350883427600,5.947427490234375,-0.04756663781702518,0.001184396612131968,-0.005593472625501454
1761509350903584800,5.967584716796875,-0.059086979740858074,0.0003520100417546928,0.0013349749308079481
1761509350923742500,5.987742431640625,-0.05190203667283058,0.006181282450817525,-0.003468470695009455
1761509350943899600,6.007899658203125,-0.0703057083696127,-0.0011245470505207777,0.005062279225094244
1761509350964057600,6.0280576171875,-0.0562362664848566,0.00278082635756582,-0.0014576240629423408
1761509350984214500,6.048214599609375,-0.05548574037849903,-0.0030370204751845446,-0.0015688384856097398
1761509351004372500,6.06837255859375,-0.053389644882082934,0.008424987990688531,-0.0023395853960886596
1761509351024529700,6.08852978515625,-0.05668284120857715,0.000810302602732554,0.0033382775772362945
1761509351044688000,6.10868798828125,-0.05937690259814262,-0.0059337191642262034,0.0001976140644866973
1761509351064844500,6.128844482421875,-0.05548398681282997,-0.006011122648837045,0.005884792855428532
1761509351085002800,6.149002685546875,-0.061768766170740126,0.011895623243320733,-0.0006091357411351054
1761509351105160700,6.16916064453125,-0.05982406184375286,-0.0035775296932086345,-0.0033355832966510206
1761509351125317600,6.189317626953125,-0.04695055174529552,-0.0046184809803497045,-0.0020280717615038155
1761509351145475600,6.2094755859375,-0.05592822344899177,-0.003700608083605766,-0.003442148943664506
1761509351165632800,6.2296328125,-0.06430792925953864,0.003544851266313344,0.002016755783045664
1761509351185790500,6.24979052734375,-0.06026946752369403,-0.005307659687753766,0.00023077654857188461
1761509351205947600,6.26994775390625,-0.05697627119719982,0.004200474763987586,-0.007497653145855292
1761509351226105600,6.290105712890625,-0.04844517421722412,0.00702048235447146,-0.0007869947923813015
1761509351246262500,6.310262451171875,-0.05727087022960186,-0.003372736969264224,-0.0006283701645676046
1761509351266420500,6.33042041015625,-0.05652034412324428,-0.005393849267018958,-0.006705817781575024
1761509351286577700,6.35057763671875,-0.056069677746295926,0.003970191405760124,-0.005272305246582254
1761509351306735600,6.370735595703125,-0.05307984828054905,-0.0005633877701126038,0.005347434575716033
1761509351326892500,6.390892578125,-0.06355506506562232,-0.0045372233045287425,-0.0006902655527926981
1761509351347050800,6.41105078125,-0.06654781714081764,0.0026926366174593566,-0.010643157230503856
1761509351367207400,6.43120751953125,-0.06490004993379116,0.0022195483461488036,-0.008616126648616045
1761509351387365600,6.45136572265625,-0.06310322964489459,0.007736576468264683,0.003762156411958858
1761509351407522600,6.4715224609375,-0.05621989987194538,0.0053716557015199215,-0.0032243140750564635
1761509351427680800,6.4916806640625,-0.059064767909049985,0.00485699331080541,-0.0013955825442448257
1761509351447838500,6.51183837890625,-0.05382862082123756,-0.002099383432045579,0.00015765651343390343
1761509351467995600,6.53199560546875,-0.061460138612985604,0.006894326090998947,-0.0035946634911000726
1761509351488153600,6.552153564453125,-0.05667173529267311,0.0030075295192189514,-0.008613697229512036
1761509351508310500,6.572310546875,-0.05862053127288818,0.005767367887683212,-0.0010166936287190765
1761509351528468700,6.59246875,-0.06640344023406505,0.0019298081519547848,0.0022893804456572977
1761509351548625700,6.612625732421875,-0.05173895506560802,0.005550638130772859,0.00633375133248046
1761509351568783600,6.63278369140625,-0.051287704166769976,0.002435949309496209,-0.008402483897935598
1761509351588940500,6.6529404296875,-0.06340659650564193,0.0007530925227794796,-0.00630107290558517
1761509351609098800,6.6730986328125,-0.053231823971867556,0.007238180225761607,-0.0021500450402032584
1761509351629255400,6.69325537109375,-0.053231823971867556,0.0028545035151299088,-0.004079597463831305
1761509351649413600,6.71341357421875,-0.04560205974578857,0.01288068875791505,-0.0023017467368859797
1761509351669570600,6.733570556640625,-0.056523851254582404,-0.0007703176522161811,-0.01146989037822932
1761509351689728800,6.753728759765625,-0.06251110897064209,0.004714424768649041,-0.012714711940707639
1761509351709885700,6.7738857421875,-0.05278466472625732,0.002348545020679012,-0.00008991590631194412
1761509351730043600,6.794043701171875,-0.055330257555842394,0.00019751359978690741,0.0041183129058685155
1761509351750200800,6.814200927734375,-0.060118660876154896,0.0061322282778564835,0.003608153160335496
1761509351770358500,6.834358642578125,-0.057873512297868725,0.0023719350294210016,-0.000702869306039065
1761509351790515700,6.854515625,-0.05503039782643318,0.002144373351242393,0.001361506744707003
1761509351810673700,6.874673583984375,-0.05248889665007591,0.003905638269567862,-0.008860767325758934
1761509351830831600,6.89483154296875,-0.06027005204558372,0.0008833769720979034,0.005425102921808138
1761509351850988500,6.914988525390625,-0.04785188449919223,-0.0011731810983736067,-0.0030325726289302107
1761509351871146800,6.935146728515625,-0.0580225653797388,0.009119345196709037,-0.0035723237951286136
1761509351891303400,6.955303466796875,-0.05861877770721912,0.0036819125162903216,-0.01052504727616906
1761509351911461600,6.975461669921875,-0.060711366072297095,-0.0028570516652427613,-0.007476299830572679
1761509351931618800,6.995618896484375,-0.058466802015900605,0.002407070274883881,-0.0015733502639457583
1761509351951776800,7.01577685546875,-0.07477846986949443,-0.0031712321809493,-0.00030283713778480887
1761509351971933700,7.03593359375,-0.05577624775767326,0.004440220070304349,0.003467721776338294
1761509351992091600,7.056091552734375,-0.0481453144878149,-0.005663450855482369,0.0013866137864999473
1761509352012248800,7.076248779296875,-0.06086451080739498,-0.002964192700991407,-0.005198902083653956
1761509352032406800,7.09640673828125,-0.06655424688160419,0.008702078765863552,-0.0006114190297666936
1761509352052563700,7.116563720703125,-0.050391632109880444,0.002539062624098733,-0.0087381729925517
1761509352072721700,7.1367216796875,-0.06700199064910412,0.0043411344768479465,-0.00613321465854533
1761509352092878800,7.15687890625,-0.05173661697804927,0.006553823823947459,-0.00417502066232264
1761509352113036500,7.17703662109375,-0.05517886638641357,-0.00578655664534308,-0.0029891262128483504
1761509352133193700,7.19719384765625,-0.04979191265106201,-0.002025441413000226,-0.007051242818916216
1761509352153351700,7.2173515625,-0.06131634622812271,0.0019769352293107657,-0.005914594338648021
1761509352173508600,7.237508544921875,-0.04574935926198959,-0.00045556174777448176,-0.0012521646187175065
1761509352193666800,7.257666748046875,-0.04036474361419678,0.005216081547318026,-0.0065488188552670175
1761509352213824800,7.27782470703125,-0.052638534253835675,0.002053909455658868,0.008347547973459586
1761509352233981700,7.297981689453125,-0.05159340911507606,0.005477107103681191,0.0008400766864884644
1761509352254139600,7.3181396484375,-0.04785422258675098,-0.0004707045179791748,0.005406252090865746
1761509352274296800,7.338296875,-0.04935001410245895,0.0033603524117264893,0.003508930569561198
1761509352294454800,7.358454833984375,-0.05877484505176544,-0.002234334923326969,-0.004873432988952845
1761509352314611700,7.37861181640625,-0.05308744706511497,-0.003978319913288579,0.007895940881595015
1761509352334769700,7.398769775390625,-0.06266250014007091,-0.0033421591679099944,-0.00024251265213824806
1761509352354926800,7.4189267578125,-0.057573652568459505,0.0019352880446705965,0.0013251750560011714
1761509352375084500,7.43908447265625,-0.059220250731706614,-0.0013774806319735943,0.0001727444847114384
1761509352395241700,7.45924169921875,-0.050391632109880444,-0.003504601454315707,-0.0013804763066582381
1761509352415399700,7.479399658203125,-0.06385550931692123,0.00048159123817458744,0.0014277677807956932
1761509352435556600,7.499556640625,-0.0569727640658617,0.00822200363134034,0.008797949488926678
1761509352455714800,7.51971484375,-0.058766077223420136,-0.0033294001510366794,-0.0012271854410879314
1761509352475871700,7.539871826171875,-0.055174774733185765,-0.008332259072782471,-0.002067737051611766
1761509352496029700,7.56002978515625,-0.05771861399710178,-0.004187688347650691,-0.004003865346498787
1761509352516186600,7.5801865234375,-0.05308101732432842,0.006654717782000079,0.0009449253004509955
1761509352536344800,7.6003447265625,-0.05532616590261459,-0.00363791811093688,-0.0015947583781555294
1761509352556501500,7.62050146484375,-0.05428045624196529,0.0005956734713632613,0.004898019440937787
1761509352576659700,7.64065966796875,-0.0550292287826538,-0.0027862423181999473,0.005010439440002665
1761509352596817000,7.66081689453125,-0.05203647670745849,0.0004274498981423676,-0.004027036159532145
1761509352616974800,7.680974853515625,-0.06909516353607177,-0.003493157611694187,-0.0007931322722230106
1761509352637131800,7.7011318359375,-0.04724748886525631,-0.004406153403921052,-0.00008093801541253924
1761509352657289700,7.721289794921875,-0.04529927740693092,0.005495784404687583,-0.012529783827858045
1761509352677447700,7.74144775390625,-0.053231239449977874,0.0007034538279287516,-0.004754272721847519
1761509352697604600,7.7616044921875,-0.04919277771413326,-0.004686870041443035,-0.0014489110335242003
1761509352717762800,7.7817626953125,-0.06625263358652592,-0.0026768179938197133,-0.0017122107453644275
1761509352737919700,7.801919677734375,-0.05742284592092037,0.0013019129114225506,-0.0005451031947508453
1761509352758077700,7.82207763671875,-0.05009118785858154,0.0017847919243853538,0.004514372151903808
1761509352778234600,7.842234619140625,-0.06580372077524661,-0.002478427611198276,0.004335755048831925
1761509352798392800,7.862392822265625,-0.06266133109629154,0.001069245799863711,0.001289528353884816
1761509352818549800,7.8825498046875,-0.05083937587738037,0.0001343304367735982,0.002097620733221993
1761509352838707700,7.902707763671875,-0.05473404522836208,0.012548241933155804,-0.012434954284410923
1761509352858865000,7.922864990234375,-0.05458557666838169,-0.0019292601626832036,0.0032844193649943917
1761509352879022600,7.943022705078125,-0.04994447286427021,-0.0017798965535592286,0.005866353016439825
1761509352899179800,7.9631796875,-0.05832008702158928,-0.00019996128519997,0.002786260584509
1761509352919337700,7.983337646484375,-0.05248714308440685,-0.0012688143594190477,-0.0031369919846300034
1761509352939494700,8.00349462890625,-0.061467152875661846,-0.0016739702273625878,-0.0020266652557067574
1761509352959652600,8.023652587890625,-0.05383505056202411,-0.0016809936231933532,-0.009097736153099686
1761509352979809800,8.043809814453125,-0.04859773443043232,-0.003501468782313168,-0.0007313190823886543
1761509352999967500,8.063967529296875,-0.06072364103198051,0.004119381484948098,-0.00034157997928559777
1761509353020124400,8.08412451171875,-0.054288055026531216,0.004136469617066905,0.007806801293417811
1761509353040282400,8.104282470703126,-0.06505903988778591,-0.006567989346617832,0.00409147969787009
1761509353060439300,8.124439208984375,-0.05637888982594013,-0.0007219575989991426,-0.0061832552121952175
1761509353080597500,8.144597412109375,-0.06386369262337684,-0.004325717712007462,0.006964897976024076
1761509353100754400,8.16475439453125,-0.049797757869958874,-0.0018337456326466054,0.003491404046025127
1761509353120912600,8.18491259765625,-0.050398061850666996,0.0007533025853335857,-0.004038543934235349
1761509353141069300,8.2050693359375,-0.048749710121750826,0.009198173453425988,-0.000758408018713817
1761509353161227500,8.2252275390625,-0.05892506717741489,-0.00161268676049076,0.0011169939317274837
1761509353181385500,8.245385498046875,-0.05278875637948513,0.0002045735282357782,0.002038821484381333
1761509353201542400,8.26554248046875,-0.060870356026291844,-0.007345366927282884,0.0028254692168906328
1761509353221700400,8.285700439453125,-0.04919862293303012,0.0017189327470958232,0.0002737115080002695
1761509353241857500,8.305857421875,-0.057873512297868725,-0.005283593825576827,0.0009177724320441484
1761509353262015500,8.326015380859374,-0.056824880027770995,-0.0016451185922138393,0.0031859913586638868
1761509353282172400,8.34617236328125,-0.06265899300873279,0.0018296174468006938,-0.0013157587736845017
1761509353302330400,8.366330322265625,-0.05009060333669185,-0.0012535437250509858,0.00038202158752828836
1761509353322487300,8.3864873046875,-0.0551776973426342,0.0023027605170384048,0.00024047595867887137
1761509353342645500,8.4066455078125,-0.05891980648040771,0.0009372808501124381,-0.004880246322229504
1761509353362804500,8.426804443359375,-0.054279287198185915,-0.0046298700240440666,0.005841830496536567
1761509353382961400,8.44696142578125,-0.051284781557321545,-0.001997521359613165,0.0005160323638934642
1761509353403119600,8.46711962890625,-0.057121232625842094,0.001997311297059059,-0.0018916589654982088
1761509353423276500,8.487276611328125,-0.05966624093353748,-0.0033722620452288537,0.007821295609651132
1761509353443434500,8.5074345703125,-0.06490414158701896,-0.0009885635127779096,0.004479912759875878
1761509353463591700,8.527591796875,-0.05457797788381576,0.00029574067671783266,0.00699496432072483
1761509353483749400,8.547749267578125,-0.05906885956227779,-0.003010680457530543,0.0014500892104580998
1761509353503906600,8.567906494140624,-0.05532733494639396,-0.00321693448619917,-0.010171146671427413
1761509353524064500,8.588064453125,-0.053532268223166465,0.0031716523060575127,-0.0008771481607109308
1761509353544222500,8.608222412109376,-0.059518356895446774,-0.00010225479807704686,0.0065471840206068
1761509353564379400,8.62837939453125,-0.06221241828501224,-0.0033354462993331253,0.0016895970547571777
1761509353584537600,8.64853759765625,-0.06655600044727325,-0.0015107059570495039,-0.0035995223293080925
1761509353604694300,8.6686943359375,-0.058176294636726376,0.0030949703406542538,0.00516746576577425
1761509353624852500,8.6888525390625,-0.053687751045823094,0.00005549304690212011,0.003550312892720103
1761509353645009400,8.709009521484376,-0.06521335366666317,-0.004745203499402851,-0.0014104421866592018
1761509353665167600,8.729167724609376,-0.04575812709033489,-0.005731903848657384,0.0004746865733526647
1761509353685324500,8.749324462890625,-0.05772738182544708,0.0013767865122295915,-0.0019555545145645736
1761509353705482500,8.769482421875,-0.055931730580329894,0.005179676793375983,0.007856074662087485
1761509353725639700,8.7896396484375,-0.06580839695036411,0.000336383214360103,0.0027399920236784964
1761509353745797400,8.80979736328125,-0.05877542957365513,-0.004142844558926299,0.004121975300833583
1761509353765954600,8.82995458984375,-0.054882513788342475,-0.00030390571686439216,-0.003932708939583972
1761509353786112500,8.850112548828125,-0.05607903009653091,-0.00041765915649011727,0.004066235658759251
1761509353806269400,8.87026953125,-0.05697744024097919,-0.007403828249406069,0.00670960804070346
1761509353826427400,8.890427490234375,-0.050991936090588566,0.004652721176669001,-0.0006664188863243907
1761509353846584600,8.91058447265625,-0.0596697480648756,-0.003933348260400817,-0.0012971819373778998
1761509353866742300,8.9307421875,-0.050395139241218564,0.0019286391081754118,0.006097485758038237
1761509353886899500,8.9508994140625,-0.05847849245369434,0.0028921777775511143,0.002132947774929926
1761509353907057400,8.971057373046875,-0.05982523088753223,0.0018534549801144749,-0.008348570886766538
1761509353927214300,8.99121435546875,-0.061765259039402005,-0.00042376923686824735,-0.0004233217122964561
1761509353947372500,9.01137255859375,-0.06954816800057888,0.0034694662088528274,-0.007281325247744098
1761509353967529500,9.031529541015624,-0.040219782185554505,0.001573450728645548,-0.0037508130340371277
1761509353987687700,9.051687744140626,-0.06027122108936309,0.0008090787600260228,-0.00017161197355017066
1761509354007844600,9.0718447265625,-0.054286301460862156,-0.0018592454000841826,0.00024232085589319467
1761509354028002800,9.0920029296875,-0.057279053536057466,0.004750747324200347,0.0016122849016916006
1761509354048159500,9.112159423828125,-0.06656067662239075,-0.0024347619994077832,0.00763654102673754
1761509354068317700,9.132317626953125,-0.05923194116950035,-0.005514215110521763,-0.003863561826664954
1761509354088474600,9.152474609375,-0.0519008676290512,-0.003520648406818509,0.01204590930105187
1761509354108632600,9.172632568359376,-0.05519757108688354,0.0049969863033853465,-0.006563660231372341
1761509354128789800,9.192789794921875,-0.0523585482686758,-0.002526787664415315,-0.0019708525483962147
1761509354148947700,9.21294775390625,-0.05565174459517002,-0.0047031909885816275,0.00033871216876432296
1761509354169104600,9.233104736328125,-0.04352934512495994,0.001772398233693093,0.01535284189195372
1761509354189262600,9.2532626953125,-0.05804711529910564,-0.003651279916008934,0.005454228551592677
1761509354209420800,9.2734208984375,-0.04293488636314869,-0.0054802671751473095,-0.009725412197923286
1761509354229577500,9.293577392578126,-0.05221183327436447,-0.0034234807758126407,0.004862957260711119
1761509354249735700,9.313735595703125,-0.04203589169681072,-0.006863538227090612,-0.008855899354396388
1761509354269892600,9.333892578125,-0.06253799697756766,-0.0014008341080974786,0.010576914460724219
1761509354290050800,9.35405078125,-0.058497781676053996,-0.006456857122341171,0.00402464327304624
1761509354310207500,9.37420751953125,-0.04368190533816814,-0.003076630966365337,0.006157006526086479
1761509354330365700,9.39436572265625,-0.0550514406144619,-0.002332351937703788,0.011180944768479093
1761509354350522600,9.414522705078125,-0.05445347472131252,0.0036683680481277405,-0.005043172665825113
1761509354370680600,9.4346806640625,-0.04607259986698627,-0.003683529084641486,-0.00011332418136298656
1761509354390837800,9.454837646484375,-0.045324411848187446,-0.0039621359634678804,-0.00378198449043557
1761509354410995700,9.47499560546875,-0.06507716006636619,-0.0010660583289340139,0.006788618960510939
1761509354431152600,9.495152587890624,-0.0593909311234951,0.0002943341709207743,-0.0018591449353843926
1761509354451310600,9.515310546875,-0.06268295840620994,-0.0009964088925160468,-0.011829490071395412
1761509354471467800,9.5354677734375,-0.05235504113733768,-0.004603612204780802,0.008331574086192995
1761509354491625500,9.55562548828125,-0.047718028986454004,0.001274823975097388,0.0025422409618739037
1761509354511782700,9.57578271484375,-0.05729249753952026,0.00032440051562152803,0.009144406572729349
1761509354531940600,9.595940673828125,-0.05624211170375347,-0.005649440596438944,0.0016396204331889748
1761509354552097500,9.61609765625,-0.06536942101120949,-0.006133543452108279,0.007655839382251724
1761509354572255500,9.63625537109375,-0.06222703133225441,-0.011934950606711209,-0.0036999139638617634
1761509354592412700,9.65641259765625,-0.06536883648931979,0.004942150843609124,-0.0018197079741396009
1761509354612570600,9.676570556640625,-0.05698971520066261,-0.011963144654734059,0.0027443120057694614
1761509354632727600,9.6967275390625,-0.049505496925115584,-0.00507015200429596,-0.004435397764714435
1761509354652885800,9.7168857421875,-0.054739890447258945,0.003475156164122745,-0.00012615626347251235
1761509354673042400,9.73704248046875,-0.0854155992180109,-0.010751586041040718,0.003810187671612948
1761509354693200600,9.75720068359375,-0.06072481007575988,-0.002231512778578326,-0.003748639343259856
1761509354713357600,9.777357666015625,-0.03274374721646309,0.0007229622459970414,0.0038409481360577044
1761509354733515800,9.797515869140625,-0.046506315109133715,0.001440855591231957,0.002858101978013292
1761509354753672700,9.817672607421875,-0.04860065703988075,-0.008078275178559123,-0.007494392609689384
1761509354773830700,9.83783056640625,-0.04665419914722442,0.0018692644705995917,0.005758673124574124
1761509354793987800,9.85798779296875,-0.06640636284351349,-0.0015606186465360224,0.006084945936873555
1761509354814145500,9.8781455078125,-0.05473521427214145,-0.005455388462217524,0.0004813355098478496
1761509354834302700,9.898302734375,-0.057875850385427474,0.0016959080645348875,0.0017562325501814483
1761509354854460700,9.918460693359375,-0.060416767039895056,-0.006462081286730244,0.005673177665052935
1761509354874617600,9.93861767578125,-0.06550269200205802,0.008560167810833082,0.008090239610988646
1761509354894775600,9.958775634765624,-0.07178922492563725,0.0021303630921989678,0.007381369822425768
1761509354914932700,9.9789326171875,-0.06610182693898678,0.0031246256934013214,0.0015203140356112271
1761509354935090400,9.99909033203125,-0.0592208352535963,0.0023335301146376877,0.006222025453159585
1761509354955247600,10.01924755859375,-0.0574257685303688,0.007158794846618547,0.0015263784502167253
1761509354975405600,10.039405517578125,-0.04769873976409435,0.000117735494999215,-0.0003749433927703649
1761509354995566000,10.059566162109375,-0.05143441916108131,-0.0026529621941968795,0.00311681684628129
1761509355015724300,10.079724365234375,-0.052180269092321395,0.0023707933851052072,0.001298350981157273
1761509355035881000,10.099880859375,-0.058167526808381075,-0.0005963675911072641,-0.0018607523705810307
1761509355056039200,10.1200390625,-0.0635562341094017,-0.002670653114514425,-0.0019319270438048987
1761509355076196000,10.140196044921876,-0.0456008907020092,-0.010058407011954113,0.0015613492988981305
1761509355096354000,10.16035400390625,-0.06011632278859615,-0.00125380858653225,0.011370366393355652
1761509355116511200,10.18051123046875,-0.0556307018071413,-0.010606578946625813,0.0003206011233385652
1761509355136669200,10.200669189453125,-0.061764089995622634,-0.009787197988294064,-0.0017861070986371487
1761509355156826000,10.220826171875,-0.059517772373557085,-0.003652859951741993,0.012534423470357433
1761509355176984000,10.240984130859376,-0.0672989277690649,0.0026759412109851836,0.004944799458421766
1761509355197141200,10.261141357421875,-0.05009001881480217,-0.003819914481183514,-0.004780411810101941
1761509355217299000,10.281298828125,-0.05068681566417217,0.0009913491249084472,-0.006416981769679114
1761509355237456100,10.3014560546875,-0.03316752558648586,-0.008088915303582325,0.006566719838138669
1761509355257614000,10.321614013671875,-0.0777513482004404,0.004480908273719251,-0.005031482228031381
1761509355277772300,10.341772216796874,-0.08448854750096797,0.006363050492201,0.0041442053989507255
1761509355297929000,10.361928955078126,-0.040943420284986494,0.006500741929840296,-0.01001474140016362
1761509355318087200,10.382087158203126,-0.047075054907798765,-0.0077715747164096675,0.00018226123172789812
1761509355338244000,10.402244140625,0.012206570622324943,0.009579464388592168,-0.0006472438283963128
1761509355358402000,10.422402099609375,-0.03802022631466388,-0.015049657694296911,-0.00978438954327721
1761509355378559200,10.442559326171875,-0.09589666122198104,-0.012729050993314011,0.00930878965447191
1761509355398717200,10.46271728515625,0.009759177470207214,0.014250095681287347,-0.010692069839569739
1761509355418874000,10.4828740234375,-0.06012509061694145,0.007169727232586592,0.0036289219537284224
1761509355439032000,10.503031982421875,-0.07165653845667838,0.000807946248864755,-0.003129753959667869
1761509355459189200,10.523189208984375,-0.05925941369831562,0.00123770683510229,0.005285283459164202
1761509355479347000,10.543346923828125,-0.04327624714672565,0.0012877839213702826,0.014288733491511083
1761509355499504000,10.563504150390624,-0.08296820606589317,-0.0004575801749248057,0.005075778027484193
1761509355519662000,10.583662109375,-0.03974456588923931,0.009616006139852105,-0.0006581807809416205
