time,seconds_elapsed,z,y,x
1761509345017584000,0.081584228515625,0.00027429801411926746,0.0008310191333293915,0.003879387164488435
1761509345037741800,0.101741943359375,0.001366408308967948,-0.001483098603785038,-0.00022305618040263653
1761509345057899000,0.12189892578125,0.0012793992646038532,0.0004198690876364708,-0.0007542634848505259
1761509345078057000,0.142056884765625,-0.0001705354079604149,-0.0019901208579540253,-0.0006989778485149145
1761509345098215200,0.162215087890625,-0.0005772010190412402,0.00013823341578245163,0.001482964726164937
1761509345118371800,0.182371826171875,0.001044701086357236,0.0037836115807294846,-0.00028299191035330296
1761509345138530000,0.202530029296875,-0.0009071324020624161,0.0007176008075475693,0.0012677360791713
1761509345158687200,0.222687255859375,-0.001034107874147594,-0.0004822276532649994,0.0040343995206058025
1761509345178845000,0.242844970703125,-0.0009849725756794214,-0.0011504972353577614,0.0004991651512682438
1761509345199002000,0.263002197265625,-0.0005602840101346374,-0.0005195671692490578,-0.001322142779827118
1761509345219160000,0.28316015625,-0.0018812710186466575,-0.0028190016746520996,-0.00003312411718070507
1761509345239317000,0.30331689453125,-0.0012646986870095134,-0.0004149666056036949,0.00019004871137440205
1761509345259475000,0.323474853515625,0.0004098832141608,0.0011272262781858444,0.0016417533624917269
1761509345279633200,0.343633056640625,-0.000003926455974578857,0.0005132677033543587,0.0017516250954940915
1761509345299789800,0.363789794921875,-0.0005685059586539865,-0.0023542316630482674,0.000019145896658301353
1761509345319948000,0.383947998046875,-0.0014447885332629085,-0.00015440396964550018,0.001293599372729659
1761509345340105000,0.40410498046875,-0.0018089005025103688,-0.0004833247512578964,0.00014713918790221214
1761509345360263200,0.42426318359375,0.001355103449895978,0.00038148369640111923,0.0017775146989151835
1761509345380420000,0.444420166015625,0.0011898919474333525,0.001086498610675335,0.0007764557376503944
1761509345400578000,0.464578125,-0.0002343272790312767,-0.0004314472898840904,0.0006074754055589437
1761509345420735200,0.4847353515625,-0.0011129891499876976,0.0007498562335968018,0.0004217592068016529
1761509345440893000,0.504892822265625,0.0004206504672765732,-0.00025954563170671463,-0.00010708882473409176
1761509345461051000,0.52505078125,-0.00047724973410367966,0.00034389179199934006,0.00043209013529121876
1761509345481208000,0.5452080078125,0.00022526155225932598,0.0006293356418609619,0.000548842828720808
1761509345501366000,0.565365966796875,0.0008258079178631306,-0.0016097752377390862,-0.0013564706314355135
1761509345521523000,0.58552294921875,-0.00023258384317159653,-0.0021638115867972374,0.00011438224464654922
1761509345541681200,0.60568115234375,0.0025886509101837873,-0.00027529988437891006,0.0014029950834810734
1761509345561837800,0.625837890625,0.00285788020119071,0.0008067749440670013,-0.0008489089086651802
1761509345581996000,0.64599609375,-0.0017152114305645227,0.002116023562848568,0.00031570903956890106
1761509345602153000,0.666153076171875,-0.00119088648352772,0.002108270302414894,-0.001983985072001815
1761509345622311200,0.686311279296875,0.0008467519655823708,0.00399243738502264,0.001387857599183917
1761509345642468900,0.70646875,-0.0014262441545724869,-0.0005549713969230652,-0.0018532350659370422
1761509345662626000,0.7266259765625,-0.00027463934384286404,0.0006337324157357216,0.002827731892466545
1761509345682784000,0.746783935546875,0.0005004454869776964,0.0010584387928247452,-0.0030835503712296486
1761509345702941000,0.76694091796875,0.0007213819772005081,-0.0012685786932706833,0.00036908104084432125
1761509345723099000,0.787098876953125,0.0002558319829404354,0.0032776780426502228,-0.00012191128917038441
1761509345743256000,0.807256103515625,0.0011760129127651453,-0.0022232597693800926,-0.0005983635783195496
1761509345763414000,0.8274140625,-0.00029966258443892,-0.0018533561378717422,-0.00007396354340016842
1761509345783571000,0.847571044921875,0.0000487456563860178,0.0011278940364718437,0.0004476853646337986
1761509345803729200,0.867729248046875,0.0020634017419070005,0.0002191280946135521,0.0006956835277378559
1761509345823885800,0.8878857421875,-0.0010861061746254563,-0.001122008077800274,-0.0021464957389980555
1761509345844044000,0.9080439453125,0.0019151426386088133,0.0009021535515785217,0.0013899907935410738
1761509345864202000,0.928201904296875,0.00013826577924191952,-0.0030343281105160713,-0.0028245761059224606
1761509345884359200,0.948359130859375,0.0003974251449108124,0.00046872906386852264,-0.00062703643925488
1761509345904516900,0.968516845703125,-0.00009169359691441059,0.0020187143236398697,-0.0010253328364342451
1761509345924674000,0.988674072265625,0.0011610204819589853,-0.0023171529173851013,0.00046166451647877693
1761509345944832000,1.00883203125,0.001673846272751689,-0.000009449198842048645,0.003680324647575617
1761509345964989000,1.028989013671875,0.0001644352450966835,-0.0005193715915083885,0.0003058051224797964
1761509345985147000,1.04914697265625,0.001055851811543107,-0.0001391042023897171,-0.0010521418880671263
1761509346005303800,1.0693037109375,-0.0016377433203160763,0.000474587082862854,-0.0008203345350921154
1761509346025462000,1.0894619140625,-0.00024991738609969616,0.0004812292754650116,0.0007214860524982214
1761509346045620000,1.109619873046875,-0.00108775042463094,-0.0019619548693299294,-0.0007976298220455647
1761509346065777200,1.129777099609375,0.0000739116221666336,-0.001461036503314972,0.0005277874879539013
1761509346085934800,1.149934814453125,-0.000816494575701654,-0.0018703527748584747,0.002285976894199848
1761509346106092000,1.170092041015625,0.002413255861029029,-0.00017449725419282913,0.000003874301910400391
1761509346126250000,1.19025,0.0001575008500367403,-0.00099148228764534,0.0007703539449721575
1761509346146407000,1.210406982421875,0.00230759521946311,-0.0012585567310452461,-0.00020445254631340504
1761509346166564900,1.23056494140625,-0.0022203177213668823,0.0002118358388543129,-0.0009653926827013493
1761509346186722000,1.25072216796875,-0.00048801442608237267,-0.0009145857766270638,0.002027005422860384
1761509346206879700,1.270879638671875,0.00009308289736509323,0.002120666205883026,0.0008067868184298277
1761509346227037000,1.291036865234375,-0.00027145352214574814,0.0016811704263091087,0.000009265495464205742
1761509346247195000,1.31119482421875,0.0020939719397574663,-0.00036651361733675003,0.00000790855847299099
1761509346267353000,1.33135302734375,0.002096951939165592,0.002273350954055786,0.0027810363098978996
1761509346287510000,1.351510009765625,-0.0005614535184577107,0.0011076396331191063,0.0013808317016810179
1761509346307668000,1.37166796875,0.000261661596596241,0.0007274802774190903,0.002353161573410034
1761509346327825200,1.3918251953125,-0.0007961131632328033,-0.002356802113354206,-0.0010459735058248043
1761509346347982800,1.41198291015625,0.0032205472234636545,0.0022606216371059418,0.0030150183010846376
1761509346368140000,1.43214013671875,0.0013515097089111805,0.00042642001062631607,0.000055434415116906166
1761509346388298000,1.452298095703125,0.00086386245675385,-0.0008937446400523186,0.000003924127668142319
1761509346408455000,1.472454833984375,0.0005520556587725878,-0.0015268297865986824,0.000829080119729042
1761509346428612900,1.49261279296875,-0.00231413752771914,0.0008345209062099457,0.0012878794223070145
1761509346448770000,1.51277001953125,-0.0014679948799312115,0.0022475840523838997,-0.00007271021604537964
1761509346468927700,1.532927734375,0.00143893389031291,-0.0006058337166905403,-0.00006144191138446331
1761509346489086000,1.5530859375,-0.0016575579065829515,-0.00033318065106868744,-0.0009408365003764629
1761509346509243100,1.5732431640625,-0.0013838123995810747,0.00043495651334524155,0.0009463797323405743
1761509346529401000,1.593401123046875,0.00022446177899837494,0.0004398263990879059,0.00032854615710675716
1761509346549558000,1.61355810546875,-0.0012834256049245596,-0.00010604411363601685,0.00044245016761124134
1761509346569716000,1.633716064453125,0.0011958158574998379,-0.0004740208387374878,0.0008407323621213436
1761509346589873200,1.653873046875,0.0008896857034415007,0.001135663129389286,0.001801642356440425
1761509346610030800,1.67403076171875,0.0018438177648931742,-0.0006168810650706291,-0.0007616884540766478
1761509346630188000,1.69418798828125,-0.0010503648081794381,0.0007611680775880814,0.001762712956406176
1761509346650346000,1.714345947265625,-0.0019885466899722815,0.0012077325955033302,-0.000058994628489017487
1761509346670503000,1.7345029296875,-0.001111233257688582,0.0003016628324985504,0.001974026905372739
1761509346690660900,1.754660888671875,-0.0024172451812773943,0.00042557064443826675,-0.0007213095668703318
1761509346710819000,1.774819091796875,-0.0007061830256134272,0.0013134321197867393,-0.001299855299293995
1761509346730975700,1.794975830078125,0.00042343023233115673,-0.0007804147899150848,-0.001550084911286831
1761509346751134000,1.815134033203125,0.0012588687241077423,-0.0017253803089261055,0.0005719463806599379
1761509346771291100,1.835291015625,-0.0032915836200118065,-0.0021981019526720047,0.0020027472637593746
1761509346791449000,1.855448974609375,0.0011070778127759695,0.0012706955894827843,0.0001272412482649088
1761509346811606000,1.87560595703125,-0.002515611005946994,0.0015137428417801857,-0.0009601456113159657
1761509346831764000,1.895763916015625,-0.0018508557695895433,0.0015992112457752228,-0.0009291714522987604
1761509346851921200,1.915921142578125,0.00025602453388273716,0.002397768199443817,-0.0007406913209706545
1761509346872078800,1.936078857421875,-0.0003465514164417982,-0.00016729440540075302,0.000615615164861083
1761509346892236000,1.956236083984375,0.00017481553368270397,-0.0004967888817191124,0.001587413251399994
1761509346912394000,1.97639404296875,0.002345554530620575,-0.0006941594183444977,0.0015170620754361153
1761509346932552000,1.996552001953125,-0.000002301996573805809,0.0027284175157546997,-0.002938441466540098
1761509346952708900,2.016708984375,-0.0018362965201959014,0.0005970308557152748,-0.0000035085249692201614
1761509346972867300,2.036867431640625,0.0024201595224440098,0.0008100764825940132,0.002957387827336788
1761509346993024000,2.05702392578125,0.0006092498078942299,0.0018971525132656097,0.0018706696573644876
1761509347013182200,2.07718212890625,-0.00006660446524620056,0.0010000942274928093,0.0005932927597314119
1761509347033339100,2.097339111328125,0.0006059459410607815,0.00037251319736242294,0.0014393473975360394
1761509347053497000,2.1174970703125,-0.000494769774377346,-0.0017727967351675034,0.0017112332861870527
1761509347073654300,2.137654296875,0.00007718009874224663,-0.000494047999382019,0.001776676974259317
1761509347093812200,2.157812255859375,-0.00005216104909777641,0.0005480358377099037,0.0021142945624887943
1761509347113970000,2.177969970703125,0.0003835638053715229,0.00048348307609558105,0.0008995262905955315
1761509347134127000,2.198127197265625,-0.0007145102135837078,0.0007508015260100365,0.0005112511571496725
1761509347154285300,2.218285400390625,0.002754481043666601,0.0007460173219442368,0.0005616410635411739
1761509347174442000,2.23844189453125,0.0013462190981954336,-0.0008777417242527008,0.0019018234452232718
1761509347194600200,2.25860009765625,-0.001614816254004836,0.002054233103990555,0.004726202692836523
1761509347214757000,2.278757080078125,-0.002509498968720436,-0.0001474078744649887,0.0014098535757511854
1761509347234915000,2.2989150390625,-0.002705321880057454,0.0025735413655638695,-0.00012459675781428814
1761509347255072000,2.319072021484375,-0.002037930069491267,-0.0008414844051003456,0.0009301516693085432
1761509347275230200,2.339230224609375,-0.0014991126954555511,0.0017042336985468864,0.0020243916660547256
1761509347295387100,2.35938720703125,-0.0013260357081890106,-0.0020600827410817146,-0.000028085894882678986
1761509347315545000,2.379545166015625,-0.00000442122109234333,0.000004667788743972778,0.00008255778811872005
1761509347335702300,2.399702392578125,-0.0005188803188502789,-0.0003225328400731087,-0.00018780678510665894
1761509347355860200,2.419860107421875,-0.0020265900529921055,0.0005453238263726234,0.0016404155176132917
1761509347376018000,2.440017822265625,-0.0014362405054271221,0.0017486680299043655,-0.00011376780457794666
1761509347396175000,2.460175048828125,0.00039114593528211117,-0.0013518566265702248,0.0010863179340958595
1761509347416333300,2.480333251953125,-0.00021118158474564552,0.001822587102651596,0.00004029786214232445
1761509347436490000,2.500489990234375,0.0006261682137846947,-0.0009402632713317871,0.00016122078523039818
1761509347456648200,2.520648193359375,0.0004346473142504692,0.002625749446451664,0.0007714522071182728
1761509347476805000,2.54080517578125,-0.0013934716116636992,-0.0013570766896009445,0.00018669269047677517
1761509347496963000,2.560963134765625,-0.0012145236833021045,-0.0016935868188738823,-0.00010149786248803139
1761509347517120000,2.5811201171875,-0.00018232502043247223,-0.0015298957005143166,-0.0006783229764550924
1761509347537278200,2.6012783203125,0.0007648528553545475,0.0007734419777989388,-0.000052133575081825256
1761509347557436200,2.621436279296875,0.0008134325034916401,-0.0014224443584680557,-0.00018361909314990044
1761509347577593000,2.641593017578125,0.00010762829333543777,-0.0029298607259988785,0.0008224814664572477
1761509347597751000,2.6617509765625,0.000820880988612771,-0.0011623082682490349,-0.0013481152709573507
1761509347617908200,2.681908203125,0.001083766808733344,0.00018765032291412354,0.0004482683725655079
1761509347638066200,2.702066162109375,0.0009816933888942003,0.00043477024883031845,-0.000027584610506892204
1761509347658223000,2.72222314453125,0.0012384892906993628,-0.000832640565931797,-0.0012624540831893682
1761509347678381300,2.74238134765625,0.0004424252547323704,-0.002908555790781975,0.0017176603432744741
1761509347698538000,2.7625380859375,0.0007375930435955524,-0.0015910491347312927,0.0023020473308861256
1761509347718696200,2.7826962890625,-0.0019493241561576724,-0.0009748302400112152,0.00021492596715688705
1761509347738853000,2.80285302734375,-0.002120016608387232,0.0016487836837768555,0.0008078268729150295
1761509347759011000,2.823010986328125,-0.000249089440330863,0.0005793990567326546,0.00043934304267168045
1761509347779168300,2.843168212890625,-0.0026248374488204718,-0.00003364589065313339,-0.0012690543662756681
1761509347799326200,2.863326171875,0.00005314778536558151,-0.00024214759469032288,0.0004489482380449772
1761509347819484200,2.883484130859375,0.00190280145034194,0.0002836519852280617,-0.0012726602144539356
1761509347839641000,2.90364111328125,0.0016868477687239647,0.0009939931333065033,-0.000528908334672451
1761509347859799000,2.923799072265625,-0.00042613293044269085,-0.0005612671375274658,-0.0001793361734598875
1761509347879956200,2.943956298828125,0.0023601611610502005,-0.0013058753684163094,0.0008493119385093451
1761509347900114200,2.9641142578125,-0.0014686437789350748,0.0009382916614413261,-0.0009379270486533642
1761509347920271000,2.98427099609375,0.0003543226048350334,0.0014030393213033676,-0.00043510645627975464
1761509347940429300,3.00442919921875,-0.0013057583710178733,0.000022139400243759155,-0.001704392023384571
1761509347960586000,3.0245859375,-0.0005008801817893982,0.001520184800028801,0.00029421504586935043
1761509347980743700,3.04474365234375,0.0009505366906523705,-0.0018633706495165825,0.00036556879058480263
1761509348000901600,3.064901611328125,-0.0021545737981796265,0.0019623953849077225,-0.0015395600348711014
1761509348021058600,3.08505859375,-0.0013886884553357959,-0.00034222565591335297,-0.0005030452739447355
1761509348041216500,3.105216552734375,-0.000978912808932364,-0.0025049736723303795,-0.0023876186460256577
1761509348061373400,3.12537353515625,-0.00039044965524226427,-0.0018272660672664642,0.00022195163182914257
1761509348081531600,3.14553173828125,0.0011315818410366774,-0.001198435202240944,0.0014045280404388905
1761509348101688600,3.1656884765625,0.0024288217537105083,0.00016047153621912003,-0.0020250503439456224
1761509348121846800,3.1858466796875,-0.00037080561742186546,0.0004601655527949333,-0.0002670807298272848
1761509348142003500,3.20600341796875,-0.00014465930871665478,0.0005225269123911858,-0.0011509116739034653
1761509348162161700,3.22616162109375,-0.004763046279549599,-0.0017325151711702347,0.0013472526334226131
1761509348182318600,3.246318603515625,0.0004901934880763292,0.0007846513763070107,0.00015414669178426266
1761509348202476500,3.2664765625,-0.0014181507285684347,-0.0029152650386095047,0.000745866447687149
1761509348222633700,3.2866337890625,-0.00043114263098686934,-0.0005873600021004677,-0.0013693023938685656
1761509348242791700,3.306791748046875,-0.00018982961773872375,0.0022780047729611397,0.00056646135635674
1761509348262949600,3.32694970703125,0.0009865297470241785,-0.0015661465004086494,-0.00017196917906403542
1761509348283106600,3.3471064453125,-0.002368929563090205,-0.000037507154047489166,-0.00009881053119897842
1761509348303264500,3.367264404296875,-0.0027354187332093716,-0.0006981538608670235,0.001910340040922165
1761509348323421400,3.38742138671875,0.0006730393506586552,0.0017412342131137848,0.003138084663078189
1761509348343579600,3.40757958984375,0.0002809516154229641,-0.00015354249626398087,-0.0012735933996737003
1761509348363736600,3.427736572265625,0.0012502288445830345,0.0004657404497265816,0.00031395931728184223
1761509348383894800,3.447894775390625,0.0024395498912781477,-0.001209065318107605,0.001501626567915082
1761509348404051500,3.468051513671875,-0.000577423139475286,-0.0009664744138717651,0.0003714151680469513
1761509348424209700,3.488209716796875,-0.0023769373074173927,-0.001460343599319458,0.00031027616932988167
1761509348444366600,3.50836669921875,-0.000718149240128696,-0.001916196197271347,-0.00020356709137558937
1761509348464524500,3.528524658203125,-0.0000664019025862217,-0.00007106084376573563,0.000521848676726222
1761509348484682500,3.5486826171875,-0.0004292986122891307,0.0008893292397260666,0.0008748779073357582
1761509348504839700,3.568839599609375,0.0009123657364398241,-0.0011956952512264252,0.0004889525007456541
1761509348524997400,3.588997314453125,0.0005254070274531841,0.0011570602655410767,0.00020947051234543324
1761509348545154600,3.609154541015625,0.0024398246314376593,-0.000011478550732135773,-0.0016945356037467718
1761509348565312500,3.6293125,-0.0018965977942571044,-0.0008137533441185951,-0.00016139959916472435
1761509348585469400,3.649469482421875,0.0012874545063823462,0.0005566831678152084,-0.0007388056255877018
1761509348605627600,3.669627685546875,-0.00040892395190894604,0.0005093477666378021,0.002950690221041441
1761509348625784600,3.68978466796875,0.0022682142443954945,0.0006477348506450653,-0.00008138571865856647
1761509348645942800,3.70994287109375,0.0017769599799066782,-0.000575619749724865,-0.0009691778104752302
1761509348666099500,3.730099365234375,0.00018428382463753223,0.00031799357384443283,-0.0029711732640862465
1761509348686257700,3.750257568359375,-0.00203777221031487,-0.0018408959731459618,0.0013979319483041763
1761509348706415600,3.77041552734375,-0.0003346153534948826,-0.0011872416362166405,-0.0009811404161155224
1761509348726572500,3.790572509765625,0.0002147718332707882,0.0004481077194213867,-0.0014577985275536776
1761509348746730500,3.81073046875,0.0007682992145419121,0.0002958197146654129,-0.001553412526845932
1761509348766887700,3.8308876953125,0.0018209880217909813,0.0002278042957186699,-0.000334237702190876
1761509348787045400,3.85104541015625,0.001862306846305728,0.00045604072511196136,0.0003381685819476843
1761509348807202600,3.87120263671875,-0.00044866150710731745,0.00004909001290798187,0.0014169439673423767
1761509348827360500,3.891360595703125,-0.0007488104747608304,-0.002771785482764244,-0.002646214794367552
1761509348847517400,3.911517333984375,-0.0006969203241169453,0.00043747667223215103,-0.0012193471193313599
1761509348867675600,3.931675537109375,0.00012357044033706188,0.0013789236545562744,-0.0008768865372985601
1761509348887832600,3.95183251953125,0.0004520753864198923,-0.0023539960384368896,0.0004713761154562235
1761509348907990800,3.97199072265625,0.003193096024915576,0.0014736726880073547,-0.00006536231376230717
1761509348928146700,3.992146728515625,-0.0024285311810672283,-0.0004292204976081848,-0.0008618005085736513
1761509348948303600,4.0123037109375,0.00022116187028586864,-0.00009611528366804123,-0.0031124597880989313
1761509348968461600,4.032461669921875,-0.0033188695088028908,-0.0009300140663981438,-0.001311206491664052
1761509348988619300,4.052619384765625,0.0005014638882130384,0.00019016582518815994,-0.00031037256121635437
1761509349008777500,4.072777587890625,0.001192950876429677,-0.0011157840490341187,-0.001089389668777585
1761509349028934100,4.09293408203125,0.0032621759455651045,0.0018604360520839691,0.003489950206130743
1761509349049092400,4.11309228515625,-0.0005470219766721129,0.0009645121172070503,-0.0020602147560566664
1761509349069250300,4.133250244140625,-0.0012561175972223282,0.0018161153420805931,0.00017543393187224865
1761509349089407500,4.153407470703125,-0.0009964945493265986,0.0006935326382517815,-0.0022785773035138845
1761509349109565200,4.173565185546875,0.0008728676475584507,0.0006400346755981445,-0.0005712381098419428
1761509349129722400,4.193722412109375,0.0012971872929483652,0.00019431579858064651,-0.0007838080637156963
1761509349149880300,4.21388037109375,-0.000016271136701107025,0.0007261680439114571,0.00014346465468406677
1761509349170037200,4.234037353515625,-0.00059214245993644,0.00023179221898317337,0.0012406613677740097
1761509349190195200,4.2541953125,0.0008794667664915323,0.00008830521255731583,-0.0030766399577260017
1761509349210352400,4.274352294921875,0.0016351919621229172,-0.0014728577807545662,-0.000505342148244381
1761509349230510300,4.29451025390625,-0.0014735751319676638,-0.0005231834948062897,0.0012456190306693316
1761509349250667300,4.314667236328125,-0.0009136630687862635,-0.00034534838050603867,0.0003180652856826782
1761509349270825500,4.334825439453125,0.0013164032716304064,0.0015980321913957596,-0.001566508086398244
1761509349290983400,4.3549833984375,-0.0004735267721116543,0.0015602614730596542,-0.0025060849729925394
1761509349311140400,4.375140380859375,0.0008221534080803394,-0.0007034698501229286,0.0007973622996360064
1761509349331298300,4.39529833984375,-0.0004149336600676179,-0.0007367627695202827,-0.0033571338281035423
1761509349351455500,4.41545556640625,-0.001126274699345231,-0.0004239967092871666,0.0005015761125832796
1761509349371613200,4.43561328125,-0.00045025686267763376,0.0014726612716913223,-0.003245328553020954
1761509349391770400,4.455770263671875,-0.0010143324034288526,0.00043569598346948624,-0.003069748403504491
1761509349411928300,4.47592822265625,-0.00008082552812993526,-0.0019251825287938118,0.0008142942097038031
1761509349432085200,4.496085205078125,-0.00026765093207359314,-0.00009829830378293991,0.0012892966624349356
1761509349452243500,4.516243408203125,0.0006963075138628483,0.00019766949117183685,0.002709717722609639
1761509349472400400,4.536400390625,-0.0012000041315332055,0.0002023167908191681,-0.0017530738841742277
1761509349492558300,4.556558349609375,-0.0014896594220772386,0.001379096880555153,-0.00040498352609574795
1761509349512715300,4.57671533203125,-0.0002169925719499588,0.0013859793543815613,-0.0005215057171881199
1761509349532873500,4.59687353515625,0.0009144383948296309,0.0014122482389211655,0.0007446454837918282
1761509349553030100,4.617030029296875,-0.0004079064819961786,-0.0007751528173685074,0.00016841129399836063
1761509349573188400,4.637188232421875,0.0014234650880098343,0.00036215316504240036,0.00014012237079441547
1761509349593346300,4.65734619140625,-0.00032787746749818325,0.0029034363105893135,0.00007214397192001343
1761509349613503500,4.67750341796875,-0.002448217011988163,-0.000661124475300312,0.0006894308608025312
1761509349633661200,4.6976611328125,-0.002064184285700321,-0.0002821367233991623,-0.00033000693656504154
1761509349653818400,4.717818359375,-0.0009319143136963248,0.00006275810301303864,0.0015844338340684772
1761509349673976300,4.737976318359375,-0.00024318997748196125,-0.0004947129637002945,-0.0008393211755901575
1761509349694133200,4.75813330078125,0.00047269160859286785,-0.0010420791804790497,-0.0016404069028794765
1761509349714291500,4.77829150390625,0.0016887702513486147,0.002664106898009777,0.0006003973539918661
1761509349734448400,4.798448486328125,0.00023629399947822094,-0.0002572750672698021,0.00017698784358799458
1761509349754606300,4.8186064453125,0.0007263482548296452,0.0013234345242381096,-0.0016406010836362839
1761509349774763300,4.83876318359375,0.00023637409321963787,0.0002204040065407753,-0.0004465084057301283
1761509349794921500,4.85892138671875,-0.0013670765329152346,0.0010311668738722801,0.0011344694066792727
1761509349815078100,4.879078125,-0.0010423088679090142,-0.0008931690827012062,-0.000002780929207801819
1761509349835236400,4.899236328125,0.00013368669897317886,0.0005934815853834152,-0.0001862801145762205
1761509349855394300,4.919394287109375,-0.002386447973549366,-0.0008709197863936424,0.0008997304830700159
1761509349875551200,4.93955126953125,-0.0012259486829861999,-0.00017121899873018265,-0.0025844809133559465
1761509349895709200,4.959709228515625,-0.0021188233513385057,0.0005804905667901039,-0.00008099060505628586
1761509349915866400,4.979866455078125,-0.0005068682366982102,-0.0008341241627931595,0.0014391742879524827
1761509349936024300,5.0000244140625,0.001021586125716567,-0.002065506763756275,0.000850580632686615
1761509349956181200,5.02018115234375,0.0004316745325922966,0.0004960326477885246,-0.0004674564115703106
1761509349976339500,5.04033935546875,0.0016562610398977995,0.0026553552597761154,0.00007795635610818863
1761509349996495600,5.06049560546875,-0.0017792084254324436,-0.0016690175980329514,-0.0002376362681388855
1761509350016653600,5.080653564453125,0.0010893591679632664,0.0006301552057266235,0.0006643559318035841
1761509350036810800,5.100810791015625,0.001273598987609148,-0.0004978077486157417,0.0004561247769743204
1761509350056968700,5.12096875,0.00033127423375844955,-0.0009571313858032227,0.000622649909928441
1761509350077125600,5.141125732421875,0.0006487392820417881,0.0010141050443053246,0.0002637901343405247
1761509350097283600,5.16128369140625,-0.0013122742529958487,-0.00006808899343013763,-0.00044625671580433846
1761509350117441500,5.181441650390625,0.002371465554460883,-0.00039004161953926086,-0.001855689799413085
1761509350137598500,5.201598388671875,0.0009308191947638988,-0.00023381970822811127,0.0006092269904911518
1761509350157756700,5.221756591796875,0.0012079423759132624,0.000506822019815445,0.0023536724038422108
1761509350177913600,5.24191357421875,-0.0007035206072032452,-0.0010303175076842308,-0.00012250849977135658
1761509350198071800,5.26207177734375,0.00001829559914767742,0.0003489190712571144,-0.0004707758780568838
1761509350218228500,5.282228515625,-0.0002561444416642189,-0.0007002633064985275,-0.0022697264794260263
1761509350238386700,5.30238671875,0.0005039933603256941,0.0002622399479150772,-0.0003087155055254698
1761509350258543600,5.322543701171875,0.00026137568056583405,-0.0013458430767059326,0.0020858352072536945
1761509350278701600,5.34270166015625,-0.003262047190219164,0.0012726066634058952,0.0009911188390105963
1761509350298858800,5.362858642578125,-0.0005112930666655302,-0.0019630147144198418,-0.003050826024264097
1761509350319016700,5.3830166015625,-0.0004876251332461834,-0.0017522629350423813,0.0003562264610081911
1761509350339173600,5.403173583984375,0.0011399623472243547,-0.0017099250108003616,-0.0010820699390023947
1761509350359331600,5.42333154296875,0.00030389311723411083,-0.0008586104959249496,-0.0011301105841994286
1761509350379488800,5.44348876953125,0.0051514217630028725,-0.0018830318003892899,0.00003999215550720692
1761509350399646500,5.463646484375,-0.0018945297924801707,0.0004972219467163086,0.0015180681366473436
1761509350419804700,5.4838046875,0.0005346343386918306,0.0010410482063889503,0.0014592537190765142
1761509350439961600,5.503961669921875,-0.0005065756849944592,-0.0011130720376968384,-0.0006456195842474699
1761509350460119800,5.524119873046875,-0.0014273248380050063,0.0008230516687035561,0.0006804526783525944
1761509350480276500,5.5442763671875,0.0003660842776298523,-0.0007621292024850845,0.0005979170091450214
1761509350500434700,5.5644345703125,0.00008066324517130852,0.0008998895063996315,0.0005484991706907749
1761509350520591600,5.584591552734375,0.0026566823944449425,0.0003018854185938835,-0.0010491227731108665
1761509350540749600,5.60474951171875,-0.001480225007981062,-0.0006721271201968193,-0.001575578236952424
1761509350560906800,5.62490673828125,-0.000692507834173739,0.0009935759007930756,-0.0012526060454547405
1761509350581064700,5.645064697265625,0.000014482531696557999,-0.000758681446313858,-0.00027754949405789375
1761509350601221600,5.6652216796875,0.0010631976183503866,0.0015095574781298637,-0.002430342836305499
1761509350621379600,5.685379638671875,0.0025137385819107294,0.0015507042407989502,0.002870315918698907
1761509350641536800,5.705536865234375,0.0021971536334604025,-0.00044828467071056366,0.002669660374522209
1761509350661694500,5.725694580078125,-0.001609644154086709,0.00030059926211833954,-0.0016639572568237782
1761509350681851600,5.7458515625,-0.0007037224713712931,0.0000015497207641601562,0.0001376455184072256
1761509350702009600,5.766009521484375,-0.0024430272169411182,-0.0015991255640983582,0.00048781768418848515
1761509350722166500,5.78616650390625,0.0006170948036015034,-0.0007380982860922813,0.0017814571037888527
1761509350742324500,5.806324462890625,-0.00010143592953681946,0.001991238445043564,0.0016058176988735795
1761509350762482700,5.826482666015625,2.8219074010849e-7,0.0011128690093755722,-0.001261489698663354
1761509350782639600,5.8466396484375,0.0012894838582724333,0.0002865483984351158,0.0009437284898012877
1761509350802797600,5.866797607421875,0.001839459640905261,0.0016269432380795479,0.00029101944528520107
1761509350822954800,5.886954833984375,-0.0000995309092104435,0.002072690986096859,-0.00031367503106594086
1761509350843112700,5.90711279296875,0.0005301379133015871,0.0008653672412037849,-0.00160305667668581
1761509350863269600,5.92726953125,0.00031403149478137493,-0.001656373031437397,-0.0017146128229796886
1761509350883427600,5.947427490234375,-0.00041637092363089323,-0.00025202520191669464,0.0037279040552675724
1761509350903584800,5.967584716796875,0.0010251894127577543,0.0006953198462724686,0.0005517147947102785
1761509350923742500,5.987742431640625,0.0012467189226299524,0.001840999349951744,0.0016733402153477073
1761509350943899600,6.007899658203125,-0.001041698968037963,0.0001249229535460472,0.00018658488988876343
1761509350964057600,6.0280576171875,0.002484753029420972,-0.0008050277829170227,0.0017746523953974247
1761509350984214500,6.048214599609375,0.00032454938627779484,0.0009150179103016853,0.001989013282582164
1761509351004372500,6.06837255859375,-0.00013265828602015972,0.0006346357986330986,-0.00035099382512271404
1761509351024529700,6.08852978515625,0.00017911288887262344,-0.0010470738634467125,-0.0014338013716042042
1761509351044688000,6.10868798828125,0.0011061201803386211,-0.00045021437108516693,-0.00048333266749978065
1761509351064844500,6.128844482421875,0.0011723111383616924,0.0018577547743916512,0.0004796611610800028
1761509351085002800,6.149002685546875,0.001108474563807249,0.0005900096148252487,0.0012616605963557959
1761509351105160700,6.16916064453125,-0.00041254772804677486,0.00005182623863220215,0.0007292840164154768
1761509351125317600,6.189317626953125,0.0010771334636956453,0.0012119440361857414,0.0010683650616556406
1761509351145475600,6.2094755859375,-0.0019467100501060486,0.0016404958441853523,0.000744375167414546
1761509351165632800,6.2296328125,0.0002565165050327778,0.0008452683687210083,0.0011028852313756943
1761509351185790500,6.24979052734375,0.0004269503988325596,0.0016204873099923134,-0.0009163476061075926
1761509351205947600,6.26994775390625,-0.00021044444292783737,0.002957100048661232,-0.0005862910766154528
1761509351226105600,6.290105712890625,0.00022576679475605488,0.0013971924781799316,0.00007207994349300861
1761509351246262500,6.310262451171875,0.00003955909051001072,0.0010677473619580269,0.0002603658940643072
1761509351266420500,6.33042041015625,0.000662204809486866,-0.0009770551696419716,0.00002206815406680107
1761509351286577700,6.35057763671875,0.0007097085472196341,-0.0003428114578127861,0.0009645475074648857
1761509351306735600,6.370735595703125,0.0019983609672635794,-0.00037262309342622757,-0.00041296123526990414
1761509351326892500,6.390892578125,0.0002960599958896637,0.0009382516145706177,0.0015136520378291607
1761509351347050800,6.41105078125,-0.003508654423058033,0.0007769828662276268,0.00045942445285618305
1761509351367207400,6.43120751953125,-0.0023402271326631308,0.0003533223643898964,-0.0003951361868530512
1761509351387365600,6.45136572265625,0.000010379357263445854,-0.0005319658666849136,0.001956806518137455
1761509351407522600,6.4715224609375,-0.0004011426353827119,-0.0019932789728045464,0.0008421677630394697
1761509351427680800,6.4916806640625,0.0013859544415026903,0.00039366260170936584,-0.0006343687418848276
1761509351447838500,6.51183837890625,0.002506159944459796,0.0016559073701500893,0.000761545030400157
1761509351467995600,6.53199560546875,-0.0003250479931011796,0.0005982546135783195,-0.0004798246081918478
1761509351488153600,6.552153564453125,-0.0020466430578380823,-0.0006257807835936546,0.0015382787678390741
1761509351508310500,6.572310546875,-0.001264720456674695,0.0007993839681148529,-0.0008562959264963865
1761509351528468700,6.59246875,-0.0015520444139838219,-0.0015968866646289825,-0.0013712162617594004
1761509351548625700,6.612625732421875,0.0004642962012439966,0.002063162624835968,0.000040053389966487885
1761509351568783600,6.63278369140625,-0.0004944823449477553,-0.0016651023179292679,0.0007205263245850801
1761509351588940500,6.6529404296875,-0.0011127338511869311,0.00008230004459619522,0.00007616938091814518
1761509351609098800,6.6730986328125,0.0018549016676843166,-0.00041085388511419296,-0.0012314456980675459
1761509351629255400,6.69325537109375,-0.0014766722451895475,-0.00024691876024007797,-0.0000623797532171011
1761509351649413600,6.71341357421875,0.00044999783858656883,-0.00035811588168144226,-0.002417445182800293
1761509351669570600,6.733570556640625,-0.0015200860798358917,0.0030298447236418724,-0.0005362406373023987
1761509351689728800,6.753728759765625,0.0005745531525462866,-0.0024070097133517265,-0.0004248581826686859
1761509351709885700,6.7738857421875,0.0009345614816993475,-0.000009401701390743256,-0.0008630282245576382
1761509351730043600,6.794043701171875,-0.002892909338697791,-0.0019777677953243256,0.000010495539754629135
1761509351750200800,6.814200927734375,0.0005338443443179131,-0.0018065478652715683,0.00007757870480418205
1761509351770358500,6.834358642578125,-0.0009802206186577678,0.00027658604085445404,-0.0009450349025428295
1761509351790515700,6.854515625,-0.0004112460883334279,-0.00020838063210248947,-0.00031312741339206696
1761509351810673700,6.874673583984375,0.0000800450798124075,-0.0005621202290058136,0.001476030214689672
1761509351830831600,6.89483154296875,-0.000018572667613625526,-0.00018439721316099167,-0.00021379580721259117
1761509351850988500,6.914988525390625,0.0006965347565710545,0.0018553053960204124,-0.0019265383016318083
1761509351871146800,6.935146728515625,-0.00042756006587296724,0.0010530110448598862,0.00032834894955158234
1761509351891303400,6.955303466796875,0.002384753432124853,0.003017893061041832,0.001415574224665761
1761509351911461600,6.975461669921875,0.00020280806347727776,-0.001298178918659687,0.00046701543033123016
1761509351931618800,6.995618896484375,-0.0003755297511816025,-0.002720939926803112,0.0007506783585995436
1761509351951776800,7.01577685546875,-0.0000855631660670042,-0.0004690168425440788,-0.0005527054890990257
1761509351971933700,7.03593359375,0.0008428026922047138,-0.0008840514346957207,-0.0019452397245913744
1761509351992091600,7.056091552734375,-0.000049094436690211296,-0.0009017232805490494,0.0012837143149226904
1761509352012248800,7.076248779296875,-0.0009581149788573384,-0.0020379889756441116,0.002588786417618394
1761509352032406800,7.09640673828125,0.00043714698404073715,-0.0010665496811270714,-0.0012264251708984375
1761509352052563700,7.116563720703125,-0.001434513833373785,-0.0015984904021024704,0.00028970674611628056
1761509352072721700,7.1367216796875,-0.0013873365242034197,0.0008044485002756119,-0.000971256522461772
1761509352092878800,7.15687890625,-0.0011923413258045912,0.0007670922204852104,0.0011900784447789192
1761509352113036500,7.17703662109375,-0.0012564428616315126,-0.0006972793489694595,-0.0035747094079852104
1761509352133193700,7.19719384765625,0.0012814928777515888,-0.00031478796154260635,0.0013114882167428732
1761509352153351700,7.2173515625,0.0014432896859943867,0.0008436636999249458,-0.0005408532451838255
1761509352173508600,7.237508544921875,-0.00011008023284375668,-0.0013067135587334633,-0.0009845183230936527
1761509352193666800,7.257666748046875,0.001233574002981186,-0.001999317668378353,-0.0006751464679837227
1761509352213824800,7.27782470703125,0.002509513171389699,0.00034633465111255646,-0.0019377495627850294
1761509352233981700,7.297981689453125,-0.00039824284613132477,-0.0007421327754855156,0.0012384445872157812
1761509352254139600,7.3181396484375,0.0006266206037253141,0.0000894889235496521,-0.0013776738196611404
1761509352274296800,7.338296875,-0.0004562430549412966,0.00007491372525691986,0.0019529566634446383
1761509352294454800,7.358454833984375,-0.0004590472672134638,-0.001242140308022499,-0.0024365491699427366
1761509352314611700,7.37861181640625,-0.0009227704722434282,0.0015336563810706139,0.0005178677383810282
1761509352334769700,7.398769775390625,-0.00018709548749029636,0.0031392956152558327,0.0009490307420492172
1761509352354926800,7.4189267578125,0.00007591466419398785,-0.0016979863867163658,0.0011159137357026339
1761509352375084500,7.43908447265625,0.0014923925045877695,0.0013801613822579384,-0.00030296877957880497
1761509352395241700,7.45924169921875,0.000003059394657611847,-0.0005602985620498657,-0.0012701619416475296
1761509352415399700,7.479399658203125,-0.0013603426050394773,0.0021498091518878937,-0.0016137247439473867
1761509352435556600,7.499556640625,-0.0011219088919460773,-0.00003293715417385101,0.0015460527502000332
1761509352455714800,7.51971484375,-0.0007960847578942776,0.0009056590497493744,0.0035784104838967323
1761509352475871700,7.539871826171875,-0.0018913488602265716,0.0005904119461774826,0.0001085805706679821
1761509352496029700,7.56002978515625,0.0008571257349103689,0.00048736296594142914,-0.0019685609731823206
1761509352516186600,7.5801865234375,0.0005462574772536755,-0.000007322058081626892,0.0015852508367970586
1761509352536344800,7.6003447265625,0.0001565590500831604,0.0002617398276925087,-0.0021204084623605013
1761509352556501500,7.62050146484375,-0.00016368809156119823,0.0027206577360630035,-0.0005350373685359955
1761509352576659700,7.64065966796875,-0.001888448721729219,0.0002537965774536133,-0.0006450570654124022
1761509352596817000,7.66081689453125,-0.0005064797587692738,0.00042044371366500854,-0.0013334662653505802
1761509352616974800,7.680974853515625,-0.0009304734412580729,0.0004768567159771919,0.001946918899193406
1761509352637131800,7.7011318359375,0.0005095046944916248,0.00017959438264369965,0.0018842245917767286
1761509352657289700,7.721289794921875,0.0007909894920885563,-0.003203519620001316,0.0001781475730240345
1761509352677447700,7.74144775390625,-0.0006666462868452072,0.0002837972715497017,-0.0019566132687032223
1761509352697604600,7.7616044921875,0.0003999713808298111,-0.0001499280333518982,0.0005320885684341192
1761509352717762800,7.7817626953125,0.00009454693645238876,0.002521190792322159,0.0007497637998312712
1761509352737919700,7.801919677734375,0.00022591534070670605,0.0019980063661932945,-0.0023188565392047167
1761509352758077700,7.82207763671875,-0.0012445006286725402,0.002052193507552147,0.0027148171793669462
1761509352778234600,7.842234619140625,0.0005112749058753252,-0.0011638812720775604,0.0004624368157237768
1761509352798392800,7.862392822265625,0.0013112910091876984,0.00037787947803735733,-0.0014198250137269497
1761509352818549800,7.8825498046875,0.0002178163267672062,-0.0011687185615301132,0.0005084245931357145
1761509352838707700,7.902707763671875,0.0013668376486748457,0.0012601399794220924,-0.0010436198208481073
1761509352858865000,7.922864990234375,-0.00019422429613769054,-0.0015345970168709755,0.0011992966756224632
1761509352879022600,7.943022705078125,-0.0008042209083214402,0.0010482743382453918,0.002327198861166835
1761509352899179800,7.9631796875,-0.0016293447697535157,0.001515684649348259,0.00012022885493934155
1761509352919337700,7.983337646484375,0.0014004986733198166,0.0008808644488453865,-0.0016932589933276176
1761509352939494700,8.00349462890625,0.00028295814990997314,0.0009925765916705132,-0.0010114903561770916
1761509352959652600,8.023652587890625,-0.0022955473978072405,-0.0007252488285303116,0.002187061123549938
1761509352979809800,8.043809814453125,-0.002459819195792079,-0.00014485511928796768,-0.00013205013237893581
1761509352999967500,8.063967529296875,-0.0008782024960964918,-0.0008900268003344536,-0.0006779441609978676
1761509353020124400,8.08412451171875,-0.0010681323474273086,-0.0015215156599879265,-0.0009590296540409327
1761509353040282400,8.104282470703126,0.0007358735892921686,0.001664474606513977,-0.0006795055232942104
1761509353060439300,8.124439208984375,0.0006518608424812555,-0.002724265679717064,-0.00036681839264929295
1761509353080597500,8.144597412109375,0.002119979588314891,0.0009620692580938339,-0.0013549530413001776
1761509353100754400,8.16475439453125,0.00038798805326223373,0.0007005082443356514,0.0004508786369115114
1761509353120912600,8.18491259765625,0.0005325039383023977,-0.0003360901027917862,-0.0004728343337774277
1761509353141069300,8.2050693359375,-0.0025078323669731617,0.00008188746869564056,0.001983897527679801
1761509353161227500,8.2252275390625,0.00020805606618523598,0.0009721238166093826,0.0021778917871415615
1761509353181385500,8.245385498046875,-0.0014929400058463216,-0.0009119035676121712,-0.0008677239529788494
1761509353201542400,8.26554248046875,0.0007871249690651894,-0.0010645827278494835,-0.0008886803407222033
1761509353221700400,8.285700439453125,0.0023205417674034834,0.000880558043718338,0.0017197999404743314
1761509353241857500,8.305857421875,-0.002616346115246415,0.001841760240495205,0.0008076988160610199
1761509353262015500,8.326015380859374,-0.0008789467392489314,0.001168745569884777,-0.001808802131563425
1761509353282172400,8.34617236328125,-0.00040259375236928463,0.0011058701202273369,-0.0017575155943632126
1761509353302330400,8.366330322265625,0.00042149145156145096,-0.00018186494708061218,-0.0012136215809732676
1761509353322487300,8.3864873046875,0.0001410448458045721,-0.00008409377187490463,-0.0001273315865546465
1761509353342645500,8.4066455078125,0.003204869572073221,0.0016692942008376122,-0.0004681881982833147
1761509353362804500,8.426804443359375,0.00031609763391315937,-0.002443813718855381,-0.0013281500432640314
1761509353382961400,8.44696142578125,0.0010201381519436836,-0.0007058633491396904,0.002563833724707365
1761509353403119600,8.46711962890625,-0.00022391020320355892,-0.0009495643898844719,0.0004451568238437176
1761509353423276500,8.487276611328125,-0.00025819498114287853,-0.000016742385923862457,0.0005366562400013208
1761509353443434500,8.5074345703125,-0.00021493108943104744,0.003073391504585743,0.000828038202598691
1761509353463591700,8.527591796875,0.0006240904331207275,-0.0005980124697089195,-0.0005076644010841846
1761509353483749400,8.547749267578125,0.0018645352683961391,0.0007141120731830597,-0.0021040397696197033
1761509353503906600,8.567906494140624,0.0011764890514314175,0.0024814410135149956,0.0006072574760764837
1761509353524064500,8.588064453125,-0.0006218240596354008,0.0005255648866295815,-0.0012727424036711454
1761509353544222500,8.608222412109376,-0.0007422070484608412,0.0018382016569375992,0.0005411489401012659
1761509353564379400,8.62837939453125,0.00011271634139120579,-0.002177329733967781,0.0008184302132576704
1761509353584537600,8.64853759765625,-0.0009471749654039741,-0.0005843201652169228,-0.00043807830661535263
1761509353604694300,8.6686943359375,0.002639948157593608,-0.00037523359060287476,0.0012977644801139832
1761509353624852500,8.6888525390625,0.0024492491502314806,-0.0029152026399970055,-0.0004652533680200577
1761509353645009400,8.709009521484376,0.0016410632524639368,0.0018189605325460434,0.0013977901544421911
1761509353665167600,8.729167724609376,0.0004775093402713537,-0.0013980912044644356,-0.0004481975920498371
1761509353685324500,8.749324462890625,0.0012713586911559105,-0.0005445675924420357,-0.0007120482623577118
1761509353705482500,8.769482421875,-0.0012169107794761658,-0.0016355272382497787,-0.00011547794565558434
1761509353725639700,8.7896396484375,0.0013845979701727629,-0.0014358768239617348,0.0006589877884835005
1761509353745797400,8.80979736328125,0.00240270490758121,-0.0006844131276011467,-0.00045759323984384537
1761509353765954600,8.82995458984375,0.0024319919757544994,0.001485215499997139,0.0013588976580649614
1761509353786112500,8.850112548828125,-0.0034987926483154297,0.002278662286698818,-0.00046654813922941685
1761509353806269400,8.87026953125,0.00009996886365115643,0.0006012711673974991,0.0005575641989707947
1761509353826427400,8.890427490234375,-0.0010768611682578921,-0.0012972569093108177,0.0006542888004332781
1761509353846584600,8.91058447265625,-0.0005370669532567263,0.0005795108154416084,-0.000011011725291609764
1761509353866742300,8.9307421875,0.0014711173716932535,-0.0005452949553728104,-0.0005355104804039001
1761509353886899500,8.9508994140625,0.0035610580816864967,-0.001691536046564579,-0.0012438457924872637
1761509353907057400,8.971057373046875,-0.00003186636604368687,0.0006026942282915115,0.002688904758542776
1761509353927214300,8.99121435546875,0.0004148641601204872,-0.0007513053715229034,0.000944614177569747
1761509353947372500,9.01137255859375,-0.001241780468262732,0.0009577115997672081,0.0004753824323415756
1761509353967529500,9.031529541015624,-0.0004722448065876961,-0.0010914402082562447,0.00022206059657037258
1761509353987687700,9.051687744140626,0.001295876456424594,-0.0016109198331832886,-0.0021964835468679667
1761509354007844600,9.0718447265625,-0.0012722716201096773,0.001384655013680458,0.0015574293211102486
1761509354028002800,9.0920029296875,-0.0006925025954842567,-0.0032148007303476334,-0.0019874039571732283
1761509354048159500,9.112159423828125,-0.0014620800502598286,-0.0014995196834206581,-0.00009786617010831833
1761509354068317700,9.132317626953125,0.00041733100078999996,0.0009596161544322968,-0.0016104413662105799
1761509354088474600,9.152474609375,-0.0011919633252546191,-0.0004897303879261017,-0.0023727184161543846
1761509354108632600,9.172632568359376,0.0003412447404116392,-0.00044194702059030533,-0.0012643896043300629
1761509354128789800,9.192789794921875,0.000830979086458683,-0.002102058380842209,-0.0005779971834272146
1761509354148947700,9.21294775390625,0.0008791631553322077,0.0006101885810494423,0.001163659617304802
1761509354169104600,9.233104736328125,-0.00018515228293836117,-0.000921269878745079,-0.0011611341033130884
1761509354189262600,9.2532626953125,-0.002295037731528282,-0.0027850400656461716,-0.000017480691894888878
1761509354209420800,9.2734208984375,-0.0019670180045068264,-0.0017450656741857529,-0.0008799240458756685
1761509354229577500,9.293577392578126,-0.0005888014566153288,0.0017962837591767311,-0.00006918469443917274
1761509354249735700,9.313735595703125,-0.00034624035470187664,0.0013086851686239243,-0.0009052534587681293
1761509354269892600,9.333892578125,0.0006052106618881226,0.0026978766545653343,-0.002229300094768405
1761509354290050800,9.35405078125,0.0002314215525984764,0.003551061265170574,0.0016657791566103697
1761509354310207500,9.37420751953125,0.0007524194661527872,-0.00008856691420078278,0.000969502842053771
1761509354330365700,9.39436572265625,-0.0007849425310268998,0.0016869697719812393,0.0017706550424918532
1761509354350522600,9.414522705078125,0.00020261714234948158,-0.00047668907791376114,-0.0006226387340575457
1761509354370680600,9.4346806640625,-0.00041032745502889156,0.0027304915711283684,0.0013726549223065376
1761509354390837800,9.454837646484375,-0.00045570475049316883,-0.0017282888293266296,-0.00026680435985326767
1761509354410995700,9.47499560546875,0.003016629721969366,0.00015473458915948868,0.000981729244813323
1761509354431152600,9.495152587890624,0.0012806181330233812,-0.00009720586240291595,0.0003800364211201668
1761509354451310600,9.515310546875,-0.0001049884594976902,0.0028243083506822586,-0.0017145774327218533
1761509354471467800,9.5354677734375,0.001973516773432493,-0.0028828969225287437,-0.00029300921596586704
1761509354491625500,9.55562548828125,-0.0002804519608616829,-0.001493345946073532,0.00047278497368097305
1761509354511782700,9.57578271484375,-0.0004725686740130186,0.000641433522105217,0.00013486528769135475
1761509354531940600,9.595940673828125,-0.0005889342864975333,0.00046867411583662033,0.0013838158920407295
1761509354552097500,9.61609765625,-0.0014766111271455884,0.0005060499534010887,-0.001790468581020832
1761509354572255500,9.63625537109375,-0.0011558191617950797,0.0023047300055623055,-0.00007543526589870453
1761509354592412700,9.65641259765625,0.0024928441271185875,0.001668458804488182,-0.00009955954737961292
1761509354612570600,9.676570556640625,-0.0015441249124705791,-0.0017180461436510086,0.0016099383356049657
1761509354632727600,9.6967275390625,-0.0014409355353564024,0.0018055671826004982,0.0005324976518750191
1761509354652885800,9.7168857421875,-0.0010669877519831061,0.0013532601296901703,0.0011536588426679373
1761509354673042400,9.73704248046875,0.00010869768448174,0.0037543904036283493,0.003397533670067787
1761509354693200600,9.75720068359375,0.0022872835397720337,-0.0024024033918976784,-0.003068388206884265
1761509354713357600,9.777357666015625,0.0016822200268507004,0.0026587415486574173,0.0004669122863560915
1761509354733515800,9.797515869140625,0.0009637658949941397,-0.0008100196719169617,0.0015620025806128979
1761509354753672700,9.817672607421875,-0.0008315352024510503,-0.00013937707990407944,-0.0004528043791651726
1761509354773830700,9.83783056640625,-0.001914361258968711,-0.0008435221388936043,0.0011891145259141922
1761509354793987800,9.85798779296875,0.0003572339192032814,-0.0021124007180333138,0.00042945542372763157
1761509354814145500,9.8781455078125,0.002263612113893032,-0.0018284078687429428,0.000701116630807519
1761509354834302700,9.898302734375,0.0033775230403989553,-0.00007151253521442413,0.0012286927085369825
1761509354854460700,9.918460693359375,-0.0025684013962745667,-0.00025434792041778564,-0.0004230064805597067
1761509354874617600,9.93861767578125,-0.000017967773601412773,-0.000148857943713665,-0.0012618221808224916
1761509354894775600,9.958775634765624,-0.0018793420167639852,0.002174830064177513,0.0022845007479190826
1761509354914932700,9.9789326171875,-0.0022626060526818037,0.001960347406566143,-0.0008865725249052048
1761509354935090400,9.99909033203125,0.0023824688978493214,-0.00036691781133413315,-0.00038129929453134537
1761509354955247600,10.01924755859375,0.0025327657349407673,-0.0005820635706186295,-0.0013824468478560448
1761509354975405600,10.039405517578125,-0.00046405510511249304,0.002272389829158783,-0.001266018720343709
1761509354995566000,10.059566162109375,-0.0007249739719554782,0.0006499700248241425,0.0018381678964942694
1761509355015724300,10.079724365234375,-0.0009596635354682803,-0.0004867333918809891,0.00008876342326402664
1761509355035881000,10.099880859375,0.00043131737038493156,0.0010328302159905434,0.0003119905013591051
1761509355056039200,10.1200390625,0.00005678599700331688,-0.0017645321786403656,-0.0018315864726901054
1761509355076196000,10.140196044921876,0.0005113044753670692,-0.0006380109116435051,0.0014934876235201955
1761509355096354000,10.16035400390625,-0.00002819439396262169,0.0016333302482962608,-0.0019866323564201593
1761509355116511200,10.18051123046875,0.0001443321816623211,0.00036769919097423553,0.0008361430373042822
1761509355136669200,10.200669189453125,-0.0006395026575773954,0.0026876600459218025,0.0007729022763669491
1761509355156826000,10.220826171875,-0.0013743866002187133,0.003129282034933567,0.002656848868355155
1761509355176984000,10.240984130859376,0.0011327173560857773,0.0019972100853919983,0.003877044655382633
1761509355197141200,10.261141357421875,0.001438118051737547,0.0009047100320458412,-0.00006638187915086746
1761509355217299000,10.281298828125,0.001877067843452096,0.00041164178401231766,0.000043865060433745384
1761509355237456100,10.3014560546875,-0.0011264245258644223,0.004277319647371769,0.0031515625305473804
1761509355257614000,10.321614013671875,0.0001486192923039198,0.001613411121070385,0.0012349728494882584
1761509355277772300,10.341772216796874,-0.002261748304590583,-0.0017046630382537842,-0.0010475823655724525
1761509355297929000,10.361928955078126,0.0010363510809838772,0.000006479211151599884,0.0028231970500200987
1761509355318087200,10.382087158203126,0.0009329202584922314,-0.0013492992147803307,0.0025873640552163124
1761509355338244000,10.402244140625,-0.0015417113900184631,0.00907798483967781,0.015309169888496399
1761509355358402000,10.422402099609375,0.002289091469720006,0.01831388846039772,0.02045639231801033
1761509355378559200,10.442559326171875,0.0014303531497716904,0.002589758485555649,0.00415428914129734
1761509355398717200,10.46271728515625,-0.0007761730812489986,-0.0046699196100234985,-0.0011441500391811132
1761509355418874000,10.4828740234375,0.0006402153521776199,-0.0033740513026714325,-0.005533135030418634
1761509355439032000,10.503031982421875,-0.0011764090741053224,-0.005025498569011688,-0.003220878541469574
1761509355459189200,10.523189208984375,-0.0010411182884126902,-0.010992728173732758,-0.012065349146723747
1761509355479347000,10.543346923828125,-0.0001816155854612589,-0.008334162645041943,-0.011775488965213299
1761509355499504000,10.563504150390624,0.0009269034489989281,-0.007761194836348295,-0.009270774200558662
1761509355519662000,10.583662109375,-0.0005514747463166714,-0.0003224816173315048,-0.0013407017104327679
