time,seconds_elapsed,z,y,x
1761481564613175300,0.07117529296875,3.9723704302996397,6.485964778077602,0.6839394185110926
1761481564633117400,0.091117431640625,3.5136055025696753,5.471791242420673,0.47536670110393314
1761481564653060400,0.111060302734375,2.5811042879492043,4.546908686110377,-0.45670207691602405
1761481564673003500,0.13100341796875,1.2922241688400506,4.221737989833951,-0.6149639358319342
1761481564692945400,0.1509453125,-0.6756658034235239,3.2753497041583057,0.978926573447883
1761481564712888600,0.170888671875,-1.4379630115956068,1.1506705028146504,2.4081894151069223
1761481564732830500,0.19083056640625,-1.9092334928944705,-1.7521838593125343,0.45007001849040384
1761481564752773600,0.210773681640625,-2.8783970894798636,-4.27821215672791,-2.5747745004057885
1761481564772716500,0.230716552734375,-3.1462808411747214,-4.802789573061466,-2.7309458898484706
1761481564792658700,0.25065869140625,-2.683352656285465,-3.6570594492584463,1.7408283525615929
1761481564812601600,0.2706015625,-2.630432090219855,-4.374430889511108,7.171085807588696
1761481564832543500,0.29054345703125,-2.2814771982520816,-6.155054076844453,3.482272206673026
1761481564852486700,0.310486572265625,-2.359592703589797,-8.368533843669296,0.2801262704133987
1761481564872429600,0.3304296875,-2.5768627048566937,-9.193320533502101,1.5509133912101387
1761481564892371500,0.350371337890625,-3.768725926542282,-7.731247747522592,1.1580525758899747
1761481564912314400,0.370314453125,-3.589363631126284,-4.797524199879169,-0.09638112027067691
1761481564932257500,0.390257568359375,-1.6109282994508742,-2.4357518141627312,0.2395295812068507
1761481564952199400,0.410199462890625,0.2659568752855062,-1.2550994300603866,-0.46911238994952287
1761481564972142300,0.430142333984375,1.297117201578617,-0.07388824303150177,-0.8703191184084862
1761481564992084500,0.45008447265625,1.953078772100806,2.122007351785898,-0.7039223222233355
1761481565012027400,0.47002734375,3.0597365301877257,3.129520845031738,-0.07925055551594123
1761481565031970600,0.489970458984375,3.7745647156983613,2.4787878228127953,-0.961863137378916
1761481565051912400,0.509912353515625,3.5429601918697355,2.006196614304185,-3.456964162415266
1761481565071855600,0.529855712890625,2.0204419972777363,2.6795541407853363,-4.376363318878412
1761481565091798500,0.549798583984375,0.7143126372039318,4.146875933334231,-2.687683963488042
1761481565111740700,0.56974072265625,0.6082908878087997,5.002535315814614,-0.4278145667362958
1761481565131683600,0.58968359375,1.3644991314560173,5.95826543033123,-0.0814076056856662
1761481565151625500,0.60962548828125,3.0341666201233863,5.227320807278156,-0.9606051732070744
1761481565171568400,0.629568359375,3.6803549846500156,3.836566706103086,-2.43216854884848
1761481565191511300,0.64951123046875,3.319367125061154,3.9084973853260276,-1.6982389186352491
1761481565211453400,0.669453369140625,1.3240753511309622,4.373665165835619,0.977722896746546
1761481565231396400,0.689396240234375,-1.320361006782949,3.3566333181381225,1.3890521195627747
1761481565251339500,0.709339599609375,0.20307138004451988,1.1775678620904684,-0.9010608781527727
1761481565271280600,0.72928076171875,3.9631870068907737,-1.3268372170597313,-1.108082968584448
1761481565291223800,0.749223876953125,1.1403963615596293,-2.6901825023055075,0.1730002861034125
1761481565311166700,0.769166748046875,-1.3572633349835872,-3.4249072284191846,2.217104825454205
1761481565331108900,0.78910888671875,-1.8081950848698616,-4.145921993610263,4.309819008868932
1761481565351051800,0.8090517578125,-2.6694144395649433,-6.011041911751032,2.872249380505085
1761481565370994000,0.828993896484375,-2.8533628937274216,-8.160507179304958,1.063189495499432
1761481565390936800,0.848936767578125,-3.263542946508527,-8.526362352669238,2.6955595191687345
1761481565410879700,0.868879638671875,-2.366888705816865,-8.302396360895036,5.276105588713288
1761481565430822000,0.88882177734375,-0.9211796101391315,-6.476607751667499,4.372303814354539
1761481565450764800,0.908764892578125,-0.2050020558461547,-5.250487747853994,0.3381634853729978
1761481565470707000,0.92870703125,0.47508799376040695,-4.033689114615321,-3.310961700287461
1761481565490649900,0.94864990234375,1.9895821641117333,-2.0996727703809737,-3.0460350448325273
1761481565510593000,0.968593017578125,2.046360866910219,0.9176976132422685,-0.4547715107122436
1761481565530534700,0.98853466796875,0.901776990532875,3.7098967209547755,1.459980489875376
1761481565550477800,1.008477783203125,-0.11036357799172401,4.621439903220534,0.8111867651559412
1761481565570420700,1.028420654296875,0.5845522848248481,4.10556835591197,-1.9731427782252429
1761481565590363000,1.04836279296875,3.241516408139467,4.552706558734179,-3.0018370066657662
1761481565610305800,1.068305908203125,4.474160845285653,5.938519696375727,-1.0296342857696115
1761481565630248700,1.088248779296875,4.186153466233611,6.486161177432536,0.20427958679050207
1761481565650190800,1.10819091796875,3.2661294558703897,6.398367743167281,0.21561733868904412
1761481565670133800,1.1281337890625,3.202435274595022,5.440420537123083,-0.5644465584505349
1761481565690076000,1.148075927734375,3.6470144405841824,4.774745966359973,-1.7681006826296448
1761481565710018800,1.168018798828125,3.5340246057420965,4.4917198828518385,-1.9751634703978895
1761481565729962000,1.1879619140625,2.3202175555348394,3.323722397661209,-1.1956528232268988
1761481565749904000,1.20790380859375,0.6822884364336729,1.797843202203512,-0.5136174847714603
1761481565769847000,1.227846923828125,-1.5607482642650603,-0.35520460001230236,-0.12534063624069094
1761481565789790000,1.2477900390625,-2.8868665194004772,-2.00286717762053,-0.17660488646663725
1761481565809731800,1.26773193359375,-2.6841192567437884,-2.394057867771387,-0.32803777614533897
1761481565829674800,1.2876748046875,-2.9972476330488917,-2.9767665705561637,0.14832396387793123
1761481565849616600,1.30761669921875,-3.5366602149426933,-4.3926907688230274,2.4734163589075204
1761481565869559800,1.327559814453125,-2.430078152440488,-6.150185594025253,4.323654934258759
1761481565889502700,1.347502685546875,0.04598229123502969,-6.763799722683429,2.9669550783768295
1761481565909444900,1.36744482421875,0.5834568908035754,-8.192918918088077,1.5743936355188488
1761481565929387800,1.3873876953125,-2.739177711620927,-8.442115797230601,1.288566523115337
1761481565949330700,1.40733056640625,-6.050144088083505,-7.110538692167401,1.1342696223076432
1761481565969272800,1.42727294921875,-6.434247450321912,-4.926659113836288,0.6335678062759339
1761481565989215700,1.4472158203125,-4.2929824403584,-3.1950258751213547,0.5171458780933171
1761481566009158000,1.467157958984375,-1.0736039220079778,-2.181004899677634,0.47045145653355863
1761481566029100800,1.487100830078125,2.0776316189646717,-0.6647673927903175,-0.8757114059060811
1761481566049044000,1.5070439453125,4.624950541689992,1.5543676233172417,-1.978493491603434
1761481566068985900,1.52698583984375,4.625582702113688,3.798064249229431,-1.580035879189521
1761481566088929000,1.546928955078125,2.9577345378279682,5.471625822725891,-0.7158801787815988
1761481566108872000,1.566871826171875,2.283371633696556,6.308482889580726,-0.8241302717506885
1761481566128813800,1.586813720703125,2.980025280091166,6.612510260063409,-1.212273410899192
1761481566148756700,1.6067568359375,4.042444668000936,7.084583582177758,-0.5739996919546276
1761481566168699000,1.626698974609375,4.67487981698513,7.397895498356223,0.3193916744835675
1761481566188641800,1.646641845703125,4.872237787818908,6.786562758633494,0.29017032923959196
1761481566208584700,1.666584716796875,4.456384365576505,5.28982840911746,-0.5745645592957734
1761481566228526800,1.68652685546875,3.2149279686823484,4.227673809623718,-2.2941057936787606
1761481566248469800,1.7064697265625,0.6374483009710907,2.6001164469331504,-2.8902760355830193
1761481566268413200,1.7264130859375,-0.8847679880648851,1.2217384277284145,-1.2863397869765758
1761481566288355300,1.746355224609375,-0.24201222833544014,-0.25747254005670545,-0.2298637445759028
1761481566308298200,1.76629833984375,0.016116437542438505,-1.0660364093631505,-1.6672174651667475
1761481566328240400,1.786240478515625,-1.7778087144345045,-1.7546756761282682,-2.023939776265621
1761481566348183300,1.806183349609375,-3.613993922252953,-1.5361322939246893,0.4837832683261484
1761481566368126500,1.82612646484375,-3.470138993547857,-2.8543992510378358,5.1694408652395
1761481566388068400,1.846068359375,-0.7041942710325122,-2.9246272179961204,3.939127501389384
1761481566408011500,1.866011474609375,0.6254430981397628,-5.418268911069632,1.7044339738830923
1761481566427954400,1.885954345703125,-2.595967510560155,-8.2752733761698,1.9794518152415752
1761481566447896300,1.905896240234375,-6.773563576328754,-7.52026340239644,1.0677940666854382
1761481566467839200,1.925839111328125,-7.613826067712902,-5.0570519189000125,-0.40784715285412965
1761481566487781400,1.945781494140625,-5.218023986622691,-4.121542170113325,-0.05962832007594406
1761481566507724300,1.965724365234375,-0.8873691104739904,-3.3242835386753082,-0.6732046740069985
1761481566527667200,1.985667236328125,1.648622362551093,-2.557805245426297,-1.4886296612545846
1761481566547609300,2.005609375,1.3001058620005845,-0.32828970507979394,-0.8473355715755373
1761481566567552300,2.02555224609375,-0.03108838122487068,1.4778180521219968,0.04183613134101033
1761481566587495400,2.045495361328125,-0.6398825423806905,2.763904741120338,-0.23848894958011804
1761481566607437300,2.065437255859375,-0.09998013114333153,3.0740976484954357,-0.5653042712584138
1761481566627380500,2.08538037109375,0.40536768406331536,3.3522149171739817,-0.4650765950948
1761481566647323400,2.105323486328125,2.2628981699883934,3.657890639385581,-0.6644200406573713
1761481566667265500,2.125265625,4.264238576433062,3.481494792559743,-0.7440202315948903
1761481566687208400,2.14520849609375,5.114076120892167,2.9358482847124336,-0.7057656850676983
1761481566707150300,2.165150390625,3.091211280381679,1.8295020767927168,-0.7911654291294514
1761481566727093200,2.18509326171875,-0.20412848788201807,0.8222399279594421,-0.3456101846497506
1761481566747036400,2.205036376953125,-1.8996207381576298,0.7065197913706303,0.30387716662334274
1761481566766978300,2.224978271484375,-0.6511831040740013,0.04209960458278656,1.1810500051178037
1761481566786921200,2.244921142578125,0.6879197203189135,-0.6589321107655763,-0.17358636062936855
1761481566806864400,2.264864501953125,0.9175871386051178,-0.6814093155115842,-1.5551092354647815
1761481566826806300,2.28480615234375,0.11969371639490127,-0.5100824425131082,-0.41740035942345854
1761481566846749200,2.304749267578125,0.5571148273229599,-0.4089046260178089,1.2301974823854862
1761481566866691300,2.32469140625,1.4608493816643953,-0.6776356421917676,0.39209034240432084
1761481566886634200,2.34463427734375,1.3187351591467857,-1.4223217903494834,-0.7634951127197593
1761481566906577400,2.364577392578125,-0.07821253597140311,-1.5379185928195713,-0.6632420829191804
1761481566926519300,2.384519287109375,-1.792093260374665,-0.7907932348161936,-0.114704036615137
1761481566946462500,2.40446240234375,-2.6841473137944933,0.19271394442021847,-0.13225684536993504
1761481566966405400,2.4244052734375,-2.496101945707202,1.3692507098972797,-0.67783401430808
1761481566986347500,2.444347412109375,-0.6484113012731075,1.9572481667399406,-0.9574329729117452
1761481567006290400,2.46429052734375,1.7198106989741324,2.601629189583659,-1.2545453033089637
1761481567026232300,2.484232421875,3.148288673865795,3.378354151558876,-1.021129565339908
1761481567046175200,2.50417529296875,3.4228631553709503,4.18807595872879,-0.4529309608794749
1761481567066118100,2.5241181640625,3.5209734009891744,4.942896547409892,-0.2704593560702167
1761481567086060300,2.544060302734375,3.563371696257591,5.395896335741877,0.16940302879642694
1761481567106003200,2.564003173828125,3.473155418759584,5.394997925597429,1.1772463750511408
1761481567125946400,2.5839462890625,4.128111027109623,4.458843449166417,2.289268582780659
1761481567145888300,2.60388818359375,5.041880068731308,2.5230402215152976,2.1712864926092323
1761481567165831400,2.62383154296875,5.438888505250215,1.596840737387538,-0.052551732753217215
1761481567185774300,2.6437744140625,2.181847780242562,0.07568330975472927,-0.14036675779577343
1761481567205716500,2.663716552734375,-1.4797919825434684,-2.4682407098352908,2.4596438541427252
1761481567225659400,2.683659423828125,-4.992679692232609,-5.79509556030333,2.8389608588874338
1761481567245601500,2.7036015625,-7.918709762763976,-5.709636706465482,-1.7017293910995124
1761481567265544700,2.723544677734375,-8.242280038106442,-7.525247036027908,0.4546883624734357
1761481567285487600,2.743487548828125,-5.037537071090936,-9.475528870886563,5.935057573223114
1761481567305429800,2.7634296875,-0.9961614936262368,-9.322019394129514,5.789106549021601
1761481567325372700,2.78337255859375,-0.7119424009412527,-9.091000561234354,2.9503599174067374
1761481567345315600,2.803315673828125,-6.7996998881042,-7.086559266164898,-1.656568499249965
1761481567365257500,2.823257568359375,-9.75208020542264,-3.435846555584669,-3.370442647781968
1761481567385200400,2.843200439453125,-6.548897911852598,-0.7194874094933271,-1.7614079069927333
1761481567405143600,2.8631435546875,-0.615987287530303,0.2130243265211582,-0.519588814266026
1761481567425085400,2.88308544921875,3.1164965282857415,2.7545032910466194,-0.5863865145146846
1761481567445028600,2.903028564453125,2.8532383905649183,4.718634787559509,0.4703972786609083
1761481567464970500,2.922970458984375,3.1574516390085217,6.51026978277266,0.8910120700862258
1761481567484913700,2.94291357421875,3.941150531649589,7.316845693132281,0.1540087315160781
1761481567504856600,2.962856689453125,4.475824394583702,7.143676991659403,-1.9147548866644502
1761481567524798700,2.982798828125,5.508943453729152,6.5457368174731725,-4.565810370457172
1761481567544741600,3.00274169921875,6.291612418800592,6.024004853698611,-5.300766567239165
1761481567564684500,3.0226845703125,6.219154500833153,5.560212453195453,-4.0155993311733
1761481567584626700,3.042626708984375,3.786336986556649,5.252036730861663,-1.8849243965461848
1761481567604569600,3.062569580078125,1.2159142516195773,4.469575855582952,-0.8914392825223505
1761481567624512800,3.0825126953125,-0.22829905254244803,2.0569348678946495,-1.192637713189423
1761481567644454400,3.102454345703125,0.348875396990776,-1.6618278810828924,-0.5764219506654888
1761481567664397600,3.1223974609375,0.7123419216528535,-3.919485227808356,0.24311807068549096
1761481567684339500,3.14233935546875,-1.5804326234221457,-4.360093736600875,1.335132605587691
1761481567704282600,3.16228271484375,-3.9258500866651533,-7.453948809489607,3.5930636546880006
1761481567724225500,3.1822255859375,-2.696315890493989,-11.146323902279137,3.4465871453076597
1761481567744167700,3.202167724609375,-1.233669688540697,-12.700875065469742,0.8501864309620112
1761481567764110600,3.222110595703125,-1.4136346260249615,-12.495712558364868,-1.5820958804592489
1761481567784053500,3.242053466796875,-3.8411563719809054,-11.021620833289623,-2.367921263734996
1761481567803995600,3.26199560546875,-5.691975962090492,-8.536627726095915,-1.6617106844440102
1761481567823938600,3.2819384765625,-5.09139141087532,-5.339883356618881,-0.30105259245559574
1761481567843880700,3.301880615234375,-1.5438336620822548,-3.005451982292533,0.15694423697870225
1761481567863823600,3.32182373046875,0.8937386455059051,-0.4349842391699552,-1.0289562403775752
1761481567883766500,3.3417666015625,1.4283645776450633,2.52939514349997,-1.237657004611194
1761481567903708700,3.361708740234375,1.9447735928311942,6.057310326451063,-0.9048407620176673
1761481567923651600,3.381651611328125,2.2315444158256055,8.737259019511937,-0.5262662462033331
1761481567943594800,3.4015947265625,2.8803377021536227,9.656509122893214,-0.8659617999818175
1761481567963536400,3.421536376953125,4.1699750693708655,10.040581505471467,-1.0736364360380917
1761481567983479600,3.4414794921875,4.908717798954248,10.740498537576197,-0.6636296209320426
1761481568003422500,3.46142236328125,5.095768310785293,11.010369955956936,0.7213680356081574
1761481568023364600,3.481364501953125,4.334407798941434,10.446271261096,1.9965395820342002
1761481568043307500,3.5013076171875,3.369446622481942,9.196556446683406,0.8315109565865247
1761481568063250400,3.52125048828125,2.267515600655973,7.811313802406191,-1.2764897163525224
1761481568083192600,3.541192626953125,1.2677034755676984,6.402849857017397,-1.8940353392407296
1761481568103135500,3.561135498046875,1.9254960609093308,4.198152531585097,-0.18834961173087358
1761481568123077600,3.58107763671875,2.8695623333781954,1.9019950660735367,0.8649616830285638
1761481568143020500,3.6010205078125,0.08560498431026935,-1.5926070453405379,0.46649347615540027
1761481568162963700,3.620963623046875,-3.091254827262461,-5.561233028414845,-1.86068836543411
1761481568182905600,3.640905517578125,-3.554682486106455,-5.9850400400102135,-3.6497985183447597
1761481568202848800,3.660848876953125,-1.963019443617761,-5.583741797342896,0.8241994645293802
1761481568222791700,3.680791748046875,1.481843946637213,-6.7506041410237545,5.840100238677859
1761481568242733600,3.700733642578125,2.1334148809850215,-8.37822054042518,4.631727488479018
1761481568262676700,3.7206767578125,-0.713006815302372,-8.920569760292768,0.9878810104064643
1761481568282619600,3.74061962890625,-4.398163647276163,-9.492714398965239,-0.4998658766642213
1761481568302561800,3.760561767578125,-6.720237644332647,-9.63711760920286,1.6459442293830215
1761481568322504700,3.780504638671875,-6.373019951421022,-6.814045224320888,0.6533379440203309
1761481568342446800,3.80044677734375,-2.8677684356987476,-4.361144706958532,-1.4246459955133497
1761481568362389800,3.8203896484375,1.2535405101805925,-2.537342887634039,-1.2622615767747163
1761481568382333000,3.8403330078125,4.044064378157258,-0.48835576387345786,-0.2891277613840997
1761481568402274800,3.86027490234375,3.9293300377354026,2.0163059203863143,-0.14602259160038084
1761481568422217700,3.8802177734375,2.728564547669887,3.887084594941139,-0.6607937399189919
1761481568442161000,3.900160888671875,1.52007313952744,4.291103787004947,-0.7971546596068888
1761481568462102500,3.9201025390625,1.2423749730437994,4.14516328419745,-0.16029520964073016
1761481568482045700,3.940045654296875,1.6677262914717197,4.6126469404339785,0.22901264417190104
1761481568501988600,3.959988525390625,2.2045137855589387,5.155983417773246,0.5054690669661388
1761481568521930800,3.9799306640625,2.3623463862121103,5.573095315644145,0.5603898304056376
1761481568541873700,3.999873779296875,2.076038796815276,5.363537203928828,-0.1932789030929096
1761481568561816600,4.019816650390625,1.930754712089896,4.911816934013366,-1.2386628206528723
1761481568581758700,4.0397587890625,1.6711755551427603,4.538210415869951,-2.154629080057889
1761481568601701600,4.05970166015625,2.8258821816056967,3.852427123057842,-1.8063615858323872
1761481568621643800,4.079643798828125,2.2528204280883073,2.9151614705145357,-0.45225857804324476
1761481568641586700,4.099586669921875,-0.3955515157088637,0.28690906242132186,1.0149943505205214
1761481568661529900,4.11952978515625,-4.052288016623258,-3.175782829990983,0.15425669666146857
1761481568681471700,4.1394716796875,-4.881659988419711,-6.066613576847314,-1.5915122358411549
1761481568701415000,4.159414794921875,-5.125722135022282,-7.648117628893256,-1.007674602091685
1761481568721357800,4.17935791015625,-7.610937945055961,-7.265992873251438,3.6641184278592465
1761481568741300000,4.199300048828125,-5.224504580813646,-7.4688833437710995,6.426560402950644
1761481568761243000,4.219242919921875,-0.5374883358329534,-8.007413297611475,2.9588384074166414
1761481568781185800,4.239185791015625,-1.623952323935926,-9.725535897368193,-2.451393619930744
1761481568801127700,4.259127685546875,-6.133361300474405,-9.514315405398607,-4.2029955877020955
1761481568821070600,4.279070556640625,-7.271462244573235,-6.521245350295305,0.8541722126625477
1761481568841013800,4.299013671875,-3.402212289269268,-2.428053076353669,3.554813419009745
1761481568860955600,4.31895556640625,1.5656223000422118,0.34219606535732744,2.2064752948902546
1761481568880898800,4.33889892578125,4.706026065877079,1.5357061774671077,-0.5696566212490201
1761481568900840700,4.3588408203125,4.70259316881895,3.560503447344899,-2.641867091947794
1761481568920784000,4.378783935546875,3.8584944602727886,5.731430020600557,-2.108946502421796
1761481568940726800,4.398726806640625,2.526004624278843,7.847271250972152,-0.09696673813890665
1761481568960669000,4.4186689453125,1.4141732629463075,9.188801594772935,1.6113595304749906
1761481568980611800,4.43861181640625,1.7221438180968165,9.607924832466244,1.4188234268397093
1761481569000554800,4.4585546875,4.021215709750354,9.557543137228489,0.20332959258928893
1761481569020497000,4.478496826171875,6.648109981232881,9.282979177117348,0.2023929693263024
1761481569040439800,4.498439697265625,6.665089173084497,8.549533969420194,0.5046705004669726
1761481569060382700,4.5183828125,3.358936918905377,7.553959920293092,-0.2552751761429012
1761481569080324600,4.53832470703125,-0.4015335127279162,6.314220556449889,-1.3146319616116582
1761481569100267800,4.558267822265625,-1.996306211669743,4.6592631456583735,-2.5117802840933203
1761481569120210700,4.578210693359375,0.17352306786850094,2.801512879502773,-1.8094485920622945
1761481569140152600,4.598152587890625,2.6425334469020365,1.2739829942286014,-1.2862703750021756
1761481569160095700,4.618095703125,2.77794495691061,-0.9864905789613723,-1.294141546768695
1761481569180038700,4.63803857421875,-0.11138210738450288,-3.1140982349723574,-0.9965714626666158
1761481569199980800,4.657980712890625,-4.878367668876051,-4.452773773863911,-0.4576314667206257
1761481569219923700,4.677923828125,-7.549989847618341,-4.4968683516561985,0.023239640485867855
1761481569239865900,4.697865966796875,-3.484435522186756,-6.259952959689498,2.005144474902749
1761481569259808300,4.717808349609375,3.3521903672546145,-8.146710709142685,2.8161972384154796
1761481569279751400,4.73775146484375,4.51258848335743,-8.918505228978395,1.1527874219033867
1761481569299693000,4.757693115234375,0.23130875575244425,-10.14121162495613,0.956702978136763
1761481569319636200,4.77763623046875,-3.824513280215859,-10.004905796456336,0.5750216188808903
1761481569339579100,4.7975791015625,-5.832734678345918,-7.533453138837218,-0.28150102936532345
1761481569359521000,4.81752099609375,-2.900122014553845,-4.3251597858637565,0.5075202638749033
1761481569379464200,4.837464111328125,2.112275354583561,-1.4393693712621927,2.3590774475440384
1761481569399407000,4.857406982421875,4.772664483910798,0.6637520782679319,2.2390533301509916
1761481569419349200,4.877349365234375,4.820829087620973,1.914805447807908,0.16509736749175935
1761481569439292200,4.897292236328125,3.2611130890130995,2.9690462054371833,-1.371726744621992
1761481569459235000,4.917235107421875,1.795678133124113,4.738944585138559,-1.0954505737654865
1761481569479177200,4.93717724609375,1.1548293760597705,6.3634203484267,-0.03256836325009353
1761481569499120000,4.9571201171875,0.1749763354167342,7.495914558559655,0.8101739348515867
1761481569519063300,4.977063232421875,0.33783640884310007,7.574554964554309,0.7682873154323547
1761481569539005200,4.997005126953125,1.8031500764399766,7.565478508651256,0.16813302712691947
1761481569558948400,5.0169482421875,3.351648515462875,7.903190122070908,-0.3807439688079059
1761481569578891300,5.036891357421875,3.530253270509839,7.211503158172965,-0.5503992553323507
1761481569598833400,5.05683349609375,0.9834300223469734,5.612347129580378,-0.14073135332446546
1761481569618776300,5.0767763671875,-2.4760914233356712,4.101732723271846,-0.1661621837116778
1761481569638719200,5.09671923828125,-4.706462411467731,1.1869377479821444,0.32492943486645814
1761481569658661000,5.1166611328125,-2.478985975733399,-1.6383225023329258,-0.17517291743475943
1761481569678604000,5.13660400390625,0.619987755343318,-2.90001007861197,-0.11143339918032288
1761481569698546200,5.156546142578125,-1.2045780340909957,-5.569769386091828,1.7515958302915096
1761481569718489000,5.176489013671875,-3.061224722918868,-8.835638145199418,2.3062582960262894
1761481569738432300,5.196432373046875,-4.359689247453212,-8.972985591706633,1.1820061367988586
1761481569758374100,5.2163740234375,-3.3456296935647725,-9.120311995914578,0.4352685360040515
1761481569778317300,5.2363173828125,-0.08653174376636744,-9.069960111293197,0.1438850681150332
1761481569798260200,5.25626025390625,1.9936200413256882,-8.66658915400505,-0.0970865651262924
1761481569818202400,5.276202392578125,-0.1315767541512847,-6.726951462757587,-0.41469405960682776
1761481569838145300,5.296145263671875,-2.6410540219992398,-4.839719666051864,-0.27649986007716504
1761481569858088200,5.316088134765625,-3.0132611947387455,-2.4390128617852924,0.31485220442302525
1761481569878030300,5.3360302734375,-0.2294742338016629,-0.695574618986249,0.5167305752906948
1761481569897973200,5.35597314453125,1.7164266094937919,0.4205541472792625,-1.9804767743751406
1761481569917916400,5.37591650390625,2.555238902069628,1.6472580884605645,-4.035418130365014
1761481569937858000,5.395858154296875,3.4285639973610635,3.362840356084704,-3.965152461744845
1761481569957801200,5.41580126953125,3.864197640350461,5.408957477366924,-2.677087458410859
1761481569977744100,5.435744140625,3.7534424326926468,6.844609873932599,-0.7678558652125298
1761481569997686300,5.455686279296875,2.7534657646924257,7.340411862158775,0.5522074737980961
1761481570017629200,5.475629150390625,2.4810303410425782,7.411525379779935,0.21226220130855217
1761481570037572000,5.495572021484375,3.0317998909920454,7.135992866897583,-0.7206006314322352
1761481570057514200,5.51551416015625,3.519404251976311,7.16995943390727,-0.8609266553588211
1761481570077457200,5.53545703125,3.267952871905267,6.627992491355538,-0.12143234022315591
1761481570097400000,5.555400146484375,2.847076653064787,5.856615904670954,-0.4312428241519257
1761481570117342200,5.57534228515625,2.4431886861652132,4.999213477915525,-0.09666896076872944
1761481570137285000,5.59528515625,1.8853937676236032,3.655615095669031,0.9194520556941628
1761481570157228300,5.615228271484375,1.4418959671303628,0.9704542209178209,0.38479971047211436
1761481570177170200,5.635170166015625,-0.31990824570357795,-3.0172955648213624,-1.9350807585954666
1761481570197113300,5.65511328125,-4.153216826793551,-4.737908227828145,-3.642914311788976
1761481570217056300,5.67505615234375,-6.053681030037999,-4.24775622818768,-1.4438390640221535
1761481570236998400,5.694998291015625,-5.00860323755145,-3.912032573714852,0.5565582163535058
1761481570256941300,5.71494140625,-2.8887779059797523,-4.878571667015552,0.6394722810793667
1761481570276884700,5.734884765625,-0.3302130743578076,-7.322164842328429,1.5418611929655075
1761481570296827000,5.754826904296875,0.43735330638885495,-8.472203476980328,1.9486632937461137
1761481570316769800,5.774769775390625,-1.8388561805933712,-8.34114548600614,1.5210829010918736
1761481570336713000,5.794712890625,-4.622685519367456,-8.803663044267893,1.5643741996772587
1761481570356654800,5.81465478515625,-5.723986718857288,-7.571302100238204,0.8217769866228103
1761481570376597800,5.83459765625,-6.127972593173384,-3.836313608124852,-0.06380799864707515
1761481570396540000,5.854539794921875,-3.7515526734232902,-0.5399918430864811,-0.6468132184267044
1761481570416482800,5.87448291015625,0.5462032649472356,1.2920534884482622,-0.3188607094120234
1761481570436426000,5.894426025390625,3.6893016766935585,2.4915011739134787,-0.20971140258088708
1761481570456367600,5.91436767578125,4.75904804649055,3.885241597422957,-0.7303240800019353
1761481570476310800,5.934310791015625,4.712257946003973,4.861642744046449,-1.1106913975171744
1761481570496253700,5.954253662109375,4.148350682061911,5.044563608726858,-1.6935460846439003
1761481570516195800,5.97419580078125,2.5677263354599473,4.645276705881953,-1.5255381269350647
1761481570536138800,5.994138671875,0.4983458274900913,5.172110376709699,-0.16012622801568357
1761481570556081700,6.01408154296875,1.033694520945847,5.68750320059061,0.7621667136602103
1761481570576023800,6.03402392578125,3.5678146471410987,5.46552984393835,0.6799455265693366
1761481570595966700,6.053966796875,6.208106452596187,5.520705203193426,0.27924068321790546
1761481570615910000,6.073909912109375,5.113797303950786,4.736373857867718,-0.49063072306811806
1761481570635851800,6.093851806640625,0.9466326158255338,3.1710791823446747,-1.0400619370859117
1761481570655795000,6.113794921875,-3.0117665722668168,1.7224655973970888,-0.16248674660194665
1761481570675737900,6.13373779296875,-2.9047368148729205,-0.2166892787694931,1.1857652701366692
1761481570695680000,6.153679931640625,1.316686409923434,-2.2595868534833192,1.1974219517912714
1761481570715623000,6.173622802734375,2.5631939527273175,-3.157843268674612,-1.552330272270739
1761481570735565800,6.19356591796875,-0.30690204913616176,-4.059255517548323,-2.802515334543586
1761481570755508000,6.213508056640625,-3.2483398244187236,-5.165016619056463,-1.3591475412949918
1761481570775451000,6.233450927734375,-3.5431554221808907,-5.9765972058355805,-0.7574395390078424
1761481570795394000,6.25339404296875,0.2066474849656224,-6.728622026318312,0.46270365541838104
1761481570815335700,6.273335693359375,1.5510776418611407,-6.4158958010733125,1.9980396113336085
1761481570835278800,6.29327880859375,-1.1024950854495168,-5.136400765424966,2.8204163174152375
1761481570855221800,6.3132216796875,-3.7534634754806753,-4.655174415040016,3.0985327093109487
1761481570875164000,6.333163818359375,-3.50136269159019,-4.49641826980114,2.058578835709393
1761481570895106800,6.35310693359375,-1.7583727770805357,-2.9487855076968668,-0.5013294829433783
1761481570915049700,6.3730498046875,1.2038158175468443,-0.9594342297315597,-1.3897121909067034
1761481570934992000,6.392991943359375,2.5040239708781242,0.7653250315606593,-1.560701356383413
1761481570954934800,6.412934814453125,1.8997481639295815,2.5083909339159725,-1.5558536240912972
1761481570974878000,6.4328779296875,0.6810632785528898,4.3017362401783465,-1.3461631181679665
1761481570994820900,6.45282080078125,0.4646043014079332,5.636507172846794,-0.7363106070656329
1761481571014762800,6.4727626953125,0.8030424755364656,6.031528819462657,-0.17519105587964875
1761481571034706000,6.492705810546875,1.7409274290218948,6.224688169562817,-0.6750417532410472
1761481571054648800,6.51264892578125,2.233525945031643,6.622408553743362,-0.4825093759328127
1761481571074591000,6.532591064453125,2.468435940146446,6.46140784444809,0.8538684804756194
1761481571094534000,6.552533935546875,3.01114522549808,4.409944101440907,1.6437528568185864
1761481571114476800,6.572476806640625,3.4816111124157905,3.3447190084606406,0.21147125186026094
1761481571134418700,6.592418701171875,1.101685230371356,2.89167245837748,-0.4370215171512216
1761481571154361600,6.612361572265625,-2.9652865606427192,1.3956728528767823,1.3596429235965013
1761481571174304800,6.6323046875,-3.7127544484734534,-0.6671598408848047,1.8320368559673428
1761481571194246700,6.65224658203125,-0.8555220198363065,-1.3474287541896104,-0.6602789953298867
1761481571214189800,6.67218994140625,1.289149583700299,-3.4186814857721326,-0.9839479087412357
1761481571234132700,6.6921328125,0.03801204300820827,-4.478654065051675,0.4133357403330505
1761481571254075000,6.712074951171875,-2.9022929288521406,-3.9519986734002828,2.1728414669662715
1761481571274020400,6.732020263671875,-4.373295455740392,-4.734631398114562,2.669920635521412
1761481571293963500,6.751963623046875,-2.7031647334754467,-6.2800277794688935,1.7945223872177303
1761481571313905400,6.771905517578125,-0.20851386335939168,-6.059112991958856,1.2381062096834181
1761481571333848600,6.7918486328125,1.3422455063328147,-5.584995012274384,1.0430320389378815
1761481571353791500,6.81179150390625,1.7798206387788056,-5.167060692104697,0.8716687063865363
1761481571373733400,6.8317333984375,1.0151856353089213,-3.7721997401326894,-2.22144139335379
1761481571393676300,6.85167626953125,0.038785949990153314,-1.6510568962216376,-3.872718800458312
1761481571413619200,6.871619140625,0.9411626599818468,1.1998258711278438,-2.4208595115877687
1761481571433561300,6.891561279296875,1.3057102578788995,1.3197469665378332,0.17869838814716785
1761481571453504300,6.911504150390625,1.3195359541356564,0.43469139370322224,-2.6360969841137525
1761481571473447400,6.931447509765625,1.4302353399530052,0.5020318225264548,-5.572222039940953
1761481571493389300,6.951389404296875,1.6447893602594732,2.6859336126893756,-5.878633675211668
1761481571513332500,6.97133251953125,1.649810403291881,4.428004658788442,-3.416914768360555
1761481571533275400,6.991275390625,1.6592890102550386,6.1612833266228435,-1.1452616295084357
1761481571553217500,7.011217529296875,1.695594541606307,6.559940699392556,0.5556250271566212
1761481571573160400,7.031160400390625,2.2515692589834333,6.268001826110482,0.6146920600879937
1761481571593103400,7.051103271484375,2.958499384720623,4.654523842176795,0.3403602282322943
1761481571613045500,7.07104541015625,2.6190187158018348,3.5235815376609563,-0.7403451232787222
1761481571632988400,7.090988525390625,0.7667629554092884,4.037466879588365,0.30095950734466315
1761481571652931300,7.110931396484375,-0.5969307048827409,4.495762436240911,2.7080101276800033
1761481571672873500,7.13087353515625,-1.5670231067508458,2.605088390126824,4.334389094240963
1761481571692816400,7.15081640625,-1.7066662629798053,0.2616448573052883,1.5840312324360013
1761481571712759600,7.170759521484375,-1.7237968460008501,-1.9867969173073767,-1.7734025884300468
1761481571732701200,7.190701171875,-0.8606456464603542,-2.6404560561060904,-1.7599505477912722
1761481571752644400,7.210644287109375,-0.9513453235611319,-2.4490818358570334,1.6144608574911952
1761481571772587300,7.230587158203125,-2.6582909880042074,-2.7173738760918376,3.8426851889833804
1761481571792529400,7.250529296875,-3.0080525201797483,-4.653464688512683,4.349785400815308
1761481571812472300,7.270472412109375,-0.9185138980612159,-5.930726266020536,2.310809675720334
1761481571832415200,7.290415283203125,1.2834265298783778,-6.648290598496795,1.7067869667500257
1761481571852357400,7.310357421875,1.997262781742215,-6.520295502224564,2.446933571781963
1761481571872300300,7.33030029296875,1.2309531230583786,-4.979822548747062,3.6620997815132137
1761481571892243500,7.350243408203125,-1.0750874385640024,-2.509872696906328,1.7862810669645666
1761481571912186400,7.370186279296875,-1.677725707438588,-1.4350497544974088,-1.4591276724383233
1761481571932128500,7.39012841796875,-0.9983034740909933,0.3106283761829138,-2.1376506188586353
1761481571952071400,7.410071533203125,-0.5353405101493001,1.5612848553597927,-0.9000399376071989
1761481571972014300,7.430014404296875,0.28587445867657657,2.9869577097028492,-1.4241452063843607
1761481571991956500,7.44995654296875,1.3052049387052655,3.8213743976682424,-1.850112757014483
1761481572011899400,7.4698994140625,2.339892270080745,3.883207461246848,-1.7137915848150849
1761481572031842600,7.489842529296875,2.592341136756539,4.336953684031963,-1.3954479580797254
1761481572051784200,7.5097841796875,2.7822932152479884,4.768824759617448,-1.3913666801154612
1761481572071727400,7.529727294921875,3.0182652866363524,5.217245987987518,-1.284148852803558
1761481572091670300,7.549670166015625,2.6067139455020425,5.409454320973158,-0.860947405885905
1761481572111612400,7.5696123046875,1.999519620758295,5.083424377518892,-0.28140155104622244
1761481572131555300,7.589555419921875,1.8092182904377578,4.5489667876839635,-0.1008021881159395
1761481572151498200,7.609498291015625,1.3572177422761917,4.614685752785205,-0.5367542494047433
1761481572171440400,7.6294404296875,0.7796516630768775,3.550926640704274,0.0866651608876884
1761481572191383300,7.64938330078125,0.020943711568415162,0.34567630868852134,1.28405182216987
1761481572211326500,7.669326416015625,-1.1384402590557932,-2.2227005996346474,0.41680224739983673
1761481572231268400,7.689268310546875,-1.2168944948285818,-2.3167706299513577,-0.9145005707666277
1761481572251211500,7.70921142578125,-0.5455927318334579,-3.025836014151573,0.09473083231300115
1761481572271154700,7.72915478515625,-0.3461678915977478,-4.089169594296813,-0.19785452217906713
1761481572291096600,7.7490966796875,-0.929136706623435,-5.041290286144614,0.2386202478095889
1761481572311039700,7.769039794921875,-1.2621785746663807,-5.912878474640846,2.3474220810636877
1761481572330982700,7.788982666015625,-1.0144131896317004,-6.381302042075991,2.3083675432652235
1761481572350925600,7.808925537109375,0.30176848563998937,-6.963066742008924,0.8060190071292221
1761481572370867500,7.828867431640625,1.0664014432832598,-7.076185171666741,0.20859014346599578
1761481572390810400,7.848810302734375,0.7185352233350276,-5.343726003521681,-0.21182174579836427
1761481572410753500,7.86875341796875,-0.9027093029469251,-3.0161446412205692,-2.714055253063142
1761481572430695400,7.8886953125,-2.632964823567867,0.3604536065816879,-4.055026209415495
1761481572450638600,7.908638671875,-4.001553854686022,2.434324411708116,-2.3410734426893294
1761481572470581500,7.92858154296875,-3.1003906121373173,2.579914785903692,-0.09587631255369633
1761481572490523600,7.948523681640625,-1.615572910386324,2.2673855445355175,-0.8908608981125056
1761481572510466600,7.968466552734375,0.39983459985554215,2.3518127172380683,-2.469334934812784
1761481572530409500,7.988409423828125,1.921439186733961,3.3831238501787184,-2.4764661018669605
1761481572550351600,8.0083515625,1.8918062650144098,4.804759996351599,-0.6629751756113023
1761481572570294500,8.02829443359375,2.0240210248082877,5.670713978353143,0.27157851455956694
1761481572590237700,8.04823779296875,1.95337892409116,5.4837710185498,0.7677433447487652
1761481572610179600,8.0681796875,1.8628060882404445,4.755702827715873,0.4222364012777805
1761481572630122800,8.088122802734375,2.5782278557300566,4.6091041532605885,0.1433888455633074
1761481572650065700,8.108065673828126,3.2907240911617874,3.919666429594159,0.4627456679292023
1761481572670008600,8.128008544921874,2.1752847684651613,2.57879893361628,0.6150920191910118
1761481572689950700,8.14795068359375,-0.590716360412538,2.467167527645826,1.9327698513045906
1761481572709893600,8.1678935546875,-2.575074944657087,2.3521131614893673,3.508755432190001
1761481572729836800,8.1878369140625,-0.8964707008183002,-0.20293781679272652,0.847838698792085
1761481572749778400,8.2077783203125,1.5812778420746325,-3.202313694041967,-2.8574609766960144
1761481572769721600,8.2277216796875,1.44470839420259,-3.872828106051683,-1.7659701003417372
1761481572789664500,8.24766455078125,-0.2687593654856086,-3.2776310930937527,3.7197672498449683
1761481572809606700,8.267606689453125,-0.38103257649093863,-3.338121509891748,5.843351933950186
1761481572829549600,8.287549560546875,0.860465321457386,-5.762590298017859,2.771615169367194
1761481572849492500,8.307492431640625,2.4490169539272784,-7.805539310657978,-0.25731157734133303
1761481572869434600,8.3274345703125,0.22025661586225032,-7.507330855587124,1.0594831883274018
1761481572889377500,8.34737744140625,-3.5291929478019473,-6.223501005604863,0.7117850184224546
1761481572909320700,8.36732080078125,-5.932219719448685,-5.173298125189542,-1.6575412898048758
1761481572929262600,8.3872626953125,-5.1905882826864715,-4.19497623963654,-4.002443497002124
1761481572949205800,8.407205810546875,-2.504691787137091,-1.4340245031028984,-2.7877088105559347
1761481572969148700,8.427148681640626,0.2714323840871453,0.9528010753273963,0.5986513911955058
1761481572989091600,8.447091552734374,2.6585186592802406,2.896234651726484,1.2225520821988582
1761481573009033700,8.46703369140625,3.784018188220262,3.797373928877711,0.4830623701730743
1761481573028976600,8.4869765625,3.7210984984487294,3.8159091179996727,-1.4329476676516235
1761481573048919600,8.50691943359375,1.6592571538120506,4.391868346524238,-1.5588646424755452
1761481573068861400,8.526861328125,-0.38868046089559793,5.199828404718637,-0.3669474986456334
1761481573088804600,8.5468046875,0.08080635185688734,5.469434450161457,-0.10380356188900768
1761481573108747500,8.56674755859375,2.185498119443655,5.232426021462679,-1.1950050999078898
1761481573128689400,8.586689453125,3.6642081519693135,5.530213036251068,-1.6228705200485884
1761481573148632600,8.606632568359375,2.9067428939983246,6.159118257543445,0.22967983937636016
1761481573168575500,8.626575439453125,1.9643898551881311,6.088598029640317,1.4789390189759433
1761481573188517600,8.646517578125,1.4788912343114613,4.038930522400141,1.6266010848790406
1761481573208460500,8.66646044921875,1.3193646892219781,0.8099848420202732,-0.11448613781444728
1761481573228403500,8.686403564453125,1.0045809469252824,-0.9228893366664648,-1.1638405116416513
1761481573248346600,8.7063466796875,-0.1382818047478795,-1.6093027440756558,0.8393250644035637
1761481573268286700,8.72628662109375,-0.351354062063992,-1.8085142338216305,1.9033423890292644
1761481573288229600,8.746229736328125,-0.9674714057147502,-2.6534552384108303,0.9660396924111991
1761481573308172800,8.7661728515625,-1.8702254245862364,-4.216775398990512,0.6370473920200019
1761481573328114700,8.78611474609375,-1.2373843251496552,-5.717251857644319,0.30346823876257983
1761481573348057900,8.806057861328124,0.4980936062946915,-6.668614424601197,0.5718908465744927
1761481573368000800,8.826000732421875,1.5139935273528098,-7.644536263275146,0.7874414401702582
1761481573387943000,8.84594287109375,0.6752323804423213,-7.9656451169401405,0.2203969376483932
1761481573407885800,8.8658857421875,-1.1032198925927281,-7.487676307046413,0.10148332051420583
1761481573427828700,8.885828857421876,-1.7479829004913567,-7.096113860973715,-1.0686661002796143
1761481573447770600,8.9057705078125,-1.156342995493114,-5.830541552215815,-2.3060510830163956
1761481573467713500,8.925713623046875,0.3064589815437794,-3.3401521389365194,-1.9479281113393603
1761481573487656700,8.94565673828125,1.6000971088349818,0.38173137241005894,-0.29192153855478387
1761481573507600000,8.965599853515625,1.0950976686745881,3.210931884783506,1.5572864333733916
1761481573527541800,8.985541748046876,0.5584799781963229,3.5328368572622537,0.9155447460573166
1761481573547484700,9.005484619140624,0.7393383573889732,2.065057384073734,-2.1451279690019787
1761481573567427600,9.025427490234375,2.0090578489542006,2.0232903724461795,-3.871506502059102
1761481573587369700,9.04536962890625,2.3299884234428405,4.358005239889025,-2.359960806249827
1761481573607312600,9.065312744140625,1.7817957382440566,6.5426435276329515,0.3284764232909307
1761481573627255600,9.085255615234376,1.6121142943650484,7.607865698003769,1.5906155792623757
1761481573647197700,9.10519775390625,1.5085457833409308,6.686359340128302,0.7368164376959204
1761481573667140600,9.125140625,2.05789436057657,5.156460387635231,-0.7960529089100659
1761481573687083800,9.145083740234375,2.613098678103089,5.243187069451809,-1.623237745925784
1761481573707026700,9.165026611328125,1.6115595830917357,5.803011155733466,-0.25656521595343945
1761481573726969600,9.184969482421875,0.21790683786571025,4.758493919739127,1.040182056334242
1761481573746911700,9.204911865234376,-1.2743237704902886,1.4069400968223809,0.051612807935290037
1761481573766854700,9.224854736328124,-0.9005661534383892,-1.4132318904429673,-0.3273323312897235
1761481573786797800,9.2447978515625,0.7151870819509029,-1.8127654615253208,-0.6858673178337514
1761481573806739700,9.26473974609375,0.2490010643094778,-2.390383563172817,-0.15399848411669953
1761481573826683000,9.284682861328125,-2.500042207765579,-3.2997546620965004,0.15028108929507433
1761481573846625800,9.304625732421876,-4.242345893576741,-3.9139036282837387,0.8181294239006937
1761481573866568700,9.324568603515624,-2.9932956805527207,-5.263572854876518,2.6295287116393444
1761481573886510600,9.344510498046875,0.9493281385198235,-7.404191968151927,1.7063953370839355
1761481573906453500,9.36445361328125,4.119633121621608,-9.44875426120758,-0.26965445116180925
1761481573926396700,9.384396728515625,2.806429293116927,-8.795166434079409,0.4494181304529309
1761481573946338600,9.404338623046876,-1.0203533933356403,-6.35812282654047,-0.45216947498768567
1761481573966281700,9.42428173828125,-3.2733085537195206,-4.206383768835663,-2.0565477682732043
1761481573986224600,9.444224609375,-2.5349805424168705,-3.007268676325679,-1.6764171090580522
1761481574006166800,9.464166748046875,-0.10010872595906257,-1.5285405236214398,-2.407674743583053
1761481574026109700,9.484109619140625,2.432797640532255,1.2466121722221373,-1.5666874450556934
1761481574046052600,9.504052490234375,3.9318198087245224,5.373275338611006,0.445435015633516
1761481574065995800,9.523995849609374,3.0115435771659014,6.614832565531135,1.1138552683755756
1761481574085937700,9.543937744140624,1.673303799343109,6.447967348116636,-1.5941570512615144
1761481574105880800,9.563880859375,0.8189394251093268,6.278616159105301,-2.6580148014113307
1761481574125823700,9.58382373046875,1.6825497665941713,6.298326237225532,-1.3681388031326234
