time,seconds_elapsed,z,y,x
1761481564613175300,0.07117529296875,0.0874011442065239,-0.6773613691329956,0.16960126161575317
1761481564633117400,0.091117431640625,-0.017305517569184303,-0.4850488007068634,0.14352810382843018
1761481564653060400,0.111060302734375,-0.3043195605278015,-0.37469738721847534,0.14630647003650665
1761481564673003500,0.13100341796875,-0.4630396366119385,-0.4039754569530487,0.3392205536365509
1761481564692945400,0.1509453125,-0.1386111080646515,-0.37630102038383484,0.8963449597358704
1761481564712888600,0.170888671875,0.2732917070388794,-0.616280198097229,1.3579291105270386
1761481564732830500,0.19083056640625,0.0977485254406929,-0.16688768565654755,1.529195785522461
1761481564752773600,0.210773681640625,-0.7152100205421448,0.5778668522834778,1.2923600673675537
1761481564772716500,0.230716552734375,-1.556260585784912,0.415334552526474,0.7123985290527344
1761481564792658700,0.25065869140625,-1.0318684577941895,0.23183612525463104,0.30766740441322327
1761481564812601600,0.2706015625,0.37847310304641724,1.134306788444519,-0.04511192813515663
1761481564832543500,0.29054345703125,0.7398958802223206,2.4092202186584473,-0.5960728526115417
1761481564852486700,0.310486572265625,0.5947554111480713,1.7857310771942139,-1.2336208820343018
1761481564872429600,0.3304296875,0.4432375431060791,0.20015889406204224,-1.2998126745224
1761481564892371500,0.350371337890625,0.26204025745391846,-0.4536120593547821,-1.0392695665359497
1761481564912314400,0.370314453125,0.24166081845760345,-0.03546968847513199,-0.8934198021888733
1761481564932257500,0.390257568359375,0.4987069368362427,0.8500515222549438,-0.9327740669250488
1761481564952199400,0.410199462890625,0.49743080139160156,0.9841851592063904,-0.977889895439148
1761481564972142300,0.430142333984375,0.3051314055919647,0.11889005452394485,-0.7378355264663696
1761481564992084500,0.45008447265625,0.4188537001609802,-0.39887645840644836,-0.5469873547554016
1761481565012027400,0.47002734375,0.8845423460006714,-0.4660283625125885,-0.5792394876480103
1761481565031970600,0.489970458984375,0.8411089181900024,-0.23227882385253906,-0.6753425002098083
1761481565051912400,0.509912353515625,0.26277220249176025,0.13168080151081085,-0.46837279200553894
1761481565071855600,0.529855712890625,-0.2917633652687073,0.3105410039424896,0.14964331686496735
1761481565091798500,0.549798583984375,-0.4453752040863037,0.17183414101600647,1.0073703527450562
1761481565111740700,0.56974072265625,-0.3908875584602356,0.1831185519695282,1.633242130279541
1761481565131683600,0.58968359375,-0.19530139863491058,0.6236791014671326,1.7507812976837158
1761481565151625500,0.60962548828125,-0.2757583558559418,0.6346667408943176,1.5850937366485596
1761481565171568400,0.629568359375,-0.7133867740631104,0.09084168076515198,1.5147784948349
1761481565191511300,0.64951123046875,-0.6965240836143494,-0.590644359588623,1.4645639657974243
1761481565211453400,0.669453369140625,-0.07311322540044785,-0.5557565093040466,1.6063125133514404
1761481565231396400,0.689396240234375,0.27461037039756775,0.3340817987918854,1.9246697425842285
1761481565251339500,0.709339599609375,-0.167185977101326,-0.10576330125331879,1.4929170608520508
1761481565271280600,0.72928076171875,-0.6369493007659912,-1.0521618127822876,0.5911046862602234
1761481565291223800,0.749223876953125,-0.7807523012161255,-1.2249195575714111,0.038631077855825424
1761481565311166700,0.769166748046875,-0.6457910537719727,-0.3950940668582916,-0.37244346737861633
1761481565331108900,0.78910888671875,0.01597777009010315,0.8361182808876038,-0.5947408676147461
1761481565351051800,0.8090517578125,0.09046909958124161,0.9033154845237732,-0.5704805850982666
1761481565370994000,0.828993896484375,-0.27062663435935974,-0.3991279900074005,-0.40611904859542847
1761481565390936800,0.848936767578125,-0.07087153196334839,-1.01642644405365,-0.2619295120239258
1761481565410879700,0.868879638671875,0.6742311120033264,-0.9485883712768555,-0.546587347984314
1761481565430822000,0.88882177734375,1.29795241355896,-0.6957785487174988,-0.9096758961677551
1761481565450764800,0.908764892578125,0.9334592223167419,-0.38739654421806335,-1.0898154973983765
1761481565470707000,0.92870703125,-0.028208810836076736,0.3001316785812378,-1.4801912307739258
1761481565490649900,0.94864990234375,-0.5980480313301086,0.8451970219612122,-1.9646010398864746
1761481565510593000,0.968593017578125,-0.417268842458725,0.5586944818496704,-1.9135721921920776
1761481565530534700,0.98853466796875,0.260640412569046,-0.15982863306999207,-1.1974817514419556
1761481565550477800,1.008477783203125,0.5659398436546326,-0.3922933042049408,-0.3088496923446655
1761481565570420700,1.028420654296875,0.08727805316448212,0.00899706780910492,0.0928235873579979
1761481565590363000,1.04836279296875,-0.28884807229042053,0.39627233147621155,-0.13603654503822327
1761481565610305800,1.068305908203125,-0.14147630333900452,0.635539710521698,-0.33557572960853577
1761481565630248700,1.088248779296875,0.17304478585720062,0.603581964969635,-0.16408072412014008
1761481565650190800,1.10819091796875,0.37222689390182495,0.4519762098789215,0.2534652352333069
1761481565670133800,1.1281337890625,0.2554812729358673,0.2718116343021393,0.5095038414001465
1761481565690076000,1.148075927734375,-0.07037708908319473,0.13961195945739746,0.4255865216255188
1761481565710018800,1.168018798828125,-0.25921085476875305,-0.1571890115737915,0.28729647397994995
1761481565729962000,1.1879619140625,-0.253510445356369,-0.6845197677612305,0.22054709494113922
1761481565749904000,1.20790380859375,-0.13445967435836792,-0.8305802941322327,0.21508729457855225
1761481565769847000,1.227846923828125,-0.21881240606307983,-0.5303027033805847,0.4909316301345825
1761481565789790000,1.2477900390625,-0.48660987615585327,0.030724989250302315,0.7758620381355286
1761481565809731800,1.26773193359375,-0.6566086411476135,0.34198030829429626,0.6817267537117004
1761481565829674800,1.2876748046875,-0.5662815570831299,0.8791839480400085,0.6284995675086975
1761481565849616600,1.30761669921875,-0.08415819704532623,1.2632428407669067,0.8182415962219238
1761481565869559800,1.327559814453125,0.37989890575408936,0.6737008094787598,0.741208553314209
1761481565889502700,1.347502685546875,0.48092618584632874,-0.4273029565811157,-0.18072101473808289
1761481565909444900,1.36744482421875,0.35179662704467773,-0.8085457682609558,-1.1634654998779297
1761481565929387800,1.3873876953125,0.2795625329017639,-0.5001968145370483,-1.2944389581680298
1761481565949330700,1.40733056640625,0.3427949547767639,-0.06684809923171997,-0.6880443692207336
1761481565969272800,1.42727294921875,0.4432608187198639,0.032472312450408936,0.12722796201705933
1761481565989215700,1.4472158203125,0.5954863429069519,0.19742043316364288,0.6824877858161926
1761481566009158000,1.467157958984375,0.6446090340614319,0.40560585260391235,0.8113771080970764
1761481566029100800,1.487100830078125,0.3131137490272522,0.2498883455991745,0.4459882080554962
1761481566049044000,1.5070439453125,-0.10977914184331894,-0.30995383858680725,-0.24619325995445251
1761481566068985900,1.52698583984375,-0.2243453413248062,-0.17422319948673248,-0.6987303495407104
1761481566088929000,1.546928955078125,-0.13122589886188507,0.5197662115097046,-0.6840456128120422
1761481566108872000,1.566871826171875,-0.21742570400238037,0.9785527586936951,-0.3904854655265808
1761481566128813800,1.586813720703125,-0.3610667884349823,0.8216354846954346,-0.05468419939279556
1761481566148756700,1.6067568359375,-0.28052449226379395,0.3149147629737854,0.2067827582359314
1761481566168699000,1.626698974609375,0.0729314535856247,-0.08662113547325134,0.3100956082344055
1761481566188641800,1.646641845703125,0.33437034487724304,-0.17790760099887848,0.2638213038444519
1761481566208584700,1.666584716796875,0.30280089378356934,-0.35120779275894165,0.048325058072805405
1761481566228526800,1.68652685546875,-0.10556559264659882,-0.47408512234687805,-0.01804567687213421
1761481566248469800,1.7064697265625,-0.49463367462158203,-0.3968445360660553,0.3908051550388336
1761481566268413200,1.7264130859375,-0.4670849144458771,-0.27897870540618896,0.7623830437660217
1761481566288355300,1.746355224609375,-0.3720289170742035,-0.29428717494010925,0.42624157667160034
1761481566308298200,1.76629833984375,-0.7372593283653259,-0.3345911204814911,-0.128840371966362
1761481566328240400,1.786240478515625,-1.2344253063201904,-0.20781943202018738,-0.2816135883331299
1761481566348183300,1.806183349609375,-0.9952712059020996,0.24343977868556976,-0.05658809468150139
1761481566368126500,1.82612646484375,-0.049549251794815063,0.7585336565971375,-0.15226459503173828
1761481566388068400,1.846068359375,0.4635671079158783,0.5603683590888977,-1.0150537490844727
1761481566408011500,1.866011474609375,0.4400998055934906,-0.3810647130012512,-1.9610686302185059
1761481566427954400,1.885954345703125,0.4448607861995697,-1.1750563383102417,-1.7966171503067017
1761481566447896300,1.905896240234375,0.6017317771911621,-0.9721017479896545,-0.9315394759178162
1761481566467839200,1.925839111328125,0.6629334688186646,-0.05803806334733963,-0.08206722140312195
1761481566487781400,1.945781494140625,0.7476018071174622,0.6947330236434937,-0.044173453003168106
1761481566507724300,1.965724365234375,0.43032002449035645,0.9209949374198914,-0.5981568694114685
1761481566527667200,1.985667236328125,0.016750354319810867,0.6139331459999084,-1.1847870349884033
1761481566547609300,2.005609375,0.007362822536379099,0.3280926048755646,-1.1718121767044067
1761481566567552300,2.02555224609375,0.2986723780632019,0.20797528326511383,-0.6817305088043213
1761481566587495400,2.045495361328125,0.4914049208164215,0.21281300485134125,0.0039456626400351524
1761481566607437300,2.065437255859375,0.5178161859512329,0.008183546364307404,0.7005318403244019
1761481566627380500,2.08538037109375,0.5271354913711548,0.04779443517327309,1.2612409591674805
1761481566647323400,2.105323486328125,0.46608197689056396,0.0867634043097496,1.2076722383499146
1761481566667265500,2.125265625,0.3396836817264557,0.13469775021076202,0.5566341280937195
1761481566687208400,2.14520849609375,0.2670709192752838,0.22572030127048492,-0.22016745805740356
1761481566707150300,2.165150390625,0.09595197439193726,-0.037383534014225006,-0.3332574665546417
1761481566727093200,2.18509326171875,-0.13504427671432495,-0.5922970771789551,0.41065409779548645
1761481566747036400,2.205036376953125,-0.0640314593911171,-0.8203756213188171,1.0918302536010742
1761481566766978300,2.224978271484375,0.15547297894954681,-0.5407500863075256,1.0280787944793701
1761481566786921200,2.244921142578125,-0.015597566962242126,-0.21559353172779083,0.548384428024292
1761481566806864400,2.264864501953125,-0.33831119537353516,-0.030075596645474434,0.1922052651643753
1761481566826806300,2.28480615234375,-0.26966676115989685,0.17949286103248596,0.15526559948921204
1761481566846749200,2.304749267578125,0.017969071865081787,0.2314881682395935,-0.072527214884758
1761481566866691300,2.32469140625,0.05226105451583862,0.2492009699344635,-0.5665252208709717
1761481566886634200,2.34463427734375,-0.12053991109132767,0.0139363594353199,-0.9020515084266663
1761481566906577400,2.364577392578125,-0.2240099459886551,-0.47624123096466064,-0.8442397117614746
1761481566926519300,2.384519287109375,-0.09698371589183807,-0.5502018332481384,-0.5254004001617432
1761481566946462500,2.40446240234375,0.06568030267953873,-0.354333758354187,-0.00712337251752615
1761481566966405400,2.4244052734375,0.1269904226064682,-0.3241077661514282,0.624052107334137
1761481566986347500,2.444347412109375,0.07925426214933395,-0.43020352721214294,0.9029875993728638
1761481567006290400,2.46429052734375,-0.07282591611146927,-0.380508154630661,0.7451775074005127
1761481567026232300,2.484232421875,-0.19339407980442047,-0.13744531571865082,0.4600074887275696
1761481567046175200,2.50417529296875,-0.24935530126094818,0.136320099234581,0.32794857025146484
1761481567066118100,2.5241181640625,-0.3141098618507385,0.19128435850143433,0.36226069927215576
1761481567086060300,2.544060302734375,-0.34254318475723267,-0.025627370923757553,0.532263457775116
1761481567106003200,2.564003173828125,-0.20842085778713226,-0.10189303010702133,0.6877025365829468
1761481567125946400,2.5839462890625,0.04176686704158783,0.21032068133354187,0.5167352557182312
1761481567145888300,2.60388818359375,0.0940815806388855,0.309787780046463,-0.13990218937397003
1761481567165831400,2.62383154296875,-0.3441448211669922,-0.27683135867118835,-0.7607412338256836
1761481567185774300,2.6437744140625,-0.5207405090332031,-1.237863302230835,-0.8817413449287415
1761481567205716500,2.663716552734375,-0.027925552800297737,-1.3551944494247437,-0.7630441188812256
1761481567225659400,2.683659423828125,0.07756619900465012,-0.5038477182388306,-0.7031800746917725
1761481567245601500,2.7036015625,-0.6755660176277161,0.9074040055274963,-0.1827101707458496
1761481567265544700,2.723544677734375,-0.7151182293891907,1.4182814359664917,0.1910063475370407
1761481567285487600,2.743487548828125,0.11528715491294861,1.1782264709472656,-0.2288820594549179
1761481567305429800,2.7634296875,0.8344313502311707,0.30187907814979553,-1.56196129322052
1761481567325372700,2.78337255859375,0.86637943983078,-0.5169254541397095,-2.3031954765319824
1761481567345315600,2.803315673828125,0.3613780438899994,-0.22509287297725677,-1.579957127571106
1761481567365257500,2.823257568359375,-0.1303359717130661,0.4795249104499817,-0.3817286789417267
1761481567385200400,2.843200439453125,-0.075938880443573,1.3185428380966187,0.12275819480419159
1761481567405143600,2.8631435546875,-0.04030435159802437,1.7082321643829346,-0.04978823661804199
1761481567425085400,2.88308544921875,-0.07628834992647171,1.1371076107025146,0.04576890543103218
1761481567445028600,2.903028564453125,0.2582579553127289,0.7868203520774841,0.681662380695343
1761481567464970500,2.922970458984375,0.8216363787651062,0.5456342697143555,1.1067694425582886
1761481567484913700,2.94291357421875,1.2671215534210205,0.44677025079727173,1.4385954141616821
1761481567504856600,2.962856689453125,1.1622589826583862,0.17824207246303558,1.6583514213562012
1761481567524798700,2.982798828125,0.5185693502426147,-0.32175594568252563,1.563611626625061
1761481567544741600,3.00274169921875,-0.15643201768398285,-0.4563900828361511,0.9402908086776733
1761481567564684500,3.0226845703125,-0.5764086246490479,-0.3828434944152832,0.24403609335422516
1761481567584626700,3.042626708984375,-0.46631091833114624,0.00946219451725483,0.0946609377861023
1761481567604569600,3.062569580078125,-0.15000782907009125,0.35937315225601196,0.45399829745292664
1761481567624512800,3.0825126953125,-0.07799676060676575,0.0997425839304924,1.0434505939483643
1761481567644454400,3.102454345703125,-0.20128238201141357,-0.748760998249054,1.2878434658050537
1761481567664397600,3.1223974609375,-0.3016233444213867,-1.7165517807006836,1.1899352073669434
1761481567684339500,3.14233935546875,0.16899918019771576,-0.9865559935569763,1.139270305633545
1761481567704282600,3.16228271484375,0.8420570492744446,0.2614658772945404,1.252642273902893
1761481567724225500,3.1822255859375,1.0682337284088135,0.06517834216356277,1.3290746212005615
1761481567744167700,3.202167724609375,0.7887929081916809,-1.2149173021316528,1.1402345895767212
1761481567764110600,3.222110595703125,0.4230007231235504,-2.009127140045166,0.6828742623329163
1761481567784053500,3.242053466796875,0.19030824303627014,-1.2716169357299805,0.2472596913576126
1761481567803995600,3.26199560546875,0.20845194160938263,0.1011946052312851,0.07640741020441055
1761481567823938600,3.2819384765625,0.4305976927280426,0.9651144742965698,0.054048970341682434
1761481567843880700,3.301880615234375,0.38637569546699524,1.0763416290283203,-0.12422583252191544
1761481567863823600,3.32182373046875,-0.06836197525262833,0.7055861949920654,-0.04293081909418106
1761481567883766500,3.3417666015625,-0.3458609879016876,0.43619197607040405,0.1755831390619278
1761481567903708700,3.361708740234375,-0.295232355594635,0.44145944714546204,0.2731521725654602
1761481567923651600,3.381651611328125,-0.3336358368396759,0.6974616646766663,0.2494281381368637
1761481567943594800,3.4015947265625,-0.6971189975738525,1.0705914497375488,0.03040316514670849
1761481567963536400,3.421536376953125,-1.0360735654830933,1.0953007936477661,-0.21533650159835815
1761481567983479600,3.4414794921875,-1.1014097929000854,0.7122102975845337,-0.37197524309158325
1761481568003422500,3.46142236328125,-0.730212390422821,0.21076714992523193,-0.37617170810699463
1761481568023364600,3.481364501953125,-0.21841320395469666,-0.31357353925704956,-0.26705774664878845
1761481568043307500,3.5013076171875,-0.023533573374152184,-0.6650312542915344,-0.08072040975093842
1761481568063250400,3.52125048828125,-0.20438052713871002,-0.6210677623748779,0.03792461380362511
1761481568083192600,3.541192626953125,-0.32774096727371216,-0.09442353993654251,0.022644024342298508
1761481568103135500,3.561135498046875,-0.1887514442205429,0.1366024613380432,-0.32445788383483887
1761481568123077600,3.58107763671875,0.20878435671329498,-0.3053329586982727,-0.6365779638290405
1761481568143020500,3.6010205078125,0.2878838777542114,-0.5252844095230103,-0.2461504191160202
1761481568162963700,3.620963623046875,-0.44676661491394043,-0.6932899951934814,0.3450738489627838
1761481568182905600,3.640905517578125,-1.1273826360702515,-0.3949471116065979,0.5551029443740845
1761481568202848800,3.660848876953125,-0.7450969815254211,0.3080579936504364,0.27300700545310974
1761481568222791700,3.680791748046875,0.10642948746681213,0.5614521503448486,-0.6583664417266846
1761481568242733600,3.700733642578125,0.3852473795413971,0.12003414332866669,-1.3309156894683838
1761481568262676700,3.7206767578125,0.2621629238128662,-0.65798419713974,-1.5755069255828857
1761481568282619600,3.74061962890625,0.1613616645336151,-0.9724074602127075,-1.1852221488952637
1761481568302561800,3.760561767578125,0.5169637799263,-0.9958984851837158,-0.4697378873825073
1761481568322504700,3.780504638671875,0.6614882349967957,-0.3891705870628357,-0.03702440857887268
1761481568342446800,3.80044677734375,0.46683424711227417,0.1731768250465393,-0.2715543806552887
1761481568362389800,3.8203896484375,0.2736418545246124,0.20716358721256256,-0.7832386493682861
1761481568382333000,3.8403330078125,0.22303561866283417,-0.16698004305362701,-1.2195624113082886
1761481568402274800,3.86027490234375,0.28300294280052185,-0.25301867723464966,-1.385019063949585
1761481568422217700,3.8802177734375,0.2740471065044403,-0.004241686314344406,-1.2947357892990112
1761481568442161000,3.900160888671875,0.1792653501033783,0.11740358918905258,-0.8916271328926086
1761481568462102500,3.9201025390625,0.12887413799762726,0.17495323717594147,-0.4157743752002716
1761481568482045700,3.940045654296875,0.15328547358512878,0.20842917263507843,-0.027106264606118202
1761481568501988600,3.959988525390625,0.2851831018924713,0.12574800848960876,0.2916938066482544
1761481568521930800,3.9799306640625,0.4400010108947754,-0.010229814797639847,0.587397038936615
1761481568541873700,3.999873779296875,0.4364471435546875,-0.1956942230463028,0.8393261432647705
1761481568561816600,4.019816650390625,0.1809476613998413,-0.19803974032402039,1.0629860162734985
1761481568581758700,4.0397587890625,-0.23175404965877533,-0.004463315010070801,1.0949809551239014
1761481568601701600,4.05970166015625,-0.5310938358306885,0.014410186558961868,0.7189714908599854
1761481568621643800,4.079643798828125,-0.46882364153862,-0.005571317858994007,0.29409247636795044
1761481568641586700,4.099586669921875,-0.2729547917842865,-0.012008070945739746,0.33077895641326904
1761481568661529900,4.11952978515625,-0.5632466077804565,0.00320484209805727,0.7996399402618408
1761481568681471700,4.1394716796875,-1.3350409269332886,0.1698576658964157,0.783979594707489
1761481568701415000,4.159414794921875,-1.5838377475738525,0.2982489764690399,0.8879753947257996
1761481568721357800,4.17935791015625,-0.5550644397735596,0.7755917906761169,1.6034725904464722
1761481568741300000,4.199300048828125,0.6770241260528564,0.8999499082565308,1.3418912887573242
1761481568761243000,4.219242919921875,1.111230492591858,0.3449501693248749,0.21240481734275818
1761481568781185800,4.239185791015625,0.48974597454071045,-0.42537280917167664,-0.10722759366035461
1761481568801127700,4.259127685546875,-0.24257248640060425,-0.5333479046821594,0.7278319001197815
1761481568821070600,4.279070556640625,0.24889294803142548,-0.023021573200821877,1.5192713737487793
1761481568841013800,4.299013671875,0.9476158022880554,0.27582770586013794,1.5648189783096313
1761481568860955600,4.31895556640625,1.0041803121566772,-0.2009655386209488,1.0547881126403809
1761481568880898800,4.33889892578125,0.46158328652381897,-0.7332479357719421,0.49362659454345703
1761481568900840700,4.3588408203125,-0.282701700925827,-0.4205593764781952,-0.0485350675880909
1761481568920784000,4.378783935546875,-0.7452649474143982,0.4573172926902771,-0.5348149538040161
1761481568940726800,4.398726806640625,-0.7814040184020996,1.012169599533081,-0.5160799026489258
1761481568960669000,4.4186689453125,-0.5010659694671631,1.1526806354522705,-0.057127490639686584
1761481568980611800,4.43861181640625,-0.29174765944480896,1.0443406105041504,0.3775057792663574
1761481569000554800,4.4585546875,-0.19916558265686035,0.5547879338264465,0.34298038482666016
1761481569020497000,4.478496826171875,0.08549139648675919,-0.10962186008691788,-0.19769002497196198
1761481569040439800,4.498439697265625,0.34202834963798523,-0.6811715960502625,-0.5916918516159058
1761481569060382700,4.5183828125,0.3979804813861847,-0.9289157390594482,-0.3130517601966858
1761481569080324600,4.53832470703125,0.26942285895347595,-0.81001877784729,0.41844671964645386
1761481569100267800,4.558267822265625,-0.05305865406990051,-0.48880982398986816,1.0387156009674072
1761481569120210700,4.578210693359375,-0.14889852702617645,-0.2991800904273987,0.8135024905204773
1761481569140152600,4.598152587890625,-0.18809983134269714,-0.11700474470853806,0.055761031806468964
1761481569160095700,4.618095703125,-0.434866338968277,-0.39272600412368774,-0.6217511892318726
1761481569180038700,4.63803857421875,-0.6911769509315491,-1.0473484992980957,-0.6635704040527344
1761481569199980800,4.657980712890625,-0.6260284185409546,-0.9605906009674072,0.019350238144397736
1761481569219923700,4.677923828125,-0.2812599241733551,0.3301527202129364,0.9195818901062012
1761481569239865900,4.697865966796875,0.0989006832242012,0.9612717032432556,0.531049370765686
1761481569259808300,4.717808349609375,0.29047203063964844,0.3360859751701355,-0.8939296007156372
1761481569279751400,4.73775146484375,0.25019675493240356,-0.33511883020401,-1.8698985576629639
1761481569299693000,4.757693115234375,0.36423957347869873,-0.5475661158561707,-1.919335126876831
1761481569319636200,4.77763623046875,0.30041855573654175,-0.7221807837486267,-1.1503759622573853
1761481569339579100,4.7975791015625,0.1421336978673935,-0.5927249193191528,-0.04548656567931175
1761481569359521000,4.81752099609375,0.21343038976192474,-0.60780930519104,0.2583996057510376
1761481569379464200,4.837464111328125,0.5853975415229797,-0.4847394824028015,-0.22673235833644867
1761481569399407000,4.857406982421875,0.8215857744216919,-0.08319681882858276,-0.8871626853942871
1761481569419349200,4.877349365234375,0.6171492338180542,0.3190852105617523,-1.2721055746078491
1761481569439292200,4.897292236328125,0.2188994139432907,0.5264996886253357,-1.1789278984069824
1761481569459235000,4.917235107421875,0.007833781652152538,0.3440902531147003,-0.8308869004249573
1761481569479177200,4.93717724609375,0.07320144772529602,0.09332635253667831,-0.3078741729259491
1761481569499120000,4.9571201171875,0.34764233231544495,0.1390683352947235,0.4171994626522064
1761481569519063300,4.977063232421875,0.4318161904811859,-0.012399342842400074,0.9955161809921265
1761481569539005200,4.997005126953125,0.3663886487483978,-0.2097405046224594,0.9976578950881958
1761481569558948400,5.0169482421875,0.24872198700904846,-0.3589044213294983,0.43536168336868286
1761481569578891300,5.036891357421875,0.09907325357198715,-0.37282195687294006,-0.1693512201309204
1761481569598833400,5.05683349609375,-0.022595921531319618,-0.36353686451911926,-0.1621260643005371
1761481569618776300,5.0767763671875,0.006487180478870869,-0.24706560373306274,0.45885106921195984
1761481569638719200,5.09671923828125,0.082192063331604,0.3378293216228485,1.1892046928405762
1761481569658661000,5.1166611328125,-0.13942502439022064,0.12400326877832413,1.0532382726669312
1761481569678604000,5.13660400390625,-0.11308544874191284,-0.09759741276502609,0.36789700388908386
1761481569698546200,5.156546142578125,0.21599289774894714,0.4498492181301117,0.0023666119668632746
1761481569718489000,5.176489013671875,0.37715646624565125,0.809323251247406,0.12099046260118484
1761481569738432300,5.196432373046875,0.5030918717384338,1.15494704246521,0.6749323010444641
1761481569758374100,5.2163740234375,0.5474712252616882,1.0864707231521606,0.9446784853935242
1761481569778317300,5.2363173828125,0.43980684876441956,0.5599291324615479,0.34599894285202026
1761481569798260200,5.25626025390625,0.2967711389064789,0.23978443443775177,-0.5600222945213318
1761481569818202400,5.276202392578125,0.13873496651649475,0.3793514668941498,-0.8603350520133972
1761481569838145300,5.296145263671875,-0.025242464616894722,0.6290436387062073,-0.5472114086151123
1761481569858088200,5.316088134765625,0.08657200634479523,0.5680703520774841,-0.16873762011528015
1761481569878030300,5.3360302734375,0.42642080783843994,0.027801426127552986,-0.1646692007780075
1761481569897973200,5.35597314453125,0.2908637821674347,-0.35699304938316345,-0.18571238219738007
1761481569917916400,5.37591650390625,-0.20373930037021637,-0.28123578429222107,-0.3699598014354706
1761481569937858000,5.395858154296875,-0.7043319940567017,0.1937253326177597,-0.8181636333465576
1761481569957801200,5.41580126953125,-0.9589518308639526,0.6317445039749146,-1.2712781429290771
1761481569977744100,5.435744140625,-0.8922682404518127,0.6789407730102539,-1.3592438697814941
1761481569997686300,5.455686279296875,-0.6187119483947754,0.49477261304855347,-1.0240191221237183
1761481570017629200,5.475629150390625,-0.4486040771007538,0.23093456029891968,-0.6655821800231934
1761481570037572000,5.495572021484375,-0.39322617650032043,0.02843981795012951,-0.4303784668445587
1761481570057514200,5.51551416015625,-0.30151745676994324,-0.06211624667048454,-0.3302077651023865
1761481570077457200,5.53545703125,-0.16412077844142914,0.0958332046866417,-0.16832146048545837
1761481570097400000,5.555400146484375,-0.19377401471138,0.07866460829973221,-0.04773885756731033
1761481570117342200,5.57534228515625,-0.06557012349367142,-0.26357588171958923,0.14243894815444946
1761481570137285000,5.59528515625,0.3674035966396332,-0.7772114276885986,0.28809648752212524
1761481570157228300,5.615228271484375,0.7664415240287781,-0.939956784248352,0.10486450046300888
1761481570177170200,5.635170166015625,0.11424949765205383,-0.9310572147369385,0.04546651989221573
1761481570197113300,5.65511328125,-0.9660713076591492,-0.9408237934112549,0.6229339838027954
1761481570217056300,5.67505615234375,-1.0182400941848755,-0.6151334047317505,1.095181941986084
1761481570236998400,5.694998291015625,-0.4997542202472687,0.3112512230873108,1.0506080389022827
1761481570256941300,5.71494140625,-0.1780543327331543,0.9345445036888123,0.6377490758895874
1761481570276884700,5.734884765625,-0.04368554428219795,0.31146082282066345,-0.04250567778944969
1761481570296827000,5.754826904296875,0.07584682106971741,-0.7592925429344177,-0.6423443555831909
1761481570316769800,5.774769775390625,0.22831684350967407,-1.059261679649353,-0.8286986947059631
1761481570336713000,5.794712890625,0.2972845435142517,-1.0225472450256348,-0.6841116547584534
1761481570356654800,5.81465478515625,0.24601146578788757,-1.2133065462112427,-0.23031438887119293
1761481570376597800,5.83459765625,0.07970243692398071,-1.0009793043136597,0.5293858051300049
1761481570396540000,5.854539794921875,0.09489758312702179,-0.13026922941207886,0.725943922996521
1761481570416482800,5.87448291015625,0.15853866934776306,0.5270107388496399,0.1618824005126953
1761481570436426000,5.894426025390625,0.09485039114952087,0.8312133550643921,-0.5590375661849976
1761481570456367600,5.91436767578125,-0.008650170639157295,0.7595240473747253,-0.9915615320205688
1761481570476310800,5.934310791015625,-0.20468983054161072,0.5621802806854248,-1.1277832984924316
1761481570496253700,5.954253662109375,-0.4530915319919586,0.16197612881660461,-1.1433227062225342
1761481570516195800,5.97419580078125,-0.4713427722454071,0.5342527627944946,-0.5510753989219666
1761481570536138800,5.994138671875,-0.35486599802970886,0.7191817760467529,0.44728678464889526
1761481570556081700,6.01408154296875,-0.17229551076889038,0.7707189917564392,1.2346285581588745
1761481570576023800,6.03402392578125,0.053627051413059235,-0.11260221898555756,1.135467529296875
1761481570595966700,6.053966796875,0.2176028937101364,-0.888394296169281,0.3858126699924469
1761481570615910000,6.073909912109375,0.09847526997327805,-1.1304993629455566,0.06824291497468948
1761481570635851800,6.093851806640625,0.19566461443901062,-0.9432641267776489,0.5765519142150879
1761481570655795000,6.113794921875,0.38719815015792847,-0.15056182444095612,1.7872270345687866
1761481570675737900,6.13373779296875,0.4930422902107239,0.03890359774231911,2.2589340209960938
1761481570695680000,6.153679931640625,0.43107709288597107,-0.6391128301620483,1.332823395729065
1761481570715623000,6.173622802734375,0.09968716651201248,-0.7046237587928772,0.33681976795196533
1761481570735565800,6.19356591796875,-0.1307966411113739,-0.336724191904068,-0.04703056067228317
1761481570755508000,6.213508056640625,-0.22303208708763123,0.8132608532905579,0.181818887591362
1761481570775451000,6.233450927734375,-0.45387348532676697,1.8402903079986572,0.27433696389198303
1761481570795394000,6.25339404296875,-0.5248759388923645,0.6253422498703003,-0.27777349948883057
1761481570815335700,6.273335693359375,-0.4199812710285187,-1.33321213722229,-0.6391599774360657
1761481570835278800,6.29327880859375,0.127139613032341,-1.820866346359253,-0.6954680681228638
1761481570855221800,6.3132216796875,0.6504762768745422,-0.7479965090751648,-0.6467785239219666
1761481570875164000,6.333163818359375,0.6346523761749268,0.5197029113769531,-0.6247257590293884
1761481570895106800,6.35310693359375,0.18992064893245697,1.0500328540802002,-0.7275534272193909
1761481570915049700,6.3730498046875,-0.14024969935417175,0.525517463684082,-0.9683516025543213
1761481570934992000,6.392991943359375,-0.3507234752178192,-0.22961708903312683,-1.0262298583984375
1761481570954934800,6.412934814453125,-0.5076090097427368,-0.7119595408439636,-0.8183552622795105
1761481570974878000,6.4328779296875,-0.6408187747001648,-0.5656384825706482,-0.5520041584968567
1761481570994820900,6.45282080078125,-0.6260536313056946,0.0023910761810839176,-0.3534812927246094
1761481571014762800,6.4727626953125,-0.611106276512146,0.6449964046478271,-0.13274115324020386
1761481571034706000,6.492705810546875,-0.7411227226257324,0.6978864669799805,0.0699240118265152
1761481571054648800,6.51264892578125,-0.5622151494026184,0.5764204859733582,0.29826822876930237
1761481571074591000,6.532591064453125,-0.1789446324110031,0.49248576164245605,0.38522157073020935
1761481571094534000,6.552533935546875,-0.012081759050488472,0.3633497357368469,0.10544141381978989
1761481571114476800,6.572476806640625,-0.041645780205726624,0.2514617145061493,-0.3695473372936249
1761481571134418700,6.592418701171875,0.006787269841879606,0.29184839129447937,-0.10481595247983932
1761481571154361600,6.612361572265625,0.3278736174106598,0.6945778727531433,0.9833743572235107
1761481571174304800,6.6323046875,0.5108039975166321,0.9319217205047607,1.674083948135376
1761481571194246700,6.65224658203125,0.390590637922287,0.6129014492034912,1.4202195405960083
1761481571214189800,6.67218994140625,-0.007908533327281475,-0.4467127323150635,0.7948079705238342
1761481571234132700,6.6921328125,-0.06949498504400253,-0.9328795075416565,0.3525185286998749
1761481571254075000,6.712074951171875,0.4456658959388733,0.0016711810603737831,0.29707008600234985
1761481571274020400,6.732020263671875,0.8847662806510925,1.1330333948135376,0.5046821236610413
1761481571293963500,6.751963623046875,0.9060689210891724,0.8715975880622864,0.6694261431694031
1761481571313905400,6.771905517578125,0.9456988573074341,-0.12888607382774353,0.6167747974395752
1761481571333848600,6.7918486328125,1.0503864288330078,-1.0313745737075806,0.16675545275211334
1761481571353791500,6.81179150390625,1.102307915687561,-0.9303563237190247,-0.6300460696220398
1761481571373733400,6.8317333984375,0.4536551535129547,0.046068497002124786,-1.2081515789031982
1761481571393676300,6.85167626953125,-0.15649086236953735,1.0469889640808105,-1.4905767440795898
1761481571413619200,6.871619140625,0.013651673682034016,0.474161833524704,-1.3726691007614136
1761481571433561300,6.891561279296875,0.4813203513622284,-0.4748151898384094,-0.9508031606674194
1761481571453504300,6.911504150390625,0.034503426402807236,-0.6247580051422119,-0.7411121726036072
1761481571473447400,6.931447509765625,-0.9113149046897888,-0.2005278617143631,-0.8315728902816772
1761481571493389300,6.951389404296875,-1.608212947845459,0.21995320916175842,-0.8417310118675232
1761481571513332500,6.97133251953125,-1.7684016227722168,0.2733687162399292,-0.5985031723976135
1761481571533275400,6.991275390625,-1.478411316871643,-0.08048251271247864,-0.14992931485176086
1761481571553217500,7.011217529296875,-1.1012758016586304,-0.47608089447021484,0.2775988280773163
1761481571573160400,7.031160400390625,-0.8153828382492065,-0.5127484202384949,0.2998262643814087
1761481571593103400,7.051103271484375,-0.764104425907135,0.07751695066690445,-0.09512132406234741
1761481571613045500,7.07104541015625,-1.0019278526306152,0.24595768749713898,-0.2653954029083252
1761481571632988400,7.090988525390625,-0.8035564422607422,-0.3288654685020447,0.22898146510124207
1761481571652931300,7.110931396484375,-0.05471790209412575,-1.1056523323059082,0.8503084182739258
1761481571672873500,7.13087353515625,0.7775981426239014,-0.9319391846656799,1.278205156326294
1761481571692816400,7.15081640625,0.7423765659332275,-0.47957566380500793,1.4489275217056274
1761481571712759600,7.170759521484375,-0.08162051439285278,-0.26791462302207947,1.3961806297302246
1761481571732701200,7.190701171875,-0.5466868281364441,-0.4485037326812744,0.8947941064834595
1761481571752644400,7.210644287109375,-0.2158048450946808,-0.528913676738739,0.6148310303688049
1761481571772587300,7.230587158203125,0.44455209374427795,-0.18944601714611053,0.8448188304901123
1761481571792529400,7.250529296875,0.7578043341636658,0.47835126519203186,0.996519923210144
1761481571812472300,7.270472412109375,0.7006229758262634,0.8181158900260925,0.6410136222839355
1761481571832415200,7.290415283203125,0.53333979845047,0.6618360877037048,-0.047947220504283905
1761481571852357400,7.310357421875,0.695916473865509,0.1095544770359993,-0.7346751689910889
1761481571872300300,7.33030029296875,1.2086901664733887,-0.45567288994789124,-0.9830325841903687
1761481571892243500,7.350243408203125,1.2862476110458374,-0.43550705909729004,-0.9357183575630188
1761481571912186400,7.370186279296875,0.6252075433731079,0.3248715102672577,-1.023381233215332
1761481571932128500,7.39012841796875,0.25678837299346924,0.8528996109962463,-1.1448203325271606
1761481571952071400,7.410071533203125,0.1785489022731781,1.1105413436889648,-0.9374015927314758
1761481571972014300,7.430014404296875,-0.02847633697092533,0.7334885597229004,-0.5489112138748169
1761481571991956500,7.44995654296875,-0.32009461522102356,0.35991889238357544,-0.31063565611839294
1761481572011899400,7.4698994140625,-0.5661641359329224,0.06961511075496674,-0.34478187561035156
1761481572031842600,7.489842529296875,-0.7030999660491943,0.1328905075788498,-0.456125408411026
1761481572051784200,7.5097841796875,-0.812237024307251,0.30878934264183044,-0.6564130187034607
1761481572071727400,7.529727294921875,-0.8479900360107422,0.5167151093482971,-0.8331695795059204
1761481572091670300,7.549670166015625,-0.7959453463554382,0.6367042660713196,-0.8162539005279541
1761481572111612400,7.5696123046875,-0.6490371823310852,0.5909677743911743,-0.5983486771583557
1761481572131555300,7.589555419921875,-0.5595202445983887,-0.06769313663244247,-0.2720087170600891
1761481572151498200,7.609498291015625,-0.41903096437454224,-0.6434987187385559,0.042664434760808945
1761481572171440400,7.6294404296875,-0.005157167091965675,-0.33979520201683044,-0.008489588275551796
1761481572191383300,7.64938330078125,0.449211448431015,0.5592336058616638,-0.17293678224086761
1761481572211326500,7.669326416015625,0.3849763870239258,1.1885532140731812,-0.03423142433166504
1761481572231268400,7.689268310546875,0.21841414272785187,0.612943172454834,0.42872655391693115
1761481572251211500,7.70921142578125,0.18468882143497467,-0.7043389678001404,0.6946532726287842
1761481572271154700,7.72915478515625,-0.005133944563567638,-0.7782918810844421,0.4009521007537842
1761481572291096600,7.7490966796875,0.08471977710723877,0.2445077747106552,-0.0699969232082367
1761481572311039700,7.769039794921875,0.5172948241233826,0.8844860792160034,-0.15792669355869293
1761481572330982700,7.788982666015625,0.6656914353370667,0.42506760358810425,-0.06480592489242554
1761481572350925600,7.808925537109375,0.36040109395980835,-0.5850052833557129,-0.34312111139297485
1761481572370867500,7.828867431640625,0.13278083503246307,-1.5584101676940918,-0.9862150549888611
1761481572390810400,7.848810302734375,0.1311534196138382,-1.6900156736373901,-1.8066565990447998
1761481572410753500,7.86875341796875,-0.12355459481477737,-0.9959648847579956,-2.433549404144287
1761481572430695400,7.8886953125,-0.5504887104034424,-0.6133846640586853,-2.109157085418701
1761481572450638600,7.908638671875,-0.45742926001548767,-0.6060019135475159,-0.768657922744751
1761481572470581500,7.92858154296875,0.014062067493796349,-1.0106933116912842,0.5642366409301758
1761481572490523600,7.948523681640625,-0.040860142558813095,-0.6380846500396729,1.3121917247772217
1761481572510466600,7.968466552734375,-0.5073381662368774,-0.6531356573104858,1.3997185230255127
1761481572530409500,7.988409423828125,-0.8889381289482117,-0.888529360294342,1.277917742729187
1761481572550351600,8.0083515625,-0.8722387552261353,-0.8157726526260376,1.0936940908432007
1761481572570294500,8.02829443359375,-0.5612751841545105,-0.0512363575398922,0.6876557469367981
1761481572590237700,8.04823779296875,-0.26603206992149353,1.012328028678894,0.41909509897232056
1761481572610179600,8.0681796875,-0.30141693353652954,1.0550386905670166,0.5851786136627197
1761481572630122800,8.088122802734375,-0.42420363426208496,0.2187952846288681,0.6852458119392395
1761481572650065700,8.108065673828126,-0.3367256224155426,-0.24756501615047455,0.4803263545036316
1761481572670008600,8.128008544921874,-0.2931695878505707,-0.2852119505405426,0.304440438747406
1761481572689950700,8.14795068359375,0.18281289935112,0.0866372361779213,0.8468769192695618
1761481572709893600,8.1678935546875,0.7822863459587097,0.27672886848449707,1.66925048828125
1761481572729836800,8.1878369140625,0.6389374136924744,0.2262299805879593,1.6847232580184937
1761481572749778400,8.2077783203125,-0.3685380220413208,-0.06991461664438248,1.0536655187606812
1761481572769721600,8.2277216796875,-0.7699785828590393,-0.17432457208633423,0.6017695665359497
1761481572789664500,8.24766455078125,0.009090958163142204,0.5096823573112488,0.34500229358673096
1761481572809606700,8.267606689453125,0.9769228100776672,1.1047101020812988,0.07690300792455673
1761481572829549600,8.287549560546875,0.9169959425926208,0.9380624294281006,-0.45971447229385376
1761481572849492500,8.307492431640625,0.28807324171066284,-0.9827215671539307,-1.0284141302108765
1761481572869434600,8.3274345703125,0.4066522717475891,-2.05452036857605,-1.2289419174194336
1761481572889377500,8.34737744140625,0.7929011583328247,-1.072355031967163,-1.2448935508728027
1761481572909320700,8.36732080078125,0.6160314083099365,1.0513230562210083,-1.017000436782837
1761481572929262600,8.3872626953125,-0.14851176738739014,2.167253255844116,-0.6241698861122131
1761481572949205800,8.407205810546875,-0.6174001693725586,1.1728616952896118,0.1842629462480545
1761481572969148700,8.427148681640626,-0.45213231444358826,-0.25095292925834656,0.7282594442367554
1761481572989091600,8.447091552734374,-0.06006808578968048,-0.809413731098175,0.43890851736068726
1761481573009033700,8.46703369140625,0.1120789647102356,-0.20775283873081207,-0.4402580261230469
1761481573028976600,8.4869765625,-0.15149712562561035,0.4403000473976135,-1.14142906665802
1761481573048919600,8.50691943359375,-0.3515103757381439,0.5717313885688782,-0.7830871343612671
1761481573068861400,8.526861328125,-0.2791704535484314,0.31808948516845703,0.2983678877353668
1761481573088804600,8.5468046875,-0.2352564036846161,0.41858795285224915,0.9033420085906982
1761481573108747500,8.56674755859375,-0.49475815892219543,0.5477832555770874,0.6778361201286316
1761481573128689400,8.586689453125,-0.6965232491493225,0.22339624166488647,0.3520493507385254
1761481573148632600,8.606632568359375,-0.3351931869983673,-0.004301383160054684,0.40420278906822205
1761481573168575500,8.626575439453125,0.16680112481117249,-0.07178103178739548,0.6632698774337769
1761481573188517600,8.646517578125,0.4845549464225769,0.1903558224439621,0.9056921005249023
1761481573208460500,8.66646044921875,0.2661501169204712,0.20477835834026337,1.0295920372009277
1761481573228403500,8.686403564453125,-0.14132773876190186,-0.5293699502944946,1.1476174592971802
1761481573248346600,8.7063466796875,0.022403568029403687,-0.76263427734375,1.1577376127243042
1761481573268286700,8.72628662109375,0.3266572058200836,-0.6644235849380493,0.8369667530059814
1761481573288229600,8.746229736328125,0.4628343880176544,-0.10037874430418015,0.633278489112854
1761481573308172800,8.7661728515625,0.5714989304542542,0.6966906189918518,0.7228177785873413
1761481573328114700,8.78611474609375,0.493971586227417,0.8190197348594666,0.7079187035560608
1761481573348057900,8.806057861328124,0.47137534618377686,-0.03843534365296364,0.5121849179267883
1761481573368000800,8.826000732421875,0.43365922570228577,-0.6061450839042664,-0.005833283066749573
1761481573387943000,8.84594287109375,0.4779963195323944,-0.6727731227874756,-0.4271472096443176
1761481573407885800,8.8658857421875,0.5521802306175232,-0.6878691911697388,-0.4551369845867157
1761481573427828700,8.885828857421876,0.3450472354888916,-0.5147168040275574,-0.4488704204559326
1761481573447770600,8.9057705078125,0.014625858515501022,0.06346554309129715,-0.574912428855896
1761481573467713500,8.925713623046875,-0.22966830432415009,0.4627613425254822,-0.9471802115440369
1761481573487656700,8.94565673828125,-0.05092412233352661,0.29053977131843567,-1.1849732398986816
1761481573507600000,8.965599853515625,0.5554929375648499,-0.1751241385936737,-0.9175443649291992
1761481573527541800,8.985541748046876,0.761695384979248,-0.34087565541267395,-0.4076263904571533
1761481573547484700,9.005484619140624,0.17483341693878174,-0.20388224720954895,-0.06513718515634537
1761481573567427600,9.025427490234375,-0.6695984601974487,-0.07679391652345657,-0.1988423466682434
1761481573587369700,9.04536962890625,-0.8650400042533875,0.24754050374031067,-0.34748876094818115
1761481573607312600,9.065312744140625,-0.4483030140399933,0.6472346782684326,-0.31557002663612366
1761481573627255600,9.085255615234376,0.07990403473377228,0.5238416194915771,-0.028903519734740257
1761481573647197700,9.10519775390625,0.1809769570827484,0.314394474029541,0.4482322037220001
1761481573667140600,9.125140625,-0.23306000232696533,-0.4023139178752899,0.7124760746955872
1761481573687083800,9.145083740234375,-0.5365256071090698,-0.8051226735115051,0.69047611951828
1761481573707026700,9.165026611328125,-0.21483561396598816,-0.5004119873046875,0.5360913276672363
1761481573726969600,9.184969482421875,0.22160716354846954,0.08153872191905975,0.6309695243835449
1761481573746911700,9.204911865234376,0.15541274845600128,0.6407009959220886,0.9987967610359192
1761481573766854700,9.224854736328124,-0.1072939783334732,0.12102703005075455,1.2573339939117432
1761481573786797800,9.2447978515625,-0.33716529607772827,-1.0719194412231445,0.9382975697517395
1761481573806739700,9.26473974609375,-0.323729008436203,-1.119802474975586,0.42212074995040894
1761481573826683000,9.284682861328125,-0.27048757672309875,0.20523980259895325,0.12769410014152527
1761481573846625800,9.304625732421876,-0.021329104900360107,1.4189773797988892,0.381006121635437
1761481573866568700,9.324568603515624,0.35199084877967834,1.1369526386260986,0.848462700843811
1761481573886510600,9.344510498046875,0.1395033448934555,-0.46717649698257446,0.6487733721733093
1761481573906453500,9.36445361328125,-0.15310369431972504,-1.5894817113876343,-0.6254124045372009
1761481573926396700,9.384396728515625,0.20413486659526825,-1.124345302581787,-1.7166422605514526
1761481573946338600,9.404338623046876,0.5069353580474854,0.036611054092645645,-1.882326364517212
1761481573966281700,9.42428173828125,0.39138466119766235,0.5089340806007385,-1.0985379219055176
1761481573986224600,9.444224609375,0.07270615547895432,0.37051185965538025,-0.2655785381793976
1761481574006166800,9.464166748046875,-0.4747079908847809,0.48502254486083984,-0.25365427136421204
1761481574026109700,9.484109619140625,-0.6104706525802612,0.04638827592134476,-0.48970091342926025
1761481574046052600,9.504052490234375,0.020672086626291275,-1.1839778423309326,-0.6711876392364502
1761481574065995800,9.523995849609374,0.43214255571365356,-0.9027575850486755,-0.7776975631713867
1761481574085937700,9.543937744140624,0.10642299801111221,-0.19303134083747864,-0.7580810785293579
1761481574105880800,9.563880859375,-0.36364489793777466,0.28919607400894165,-0.33955541253089905
1761481574125823700,9.58382373046875,-0.5018362402915955,-0.06542982161045074,0.1428389847278595
