time,seconds_elapsed,z,y,x
1761505928604264000,0.075263916015625,0.09481704929172992,-0.1707555028513074,0.07254756901226937
1761505928624420000,0.095420166015625,0.03255903829932213,-0.048829789620637894,0.30341778721697626
1761505928644576000,0.115575927734375,-0.05569558373689651,-0.01688654513210058,0.3252258605297655
1761505928664732200,0.135732177734375,-0.14178162956237791,0.055171267601847644,0.20464973527714608
1761505928684888000,0.15588818359375,-0.2645253811776638,0.11094283918440341,0.18704130561128257
1761505928705044000,0.1760439453125,-0.18083529057800768,0.09719225399047136,0.08141732336208224
1761505928725200100,0.1962001953125,-0.1251864685922861,0.1533849735945463,-0.07198803543336689
1761505928745356000,0.21635595703125,-0.057821489849686616,0.06380991660952567,0.05803147933855653
1761505928765512200,0.23651220703125,0.08960369855761527,-0.02829378207027912,0.007322451842576265
1761505928785669000,0.256669189453125,0.14790624992251394,-0.097504388679564,0.09409224214851855
1761505928805825300,0.2768251953125,0.2126893954783678,-0.11756342636793851,0.12584566315338014
1761505928825981200,0.296981201171875,0.27290625603199004,-0.09874065247625112,0.06973170787394047
1761505928846137000,0.31713720703125,0.1678676724553108,-0.1960992029443383,0.14288871402144432
1761505928866293200,0.337293212890625,0.1759592089742422,-0.26030162600278856,0.10977766786254942
1761505928886449200,0.35744921875,0.15735270818173885,-0.21566607320159673,0.09775273741744459
1761505928906605300,0.377605224609375,0.13877835609316824,-0.19086480942219494,0.06531074962653219
1761505928926761200,0.39776123046875,0.20543606334924697,-0.08386603168845176,-0.06044562780819833
1761505928946917000,0.417917236328125,0.1540133346259594,-0.08003361391872167,-0.0567391745056957
1761505928967073300,0.4380732421875,0.13108020280599594,-0.08019728004783391,-0.059693567331880325
1761505928987229200,0.458229248046875,0.06231120248436928,-0.14597060568481682,0.03597571487501263
1761505929007385000,0.478385009765625,-0.058198506468534465,-0.14174538920521734,-0.011546207017451524
1761505929027541200,0.498541259765625,-0.07993570650219917,-0.13079437160193919,-0.06133731595091521
1761505929047697200,0.518697265625,-0.1017237599402666,-0.11851532026529311,-0.0772051855597645
1761505929067853300,0.538853271484375,-0.05073708454668521,-0.15999387034028767,-0.13360175717286765
1761505929088009200,0.55900927734375,-0.016449615019559858,-0.2991644406214356,-0.06625782121829688
1761505929108165400,0.579165283203125,0.061337389016151427,-0.39330987426191566,-0.057747036373987794
1761505929128321300,0.5993212890625,0.14559388132691384,-0.5534907916069031,0.006213759948313236
1761505929148477200,0.619477294921875,0.16927344760000704,-0.6479349159330129,0.03102693336121738
1761505929168633300,0.63963330078125,0.2837134812504053,-0.7011410209417342,0.005747969067469239
1761505929188789200,0.659789306640625,0.2655523861378431,-0.7037661087483167,-0.003073708356916904
1761505929208946200,0.6799462890625,0.2973334258019924,-0.7038684000790119,-0.08530461312420666
1761505929229102000,0.70010205078125,0.26551263864934443,-0.7819093788757919,-0.04985927879884839
1761505929249258200,0.72025830078125,0.19042203409075736,-0.7429805132836103,-0.0338955476000905
1761505929269414100,0.7404140625,0.10411094733774662,-0.7663051286391913,-0.022694573823735117
1761505929289570000,0.760570068359375,0.00486029951274395,-0.6948048036575317,-0.028570114793628452
1761505929309726200,0.780726318359375,-0.09219313052892684,-0.5753035410948097,-0.08455839786678553
1761505929329882000,0.800882080078125,-0.1265811378210783,-0.4914483230613172,-0.11891045706272124
1761505929350038300,0.821038330078125,-0.04924070850908756,-0.3812918119490146,-0.19909524295516312
1761505929370194200,0.841194091796875,-0.1094622452378273,-0.4622114149220288,-0.15701083594150841
1761505929390350000,0.86135009765625,-0.03763151925802231,-0.4434527923077345,-0.10399864606969057
1761505929410506200,0.88150634765625,-0.05465162764191627,-0.5289119384065271,0.005612506119534373
1761505929430662100,0.901662109375,-0.03960252707004547,-0.5656354029089212,0.10606894953772425
1761505929450818000,0.921818115234375,-0.1273123747050762,-0.5782620986394584,0.16499460123702883
1761505929470974200,0.94197412109375,-0.14214637122154236,-0.4846820437967777,0.06155278533250093
1761505929491130000,0.962130126953125,-0.15232874253988266,-0.37987273893132806,-0.032358839552104474
1761505929511286300,0.982286376953125,-0.06143032799661159,-0.2668365807294845,-0.1502638458993286
1761505929531442200,1.002442138671875,-0.016363105779886245,-0.2610075823150575,-0.16896445471607147
1761505929551598000,1.02259814453125,0.0633422990977764,-0.16332462219819427,-0.24361506042219697
1761505929571754200,1.042754150390625,0.20793430990576742,-0.2838891300782561,-0.25675087471865116
1761505929591910100,1.06291015625,0.23050620719790457,-0.2902029894001782,-0.18283391704931853
1761505929612066300,1.08306640625,0.13338789522647856,-0.31735417730659243,-0.21862645737715064
1761505929632222200,1.10322216796875,0.02709551219642162,-0.288365398709476,-0.2986588291868567
1761505929652379400,1.12337939453125,-0.056038698086142535,-0.22434169321879743,-0.4578437942970544
1761505929672535300,1.143535400390625,-0.0706359632372856,-0.18808496944531797,-0.5350090862378478
1761505929692691200,1.163691162109375,0.01660392879843712,-0.21171105196550488,-0.5255094364866614
1761505929712847400,1.183847412109375,0.07222294016778469,-0.29025837284922595,-0.3944361018128693
1761505929733003300,1.204003173828125,0.12868950827717782,-0.33843598217144605,-0.22567162664830684
1761505929753159200,1.2241591796875,0.13927110804617404,-0.4141765750713646,-0.05825418217852711
1761505929773315000,1.244315185546875,0.14685118791162965,-0.4118405333392322,0.0637742607742548
1761505929793471000,1.264470947265625,0.08502221598625183,-0.32508316412344573,0.15586933775618672
1761505929813627100,1.284627197265625,-0.06567512595951557,-0.2723844241149723,0.2561751937225461
1761505929833783000,1.304782958984375,-0.1644470503568649,-0.14583631178066134,0.21577479427307844
1761505929853939000,1.32493896484375,-0.2481692896604538,0.007659574842453002,0.2526055185422301
1761505929874095000,1.34509521484375,-0.3349041547834873,0.13308803549706935,0.21031331399679182
1761505929894251000,1.3652509765625,-0.4477355841934681,0.2822815487511456,0.22324966019839046
1761505929914407200,1.3854072265625,-0.5121142406016588,0.40532106844261284,0.12037768007107079
1761505929934563000,1.40556298828125,-0.5415677141010761,0.5397342150636018,0.10187442045733332
1761505929954719000,1.425718994140625,-0.4844675242632627,0.4740526593632996,0.07648308183029294
1761505929974875100,1.445875244140625,-0.31632454199790955,0.5884852403596044,0.13635551286041736
1761505929995031000,1.466031005859375,-0.2695049231559038,0.5070603182129562,0.19816607234627007
1761505930015187200,1.486187255859375,-0.1590273633956909,0.5198147319763898,0.20261881397143006
1761505930035343000,1.506343017578125,-0.08380114975869656,0.4717825224742293,0.20615400236025452
1761505930055499000,1.5264990234375,-0.0778168146520853,0.4316597709223628,0.22908304252699016
1761505930075655200,1.5466552734375,-0.07302724228799343,0.4159294100880623,0.1994395994134247
1761505930095812000,1.56681201171875,-0.07246843936145306,0.4185772942483425,0.10168956540971993
1761505930115968300,1.58696826171875,-0.05894260283410549,0.3718620125636458,0.05020400058329105
1761505930136124200,1.607124267578125,-0.049616556084156035,0.3090872842207551,0.03925400589331984
1761505930156280000,1.627280029296875,-0.020216858598589897,0.294697962731868,0.01951499393954873
1761505930176436200,1.647436279296875,-0.02910977462828159,0.27560207098722456,0.0073734513774514196
1761505930196592000,1.667592041015625,-0.02388356441259384,0.20894290242642163,-0.008984393705427645
1761505930216748300,1.687748291015625,-0.14304419684410094,0.1654717172294855,-0.02214168918132782
1761505930236904200,1.707904296875,-0.13931903884112834,0.12222411165535449,-0.06811287450045347
1761505930257060000,1.72806005859375,-0.16569208198189733,0.09980769718587398,-0.09481266537755727
1761505930277216300,1.74821630859375,-0.052072717064619065,0.08104089126512408,-0.07175619943886995
1761505930297372200,1.7683720703125,-0.13981120627224444,0.10410641729310155,-0.061494333143532275
1761505930317528300,1.7885283203125,-0.042031800043582916,0.06364172043576836,-0.23481223382875321
1761505930337684200,1.808684326171875,0.06529518673121928,0.03274477012977004,-0.2648332780830562
1761505930357840100,1.828840087890625,0.18356033162772653,-0.0015779168412089347,-0.2279917401589453
1761505930377996300,1.848996337890625,0.30437749909460543,-0.002762158189713955,-0.13035714922845362
1761505930398152200,1.869152099609375,0.29487492673397064,-0.013037468488514423,-0.06518149722367525
1761505930418308000,1.88930810546875,0.37413609497547146,-0.04548763958588242,-0.00044452889710664746
1761505930438464300,1.90946435546875,0.3443178798168897,-0.034837796886265274,0.09441694405823946
1761505930458620200,1.9296201171875,0.35152328115105624,-0.06720306617915629,0.24235329685807228
1761505930478777000,1.949777099609375,0.27574060267508027,-0.1262038289412856,0.37830315152704713
1761505930498933000,1.96993310546875,0.253536369651556,-0.11688377354070544,0.5534988287828863
1761505930519089200,1.990089111328125,0.26919921820759773,-0.1557921808667481,0.7025193235576153
1761505930539245000,2.0102451171875,0.22531682186126709,-0.24712694100067017,0.9254562645450234
1761505930559401000,2.03040087890625,0.034950317350029944,-0.33803061624094843,1.102611989827454
1761505930579557000,2.05055712890625,-0.15728198103308677,-0.28933950443863865,1.0649502215616404
1761505930599713000,2.070713134765625,-0.4513695567816496,-0.2144857773758471,0.797137050884962
1761505930619869200,2.090869140625,-0.5526058254659175,-0.11795666346922516,0.579579318717867
1761505930640025000,2.111025146484375,-0.4042202675938606,-0.00395750545412302,0.32193463696464897
1761505930660181000,2.131180908203125,-0.1521662454545498,0.004981441674381494,0.15676365624740718
1761505930680337200,2.151337158203125,0.10134674332141876,-0.10731441955417394,0.24916487656906244
1761505930700493000,2.1714931640625,0.26080197674036026,-0.31659619854614135,0.3881267725355923
1761505930720649200,2.191649169921875,0.319703078520298,-0.4445096078842878,0.407985903737694
1761505930740805000,2.21180517578125,0.32085575568675995,-0.5499713853091002,0.43673634353429075
1761505930760961000,2.2319609375,0.24896774656176565,-0.6434022409394383,0.313418006901443
1761505930781117200,2.2521171875,0.1683902350246906,-0.6296854118846357,0.35140184672847385
1761505930801273000,2.272273193359375,0.1378776078611612,-0.5453380264200269,0.5123085941299795
1761505930821429000,2.292428955078125,0.22602292430400847,-0.5666305514261126,0.3851066940620541
1761505930841585200,2.312585205078125,0.20776246047019958,-0.651886868429184,0.1879993369884789
1761505930861742000,2.3327421875,0.16616671375632286,-0.7116504322573542,0.16354951699525117
1761505930881898200,2.352898193359375,0.21692776370048522,-0.803835233349353,0.18248788009062408
1761505930902054100,2.37305419921875,0.23242110090851784,-0.8467381171390413,0.24538287381231783
1761505930922210300,2.393210205078125,0.3262497236847877,-0.852416893427819,0.28250454385206103
1761505930942366200,2.4133662109375,0.33850539414584635,-0.800830790836364,0.33674072256088255
1761505930962522000,2.433522216796875,0.3176543292969465,-0.7153289746396243,0.34709187457486984
1761505930982678300,2.45367822265625,0.16847206808924675,-0.6274718274883926,0.2709204890422523
1761505931002834200,2.473834228515625,0.043814591807127,-0.4536716962441802,0.16207812926843762
1761505931022994000,2.493993896484375,0.044938627400994295,-0.45591333769112824,0.1865893240600824
1761505931043149800,2.51414990234375,-0.08952245001494884,-0.7413898830913007,0.5047504338353872
1761505931063306000,2.534305908203125,-0.3616887013345957,-0.8103342399798333,0.7811698125548661
1761505931083462000,2.5544619140625,-0.6272375803411007,-0.7821224371045827,0.7726575664058327
1761505931103617800,2.57461767578125,-0.881360809969902,-0.4847171151101589,0.47924935122355816
1761505931123774000,2.59477392578125,-0.881508109486103,-0.17908859304115174,0.008611176478862762
1761505931143929900,2.614929931640625,-0.6971902374893426,0.09559066401273011,-0.21992336531989276
1761505931164086000,2.6350859375,-0.6776379802793264,0.32401524263098835,-0.35006636034101246
1761505931184242000,2.655241943359375,-0.5522124422341584,0.3940554319322109,-0.4937066233821213
1761505931204397800,2.675397705078125,-0.26843115644454957,0.3815649298019707,-0.340003158422932
1761505931224555000,2.695554931640625,0.0801695152580738,0.40717458735480905,-0.1721016567632556
1761505931244711000,2.7157109375,0.31904724496006964,0.5132876682952046,0.03521437511369586
1761505931264867000,2.7358671875,0.426868152731657,0.536555585027486,0.07601473366618156
1761505931285023000,2.75602294921875,0.4888771573990583,0.7514888139098882,-0.005130640886723995
1761505931305179100,2.77617919921875,0.39269291140735146,0.6186538763910532,-0.1384923787586391
1761505931325335000,2.7963349609375,0.3724854051589966,0.6220411807417869,-0.1406505797058344
1761505931345491000,2.816490966796875,0.25356851835548877,0.5367608983412384,-0.08225874262228608
1761505931365647000,2.836647216796875,0.1982809308975935,0.48383536383956666,0.021368805112689734
1761505931385803000,2.856802978515625,0.27140987999439237,0.5649298849880695,-0.013152765431255101
1761505931405959000,2.876958984375,0.2503898883193731,0.6286597220987081,-0.1351711253814399
1761505931426115000,2.897114990234375,0.21128537389934063,0.7048308153703808,-0.1140035419292748
1761505931446271000,2.91727099609375,0.013428221371769904,0.5853764606893063,-0.09225523597970604
1761505931466427100,2.93742724609375,-0.24850363618135451,0.5821133672401309,-0.04451689485758543
1761505931486583000,2.9575830078125,-0.5398170710414648,0.597974953238666,-0.08530044840574263
1761505931506739000,2.977739013671875,-0.673861968871951,0.5959414015844464,-0.18738208187296984
1761505931526895000,2.99789501953125,-0.6896808847725391,0.5775692940697074,-0.4042684906497597
1761505931547051000,3.018051025390625,-0.6909019510000943,0.5090630363374948,-0.4645746369220316
1761505931567208000,3.0382080078125,-0.69685939809978,0.5083902516424655,-0.4979610659562051
1761505931587363800,3.05836376953125,-0.5195218865096569,0.4623717200502753,-0.5711855843819678
1761505931607520000,3.07852001953125,-0.3162047150105238,0.37484877328947186,-0.5587544112235308
1761505931627676000,3.098676025390625,-0.07210954292118549,0.29500834385529157,-0.5396687486119568
1761505931647831800,3.118831787109375,0.16600480119287966,0.13096139873191714,-0.4327171710208058
1761505931667988000,3.138988037109375,0.36011283032000063,-0.084858695987612,-0.3809424139894545
1761505931688144000,3.159143798828125,0.4619038102775812,-0.22676672840863465,-0.32936551761776206
1761505931708300000,3.179300048828125,0.42302375226318834,-0.37366131707057354,-0.18065613461881874
1761505931728456000,3.1994560546875,0.48643619398772714,-0.543009437341988,-0.27980916728824373
1761505931748611800,3.21961181640625,0.20967618513703346,-0.515519372870028,-0.2992525572963059
1761505931768768000,3.23976806640625,0.10749123742580413,-0.44769948996677994,-0.31015900510549543
1761505931788924000,3.259923828125,-0.02968377512395382,-0.4240725306637585,-0.4702122044175863
1761505931809080000,3.280080078125,-0.07764204260706901,-0.3455462525680661,-0.5239088694222271
1761505931829236000,3.300236083984375,-0.12864976078867912,-0.34868995742127296,-0.4197621201187372
1761505931849391900,3.320391845703125,-0.16169979747533797,-0.37038594866171476,-0.29066008551791306
1761505931869548000,3.340548095703125,-0.0922737945497036,-0.4595762441128492,-0.17573840583041309
1761505931889705000,3.360705078125,-0.044995326024293895,-0.5434595191970467,0.002149725379794836
1761505931909861000,3.380861083984375,0.0655430240124464,-0.6561325431749224,0.07965221338570118
1761505931930017000,3.40101708984375,0.09296703751087187,-0.7512626039385795,0.23429303226023912
1761505931950173000,3.4211728515625,0.17513620215356349,-0.7687856934085487,0.23011837692409753
1761505931970329000,3.4413291015625,0.10558452702164649,-0.7893937432818114,0.2997407792046666
1761505931990485000,3.461485107421875,0.08313596384823321,-0.6932974678345024,0.11423019029200077
1761505932010641200,3.48164111328125,0.0391828403532505,-0.6007521628670394,0.0973106196731329
1761505932030793000,3.50179296875,0.05381693038344383,-0.5169111194893717,0.09973039416596292
1761505932050948900,3.521948974609375,0.03299333806335926,-0.43879678319543597,-0.0651399961695075
1761505932071105000,3.54210498046875,-0.10049860205948352,-0.383761270802468,-0.06527648203074932
1761505932091261000,3.562260986328125,-0.19467793796956537,-0.3754533150538802,-0.20545359900593757
1761505932111416800,3.582416748046875,-0.35190263585746284,-0.3954860492572188,-0.21131036221012472
1761505932131573000,3.602572998046875,-0.5006827460050582,-0.3482864911869168,-0.36853783657699823
1761505932151729000,3.62272900390625,-0.5779863504379987,-0.2362296994112432,-0.45082112911865113
1761505932171885000,3.642885009765625,-0.5601613554120063,-0.1828485300965607,-0.5174579397171736
1761505932192041000,3.663041015625,-0.532339867028594,-0.30512656389623877,-0.5978041267164051
1761505932212198100,3.6831982421875,-0.5021908124804496,-0.5964283083185553,-0.37577684791982174
1761505932232354000,3.70335400390625,-0.7688397616833448,-0.9480322534903883,0.05681976546123624
1761505932252510000,3.723510009765625,-1.089807161051035,-0.8138204746603965,0.12837313580438495
1761505932272665900,3.743665771484375,-1.2245610839337109,-0.641917409209162,0.015830752468854188
1761505932292821800,3.76382177734375,-1.3190057927817105,-0.16843173607885836,-0.14550211139023303
1761505932312978000,3.78397802734375,-1.177048222130537,0.257132056055963,-0.3479274486161768
1761505932333133800,3.8041337890625,-0.8036071236819028,0.6704417851649225,-0.5206840621568263
1761505932353289700,3.824289794921875,-0.3985468981325626,0.7741124413892626,-0.701172438993305
1761505932373446000,3.84444580078125,-0.2241787577420473,0.8307832998991012,-0.5733700888141989
1761505932393601800,3.864601806640625,-0.006173135676980019,0.7575926837429404,-0.333970381064713
1761505932413758000,3.884758056640625,0.24133389068245886,0.675801704762876,-0.30660818075612184
1761505932433913900,3.904913818359375,0.3858434839040041,0.6218313373833895,-0.27028628279194233
1761505932454069800,3.92506982421875,0.47286885640621185,0.6490495991766453,-0.3054647098094225
1761505932474226000,3.945225830078125,0.4303104021400213,0.633242373713851,-0.34721959260776636
1761505932494382800,3.9653828125,0.3892915785312652,0.6666939769387245,-0.3338350642472505
1761505932514539000,3.9855390625,0.42249651351869105,0.7200690087735653,-0.37549978454411026
1761505932534695000,4.00569482421875,0.4597603685081005,0.7211179333046078,-0.39473143149763346
1761505932554849000,4.02584912109375,0.48060792622566223,0.7269540921121835,-0.34436785643845796
1761505932575005000,4.0460048828125,0.48174774391055103,0.7427411515697836,-0.2907107927918434
1761505932595161000,4.0661611328125,0.5727478652626276,0.7257526073679328,-0.2841246923997998
1761505932615317000,4.08631689453125,0.5470815090864897,0.6594318769812584,-0.11881722582131624
1761505932635474000,4.106473876953125,0.5790571945399046,0.5513157856553793,0.03985124113410711
1761505932655629800,4.1266298828125,0.5632230810701847,0.4247805328026414,0.23541341459229587
1761505932675786000,4.146785888671875,0.4735410565793514,0.30301001013368367,0.4211427608221769
1761505932695942000,4.16694189453125,0.3164361856788397,0.19758359628319738,0.5809031146675347
1761505932716097800,4.187097900390625,0.18061434130370616,0.1039502038180828,0.5870072767615317
1761505932736254000,4.20725390625,0.13546703958809375,0.019955869574844836,0.7073439672350883
1761505932756409900,4.227409912109375,0.15426701712608337,-0.11749766765534878,0.7878279552698135
1761505932776566000,4.24756591796875,0.045700843945145606,-0.26830694554299117,0.8843940401859581
1761505932796722000,4.267721923828125,-0.1958972506314516,-0.37852000914812084,1.004182595257461
1761505932816877800,4.2878779296875,-0.3974415672391653,-0.39479309855699535,0.8687599793329834
1761505932837034000,4.308033935546875,-0.5553881496608257,-0.16592150682359932,0.6696893593624234
1761505932857190000,4.32818994140625,-0.49696694035232064,0.10227116468995809,0.369081880325824
1761505932877346000,4.348345947265625,-0.5173948113530874,0.2394149053186178,0.17623028100058435
1761505932897502000,4.368501953125,-0.22900690855085848,0.3614370646610856,-0.046157940062880515
1761505932917657900,4.388657958984375,0.08596271170675754,0.1484519011065364,-0.41793022851645945
1761505932937815000,4.40881494140625,0.07170622281730174,0.1425983527727425,-0.09065613021999597
1761505932957971700,4.4289716796875,0.16228958006203173,-0.11729936860427259,0.04152560408711433
1761505932978128000,4.4491279296875,0.15198562819063663,-0.3173039084240794,0.11544716486632824
1761505932998283800,4.46928369140625,0.1937584850370884,-0.432740113504976,0.1490995513603091
1761505933018440000,4.48943994140625,0.15524433772563934,-0.50604135042876,0.10512830768674611
1761505933038596000,4.50959619140625,0.0594341857433319,-0.5586059426635503,0.10644494324326514
1761505933058752000,4.529751953125,0.0016273089408874511,-0.6055962418973445,0.11680647052079439
1761505933078909200,4.5499091796875,-0.02433715339899063,-0.7103418338768184,0.05534136347174644
1761505933099065000,4.570065185546875,-0.125526075810194,-0.7454414965696633,0.04592120869755745
1761505933119221200,4.59022119140625,-0.21621873864829538,-0.7117844339005649,0.05843377652913331
1761505933139377200,4.610377197265625,-0.20818916144967078,-0.5991388824515045,0.017202917604893446
1761505933159533000,4.630532958984375,-0.154471015265584,-0.44915991790816184,-0.015738982532173394
1761505933179689200,4.650689208984375,-0.018617022186517715,-0.3136781191423535,-0.03395663013756275
1761505933199845000,4.67084521484375,0.12033610595166683,-0.3123217360973358,-0.012411445544660091
1761505933220001300,4.691001220703125,0.26309797872304913,-0.3466480763301253,0.039636283209174866
1761505933240157200,4.7111572265625,0.310644742795825,-0.4457023248001933,0.10019611198157072
1761505933260313000,4.73131298828125,0.4086883529186249,-0.47946460140943525,0.16477248291894792
1761505933280469200,4.75146923828125,0.4141203148394823,-0.48320276502445336,0.21220906461551783
1761505933300625200,4.771625244140625,0.4386415926337242,-0.45333720359280705,0.223235631673038
1761505933320781300,4.79178125,0.4986889418393373,-0.4481258986853063,0.2303551082894206
1761505933340937200,4.811937255859375,0.4610597606688738,-0.505816747892648,0.4208355945691466
1761505933361094100,4.83209423828125,0.2615893277257681,-0.5444312868386507,0.5253410941824317
1761505933381250000,4.85225,0.08212123384773731,-0.5333094427131116,0.5864088724769652
1761505933401406000,4.872406005859375,-0.1803986527264118,-0.41867783201336856,0.526561868149042
1761505933421562000,4.89256201171875,-0.22684534660279748,-0.453023899859935,0.4461674580939114
1761505933441718000,4.912718017578125,-0.4669575865358114,-0.6418018200054765,0.488293073900789
1761505933461874200,4.932874267578125,-0.7509083836734295,-0.5016999602235853,0.4905247784756124
1761505933482030000,4.953030029296875,-0.8888368449389934,-0.5676522956892848,0.37674920008331536
1761505933502186000,4.97318603515625,-0.7859159841686487,-0.38837943212240933,0.17652707199007273
1761505933522342100,4.993342041015625,-0.7394850723832845,-0.2952781007073819,0.07880231855809688
1761505933542498000,5.013498046875,-0.5158814841806888,-0.18156681972295044,0.09417042195126414
1761505933562654000,5.033654052734375,-0.24531974544823168,-0.014598288064450024,0.232411456297338
1761505933582810000,5.05381005859375,0.0023988778352737427,0.06454641419053077,0.4205702216312289
1761505933602966000,5.073966064453125,0.20280863745510577,0.029726883613318204,0.6115107266381382
1761505933623122200,5.0941220703125,0.3041904520899057,0.06450418248400092,0.7445790345214307
1761505933643279000,5.114279052734375,0.3280710938930511,0.06066431206017732,0.8224823584131896
1761505933663435300,5.134435302734375,0.33626316817700863,0.11464403178989886,0.862735750607401
1761505933683591200,5.154591064453125,0.31317279996871944,0.23612317029684782,0.7629635631263255
1761505933703747000,5.1747470703125,0.2884749965637922,0.2971525162771344,0.5384172872461378
1761505933723903200,5.1949033203125,0.20990531771779058,0.45909109094440936,0.2720728739477694
1761505933744059100,5.21505908203125,0.1180406884908676,0.6160472010239958,0.0654600219041109
1761505933764215300,5.23521533203125,0.08006488583981991,0.7716559881478547,-0.041211715832352634
1761505933784371200,5.25537109375,0.1048696567505598,0.8464864804655313,-0.11551160840466618
1761505933804527000,5.275527099609375,0.0045966801404953,0.9288263255000114,-0.19845351098552344
1761505933824683300,5.295683349609375,-0.08269640338718891,0.9269351049259305,-0.1375027831993997
1761505933844839200,5.315839111328125,-0.12113982354998588,0.9457090712398291,-0.14421645549386738
1761505933864995300,5.335995361328125,-0.05828676927387714,1.0127946485191583,-0.17177140189558265
1761505933885151200,5.356151123046875,-0.042964112457633014,1.0554454572439194,-0.23373072220236063
1761505933905307100,5.37630712890625,-0.0671679948657751,0.9544918048933148,-0.347253787138313
1761505933925464000,5.396464111328125,-0.03765723822116852,0.8013578834503888,-0.3911249314382672
1761505933945620000,5.416619873046875,-0.026667057651281356,0.6357929349794984,-0.34603038282319903
1761505933965776100,5.436776123046875,-0.03297112623155117,0.45707945886105295,-0.3080585256949067
1761505933985932000,5.45693212890625,-0.07113397588729858,0.36402094367444515,-0.2963612197689712
1761505934006088000,5.477087890625,-0.13153788344562053,0.3356590648040175,-0.3621804303742945
1761505934026243800,5.497243896484375,-0.2022235310435295,0.3617281565621495,-0.4690848078228533
1761505934046400000,5.51739990234375,-0.20365970132648945,0.3442199724003672,-0.5356029604777693
1761505934066556000,5.537555908203125,-0.22057459577023983,0.38362230072319503,-0.6180259537510574
1761505934086712000,5.557712158203125,-0.21854747385680673,0.35262422813028094,-0.6953498703196644
1761505934106868000,5.577867919921875,-0.10823533379137515,0.22737287760823963,-0.6880329714350402
1761505934127023900,5.59802392578125,0.018740356305241585,0.10324497815817595,-0.6173739195831119
1761505934147180000,5.618179931640625,0.10660685580670833,-0.0646918140105903,-0.47660512032508845
1761505934167336000,5.6383359375,0.21454174534678458,-0.23640914763137696,-0.39927228979766366
1761505934187491800,5.658491943359375,0.26427228319942947,-0.33898674792200323,-0.2955073794186115
1761505934207649000,5.67864892578125,0.2767506565004587,-0.41529345027208325,-0.185070151668787
1761505934227805000,5.698804931640625,0.24348960741162298,-0.47345513186156746,-0.08501169459223747
1761505934247961000,5.718961181640625,0.21199264538586138,-0.500908955976367,-0.049556642590463156
1761505934268117000,5.739116943359375,0.14740063848793505,-0.505960248016566,0.031802082452178
1761505934288273200,5.759273193359375,0.05130991599857807,-0.49327363879233593,0.08302212821021676
1761505934308429000,5.779428955078125,-0.010867430973052978,-0.5106494287461042,0.0863370979771018
1761505934328585000,5.7995849609375,-0.07984452108740805,-0.4934510411858558,0.09168561939820646
1761505934348741000,5.8197412109375,-0.13918226071894169,-0.4648365027286112,0.0690257515616715
1761505934368897000,5.83989697265625,-0.11640519624352455,-0.4611763727858662,0.023006050925701856
1761505934389053200,5.86005322265625,-0.09076865068376064,-0.45510874330997464,0.009041092328727246
1761505934409209000,5.880208984375,-0.02463642860651016,-0.5144020592778921,0.04984188927263021
1761505934429365000,5.900364990234375,-0.040807811206579205,-0.6114698101058602,0.11566109987795352
1761505934449521200,5.920521240234375,-0.08099369112253188,-0.6388638668574392,0.10997107154279946
1761505934469677000,5.940677001953125,-0.19764906273484228,-0.6340411228761077,0.04982420748546719
1761505934489834000,5.960833984375,-0.28420447963774204,-0.5562320531390607,-0.05317074143439531
1761505934509990000,5.980989990234375,-0.3908019830942154,-0.4690238714158535,-0.1272732117384672
1761505934530146000,6.00114599609375,-0.4085720330625772,-0.3695464290976524,-0.20300620585381984
1761505934550302000,6.021302001953125,-0.5064695127129555,-0.3302614435441792,-0.2906235528998077
1761505934570457900,6.041457763671875,-0.5156804086506367,-0.30336510718166826,-0.3899592486597597
1761505934590614000,6.061614013671875,-0.48107671278119085,-0.2809776265457272,-0.4803399229392409
1761505934610770000,6.08177001953125,-0.3140174340993166,-0.36838849123418327,-0.370788391982764
1761505934630925800,6.10192578125,-0.30920857251286504,-0.6987716614618897,-0.2977763472639024
1761505934651082000,6.12208203125,-0.6622136166542768,-0.9411693819835781,-0.06908303470686078
1761505934671238000,6.14223779296875,-0.7809276743620633,-0.6372305665671825,-0.09705123808458446
1761505934691394000,6.16239404296875,-0.5914958203524351,-0.3956665203906595,-0.4141404808446765
1761505934711550000,6.182550048828125,-0.32940146571397777,-0.04454962808340788,-0.5279661819890141
1761505934731705900,6.202705810546875,-0.1585439637929201,0.10362067960277199,-0.45987347349375485
1761505934751862000,6.222862060546875,0.016479425635933874,0.045682577636092896,-0.3698578331343829
1761505934772019000,6.24301904296875,0.03007540479004383,-0.059575640040636056,-0.13723726413100956
1761505934792175000,6.263175048828125,0.10420154823064803,-0.10875453535988926,-0.01515460677295923
1761505934812331000,6.2833310546875,-0.027820903861522674,-0.09534852581992745,-0.05528714906647801
1761505934832487200,6.303487060546875,-0.05651683699190616,0.0403169589497149,-0.05525324679687619
1761505934852643000,6.32364306640625,-0.20032617298960684,0.1752894930191338,-0.11355945142358541
1761505934872799000,6.343799072265625,-0.3003331921398639,0.3157932116001844,-0.1328945587515831
1761505934892955100,6.363955078125,-0.34636136834323406,0.4463543589681387,-0.17355097878873346
1761505934913111000,6.384111083984375,-0.22576515015065668,0.5618956318587064,-0.24180779180452225
1761505934933267200,6.40426708984375,0.027964111724495887,0.586410918303579,-0.17279212324544788
1761505934953423000,6.424423095703125,0.22899521811306475,0.577837443486601,-0.1526484760135412
1761505934973579000,6.4445791015625,0.4933306296765804,0.5042606044918299,-0.002506575993448496
1761505934993735200,6.464735107421875,0.5715677155673503,0.356198433355242,0.09208791658878326
1761505935013891000,6.48489111328125,0.659177025437355,0.3201416160680354,0.07274798695519566
1761505935034047500,6.505047607421875,0.604500847876072,0.2626717161349952,0.24324250078275797
1761505935054204700,6.52520458984375,0.4579512732595205,0.20427052670121193,0.43734921473562716
1761505935074360600,6.545360595703125,0.3625847733914852,0.1946288381308317,0.4544084860861301
1761505935094516500,6.5655166015625,0.3332663244485855,0.22084946718886495,0.46060427198633547
1761505935114672600,6.585672607421875,0.3361830886781215,0.29057489145249127,0.4748357725650072
1761505935134828500,6.60582861328125,0.27436697623431683,0.3511968256756663,0.5164243588857352
1761505935154984700,6.625984619140625,0.2874228571623564,0.33375206213891506,0.6324500542923808
1761505935175140600,6.646140625,0.3213146053701639,0.18541005114763975,0.7445873639583587
1761505935195296500,6.666296630859375,0.19238719668388365,0.034406565862149,0.9742124044075607
1761505935215452700,6.68645263671875,-0.08213643141686916,-0.1795911357358098,1.1267905916638672
1761505935235608600,6.706608642578125,-0.3412479708522558,-0.16211539253890514,1.0161815144784747
1761505935255764700,6.7267646484375,-0.5177221436113119,-0.057575113873183724,0.6921804465033113
1761505935275920600,6.746920654296875,-0.47313364482223985,0.12225216870605946,0.4194746814794838
1761505935296076500,6.76707666015625,-0.2553378661155701,0.2811749026834965,0.23871625552996992
1761505935316232700,6.787232666015625,-0.02192716964781284,0.22890651691630481,0.26160116429403424
1761505935336389600,6.8073896484375,0.1695423276692629,0.06267492123022675,0.25548501950129865
1761505935356545800,6.8275458984375,0.12301555429399012,-0.27989216939657924,0.2675106805987656
1761505935376701700,6.84770166015625,0.06964519863426685,-0.4983849904567003,0.4456510330043733
1761505935396857900,6.86785791015625,-0.018517068943381308,-0.5052648130983114,0.21271277635395525
1761505935417013800,6.888013671875,-0.14654314487576484,-0.36090339617580175,0.40407632907852525
1761505935437169700,6.908169677734375,-0.17210954780876636,-0.3349878875441849,0.44527357799410816
1761505935457325800,6.928325927734375,-0.2333329550564289,-0.4061123649507761,0.4643935812667012
1761505935477481700,6.948481689453125,-0.30834581820368767,-0.3874113177426159,0.5043048820249736
1761505935497637600,6.9686376953125,-0.35302316431999203,-0.5421075200662017,0.5214844187542795
1761505935517793500,6.98879345703125,-0.3913502646267414,-0.5106174261726438,0.5189991778098046
1761505935537949400,7.008949462890625,-0.3806798175305128,-0.5285571336194873,0.5615938724331557
1761505935558105600,7.029105712890625,-0.31001638176441193,-0.4144190055251121,0.5646479993067681
1761505935578261500,7.049261474609375,-0.19051029689610002,-0.3169198775425553,0.5486784228891134
1761505935598417400,7.06941748046875,-0.06635667848289012,-0.2037188841678202,0.4800361176870763
1761505935618573600,7.089573486328125,-0.05554536161124706,-0.19446619491502642,0.4697610996492207
1761505935638730500,7.10973046875,-0.1243763212531805,-0.40914413386210796,0.6710759914152323
1761505935658886700,7.12988671875,-0.34139351680278773,-0.5308319466836751,0.8290877480275929
1761505935679042600,7.15004248046875,-0.4710545004606247,-0.42910117248073215,0.7084558739997446
1761505935699198700,7.17019873046875,-0.5923761103183031,-0.20301468142122028,0.601297521790117
1761505935719354600,7.190354736328125,-0.2486345690846443,0.017952128536999224,0.25551453785672784
1761505935739510500,7.210510498046875,0.1660164916306734,0.19492139133661984,0.07824979924187064
1761505935759666700,7.230666748046875,0.38910745413601394,0.42482787907570596,0.0890083630129695
1761505935779822600,7.250822509765625,0.46534722872972484,0.3936335532583296,0.2367240587994456
1761505935799978800,7.270978759765625,0.5758417396247386,0.17444924280270932,0.26999109923765063
1761505935820134700,7.291134765625,0.5116121362984181,0.006612111616134643,0.4404642780162394
1761505935840290600,7.31129052734375,0.4371043000638485,-0.04469312820732593,0.674924191275984
1761505935860446700,7.33144677734375,0.3255763544678688,0.047062341556698084,0.8577807585485279
1761505935880602600,7.3516025390625,0.06100947223603725,0.26135318088233467,0.8675473886728287
1761505935900758800,7.3717587890625,-0.21466215685606002,0.46162207072675226,0.6118181851521134
1761505935920915700,7.391915771484375,-0.4158434853702783,0.7023217551589012,0.5447247898925095
1761505935941072000,7.41207177734375,-0.44657706180810924,0.8892572623081505,0.4539074046961963
1761505935961227800,7.432227783203125,-0.39358781442046165,0.9715247727587819,0.4763987840980291
1761505935981383700,7.4523837890625,-0.17654431538581847,1.0293737351372838,0.2730727717053145
1761505936001539600,7.47253955078125,-0.05947919392883777,1.068487894168496,0.2998893208298832
1761505936021695500,7.492695556640625,0.07326514269709587,1.0281159901611507,0.324037308332324
1761505936041851400,7.512851318359375,0.07650456300973892,0.989523663046956,0.23044768194369972
1761505936062007600,7.533007568359375,0.04289923052787781,0.9438745492890477,0.20280827212892472
1761505936082163500,7.55316357421875,0.05952829376757145,0.8813657784059643,0.2487291155003011
1761505936102319400,7.5733193359375,0.033389643904566765,0.8191226727217435,0.20753478919416665
1761505936122475300,7.593475341796875,-0.05915595332384109,0.8141329016104341,0.1979346747431904
1761505936142631200,7.613631103515625,-0.16287644003927707,0.7979685332730412,0.04052716763429343
1761505936162787300,7.633787353515625,-0.265890239790082,0.7497276494562626,0.01767937601022422
1761505936182943200,7.653943115234375,-0.35129765570163723,0.6574515168190002,0.012685367115214466
1761505936203100400,7.674100341796875,-0.40117783115804195,0.6515680117383599,-0.06437909479960799
1761505936223256300,7.69425634765625,-0.4588140275686979,0.6327057826191187,-0.11875913895852863
1761505936243412500,7.71441259765625,-0.48061435596644875,0.6170239371016621,-0.22064919537641106
1761505936263568400,7.734568359375,-0.45444297287762164,0.5576116709291935,-0.2919023406639695
1761505936283724300,7.754724365234375,-0.39620822605192657,0.5162967869833112,-0.2895294009875506
1761505936303880400,7.77488037109375,-0.25949498579502106,0.4754895602986216,-0.24264015097543595
1761505936324036400,7.795036376953125,-0.10855740535259246,0.37720571167916056,-0.08761603187173604
1761505936344192300,7.815192138671875,0.049529462322592734,0.3220823748722672,0.027214024009555575
1761505936364348400,7.835348388671875,0.18179566004276274,0.2677227159142494,0.1265629445772618
1761505936384504300,7.85550439453125,0.2241653137385845,0.15367665001749992,0.2683556800555438
1761505936404660500,7.875660400390625,0.24531097761988638,0.1017082701101899,0.39643063663095235
1761505936424816400,7.89581640625,0.13153203822672366,0.10839783087670803,0.23488602971732614
1761505936444972300,7.91597216796875,0.07948445560336112,0.12790537216216324,0.35632388636581597
1761505936465128400,7.93612841796875,0.19121113864183426,0.16241817487776278,0.469313794273138
1761505936485284400,7.956284423828125,0.08601882580816746,0.22564736898988483,0.41621743324920535
1761505936505441500,7.976441650390625,-0.14318272853195665,0.3636135319173336,0.16813180328421293
1761505936525597400,7.996597412109375,-0.37288054195642467,0.5036676070347428,-0.013520648895576595
1761505936545751300,8.016751220703124,-0.416332730191946,0.6988669385299087,-0.16064575837776063
1761505936565907500,8.036907470703126,-0.43781449415981766,0.8641875568509101,-0.08906834957189858
1761505936586063400,8.0570634765625,-0.224375157096982,0.8026707196146249,-0.3729015116792172
1761505936606219300,8.07721923828125,-0.14429273560047148,0.8073080240264534,-0.39499424715228376
1761505936626375400,8.09737548828125,-0.1506488266289234,0.7932567023202777,-0.2734135479670018
1761505936646532400,8.117532470703125,-0.11760229707360267,0.7408782803073525,-0.3463184790495783
1761505936666688500,8.1376884765625,-0.1578641648352146,0.6071934479609131,-0.3654604749582708
1761505936686844400,8.157844482421876,-0.2126677681684494,0.5699158567070961,-0.20031426335610447
1761505936707000600,8.17800048828125,-0.21012451342642305,0.5296294390261173,-0.1562561451166868
1761505936727156500,8.198156494140624,-0.1620598629593849,0.5646718185737729,-0.14447693306095896
1761505936747312400,8.2183125,-0.1900719054788351,0.5886708260595798,-0.07685776036158204
1761505936767468500,8.238468505859375,-0.18356033162772653,0.5641162305176258,-0.06690583679825067
1761505936787624400,8.25862451171875,-0.2607943779557943,0.5508820704132318,-0.16598025127351282
1761505936807780400,8.2787802734375,-0.3534095332890749,0.5079352013513445,-0.2596283298511058
1761505936827936500,8.2989365234375,-0.31418694544732567,0.48479777913093564,-0.36073892632909116
1761505936848092400,8.319092529296874,-0.31864275581240653,0.3822705938532948,-0.43235805538482963
1761505936868248600,8.33924853515625,-0.11573065798282622,0.343001682651788,-0.5020830412570387
1761505936888404500,8.359404541015625,-0.04006254579722881,0.24555647681355475,-0.5601679312832654
1761505936908560400,8.379560302734374,-0.05646013836860656,0.09325418388918041,-0.283282250226289
1761505936928717300,8.39971728515625,-0.17883681023716924,-0.15171777103468775,-0.06931647813655435
1761505936948873200,8.419873291015625,-0.1347159289598465,-0.2197157869838178,0.010379209064692259
1761505936969029400,8.440029296875,-0.16468378172218798,-0.16461802300959824,0.07170761105678976
1761505936989185300,8.460185302734375,-0.09818214181065558,-0.14888605474010108,0.13085874207504092
1761505937009341400,8.480341552734375,-0.022790508478879926,-0.13768690759465096,0.21307539912126958
1761505937029497600,8.50049755859375,-0.10964461606740951,0.02959624297097325,0.2708679551374167
1761505937049653800,8.52065380859375,-0.09198328717052937,0.16381269797608256,0.24471849161945283
1761505937069809700,8.5408095703125,0.03418342463076114,0.23574352332949636,0.1687883674968034
1761505937089965600,8.560965576171874,0.09335691361129284,0.1644260075688362,0.06987681543305516
1761505937110121700,8.581121826171875,0.23604513662457466,0.1506331906683743,-0.08636369372308254
1761505937130277600,8.601277587890625,0.20340134265124796,-0.15844576411545275,0.06615107290819287
1761505937150433800,8.621433837890624,0.25853227824270725,-0.19721534749269484,-0.0846203571870923
1761505937170589700,8.641589599609375,0.25218261695504185,-0.18491145397573708,0.16365312350019812
1761505937190745600,8.66174560546875,0.18832535407245157,-0.09504545122012495,0.45514819853752847
1761505937210901800,8.68190185546875,0.1723655683964491,0.056712067303061484,0.36031156776249407
1761505937231058700,8.70205859375,0.1579465824216604,0.05089256736934185,0.11964008651152253
1761505937251214800,8.72221484375,0.2907587235867977,-0.0052162733435630795,-0.14991612844020127
1761505937271370800,8.742370849609374,0.24243337635695933,-0.15722206753939388,-0.04435761264264583
1761505937291526700,8.762526611328125,0.19537118093073366,-0.180174488581717,0.09173501149788499
1761505937311682800,8.782682861328125,0.1257347501248121,0.07596957935020326,0.33355449374020096
1761505937331838700,8.802838623046876,0.2738204482674598,0.27255641968101263,0.4037130487240851
1761505937351995000,8.822994873046875,0.21355098074376583,0.22437866422832012,0.6507727697074412
1761505937372150800,8.84315087890625,-0.06028992578983307,0.22576222754120825,0.7467666076935827
1761505937392306700,8.863306640625,-0.24764789613485336,0.19011589075103402,0.7344295425593853
1761505937412462600,8.883462646484375,-0.322149887150526,0.07784618687704205,0.7401911748260259
1761505937432618500,8.903618408203124,-0.3423153078228235,0.23136516211479902,0.8315842410184443
1761505937452774700,8.923774658203126,-0.4357049546599388,0.39444121637940405,0.9217369517609476
1761505937472930600,8.9439306640625,-0.39784897899627686,0.26968612494170663,0.7105499236695468
1761505937493086500,8.96408642578125,-0.339660409399867,0.10027239208817482,0.6821333920024335
1761505937513243600,8.98424365234375,-0.40702480362057686,-0.12872238763347268,0.5824648110263049
1761505937533399600,9.004399658203125,-0.36611937725842,-0.3109450409166515,0.57810530064255
1761505937553555700,9.0245556640625,-0.22295593794882296,-0.37993513664305206,0.48290977342724795
1761505937573711600,9.044711669921876,-0.11090484526157378,-0.45154505947902795,0.3847305542260408
1761505937593867800,9.06486767578125,0.04349368928968906,-0.6033788581088185,0.2679414732314646
1761505937614023700,9.085023681640624,0.1111830776810646,-0.8421054889023304,0.335169527721405
1761505937634179600,9.1051796875,0.21020868457853792,-1.0011663161762059,0.3843064835950732
1761505937654335700,9.125335693359375,0.22212708590924737,-1.1930008474133909,0.4102522412344813
1761505937674491600,9.14549169921875,0.27876959510743615,-1.2999673303127288,0.4635682363584637
1761505937694647800,9.165647705078126,0.3014420301645994,-1.3170615268461405,0.5999800094507635
1761505937714803700,9.1858037109375,0.37098669103384013,-1.2514794859975575,0.6701888333171606
1761505937734959600,9.205959716796874,0.3495008354127407,-1.2161805013403295,0.6861218771167099
1761505937755115800,9.22611572265625,0.22349720521867275,-1.1903002101525664,0.7953422764226794
1761505937775271700,9.246271728515625,0.07887421475052833,-1.0511832697547971,0.8355391161240637
1761505937795427600,9.266427490234374,-0.0047772974044084544,-0.8640054782822728,0.7017217434391378
1761505937815584800,9.286584716796876,-0.08171265304684638,-0.6267910056173801,0.5918484331823886
1761505937835740700,9.30674072265625,-0.2355021157890558,-0.40937297418192026,0.5035666308782994
1761505937855896800,9.326896728515624,-0.3329956908136606,-0.09720847447291016,0.3380579426392913
1761505937876052700,9.347052734375,-0.3590279576927423,0.10095233717635273,0.29452348294779657
1761505937896208600,9.367208740234375,-0.35296354308724404,0.20029329363331197,0.2076639685317874
1761505937916364500,9.387364501953124,-0.37523908778131004,0.2146006359271705,0.1287387542463839
1761505937936520700,9.407520751953125,-0.4231348114222288,0.28447248292416333,0.04707914656102657
1761505937956676600,9.427676513671875,-0.36745325621068475,0.32982875121533867,0.1078230997286737
1761505937976832500,9.44783251953125,-0.2956523408472538,0.3529413312554359,0.08716185836344957
1761505937996988700,9.46798876953125,-0.16421908681988714,0.3512948792226612,-0.024301059172302485
1761505938017144600,9.48814453125,-0.02692074015140533,0.43291663911566136,-0.04973696759343147
1761505938037300000,9.508300048828126,0.11258242308497428,0.4350266170069575,-0.0919639979481697
1761505938057455900,9.528455810546875,0.17188742949068544,0.45579204939901824,-0.030959201887249946
1761505938077612000,9.548612060546875,0.21272797392308712,0.43230698278471824,-0.029627368761599063
1761505938097768000,9.568767822265626,0.24666414579451082,0.40383696736469865,-0.04802475684806704
1761505938117924900,9.5889248046875,0.27195114726424213,0.3514754964865744,0.011592530377209186
1761505938138080800,9.609080810546875,0.34955519594848156,0.3526020162984729,0.011850889052450657
1761505938158237000,9.62923681640625,0.3515449084609747,0.29718787985146045,0.06556684327945113
1761505938178392800,9.649392822265625,0.2842377973854542,0.33976533107906576,0.08019596487358212
1761505938198548700,9.669548828125,0.20594518191516398,0.3182324214458465,0.04800853636562824
1761505938218705000,9.689704833984376,0.08598550806045532,0.3390406700663268,-0.04162541119977831
1761505938238860800,9.70986083984375,-0.04247369859218597,0.3640368718959391,-0.10296674573868513
1761505938259017000,9.730016845703124,-0.07626490903496742,0.42636020320951934,-0.14100216962248086
1761505938279172900,9.7501728515625,-0.13516951794624327,0.41477629453018305,-0.1493485576853156
1761505938299328800,9.770328857421875,-0.24033786538243293,0.49827276225388045,-0.1726898319147527
1761505938319485000,9.79048486328125,-0.32153906177580355,0.6134628836192191,-0.2502767833337188
1761505938339640800,9.810640869140625,-0.34823417647778987,0.7403390588641167,-0.37470235055610535
1761505938359797000,9.830796875,-0.33133857125639915,0.8610602186106144,-0.4461911312304437
1761505938379953000,9.850952880859374,-0.35820202826261516,0.8829672222532331,-0.4840000528819859
1761505938400108800,9.87110888671875,-0.43493455480933185,0.8143957903303205,-0.49950201178789133
1761505938420265000,9.891264892578125,-0.5290221207827329,0.6344122942760586,-0.4038463197149336
1761505938440422000,9.911421875,-0.6240975287497044,0.4685539158165455,-0.3229468827471137
1761505938460578000,9.931578125,-0.677774758401513,0.45099078659713265,-0.3055776686646044
1761505938480734000,9.95173388671875,-0.5981172843188047,0.5093260711878538,-0.37564869149550795
1761505938500889900,9.971889892578124,-0.3645055123209953,0.46474648635759946,-0.43894291366785765
1761505938521046000,9.9920458984375,-0.18984686455130576,0.35769320195764304,-0.4001110787093639
1761505938541202000,10.012201904296875,-0.017715689432621,0.2593548466719687,-0.30014482996091246
1761505938561358000,10.032358154296874,0.11928572011590004,0.12984744614064692,-0.1405946117348969
1761505938581514000,10.052513916015625,0.20207506248354912,-0.062217532851547,-0.03950403513163328
1761505938601670000,10.072669921875,0.208850840228796,-0.1670885047763586,-0.007084405303001404
1761505938621826000,10.092825927734374,0.21165011555850505,-0.23218539245650172,-0.029072949749231337
1761505938641982000,10.11298193359375,0.1712707588970661,-0.30405118974968787,-0.031507629550248384
1761505938662138000,10.13313818359375,0.1457160464018583,-0.33660029117688534,-0.011846066746860742
1761505938682294000,10.1532939453125,0.10935352416634558,-0.3228019213184714,-0.054134471900016065
1761505938702450000,10.173449951171875,0.1056061543315649,-0.31585575544238087,-0.16346709940880536
1761505938722605800,10.193605712890625,0.08772972137928009,-0.3158417269170284,-0.21468933712393043
1761505938742762800,10.2137626953125,0.15166063401997087,-0.2847434088200331,-0.27127660900354383
1761505938762919000,10.2339189453125,0.22807868779003618,-0.26278189851120115,-0.26736908017098904
1761505938783074800,10.25407470703125,0.36234336585104465,-0.3311706673435867,-0.2618210906550288
1761505938803231000,10.27423095703125,0.3864712604135275,-0.4070801870696246,-0.19935703569650648
1761505938823387000,10.294386962890625,0.33435996490418907,-0.533340422373265,-0.16257628804892302
1761505938843542800,10.314542724609375,0.23630524886548518,-0.6397016328558326,-0.21974662051349877
1761505938863699000,10.334698974609376,0.1873620619982481,-0.7495102073132991,-0.23650749343931673
1761505938883854800,10.354854736328125,0.06266425370573997,-0.7763318710044026,-0.2354629528224468
1761505938904010800,10.3750107421875,-0.042191374519467355,-0.7305776894368231,-0.3544723402149975
1761505938924167000,10.3951669921875,-0.07232523149847984,-0.7091217905625701,-0.42319136391505596
1761505938944322800,10.41532275390625,-0.19155483751296995,-0.7259038524068891,-0.5174171693153679
1761505938964479000,10.43547900390625,-0.15651917996704579,-0.7356463710032403,-0.5162868501111865
1761505938984635000,10.455634765625,-0.163637487539649,-0.7639145802408457,-0.5534228409372269
1761505939004790800,10.475790771484375,-0.20713000778555868,-0.7626280475616455,-0.5305513761766255
1761505939024947000,10.495947021484374,-0.3251052298247814,-0.8940044568352401,-0.5087016556791961
1761505939045103900,10.516103759765626,-0.3383054876595735,-0.9001184096708893,-0.46028000846803185
1761505939065260800,10.5362607421875,-0.47205987811088557,-0.9452635194294154,-0.15066314741522072
1761505939085416700,10.556416748046875,-0.16068448295295237,-0.4440510504618287,-0.08974822159484028
1761505939105572600,10.576572509765626,-0.7813672348231077,-0.5028729495257139,-0.3523477492764592
1761505939125728800,10.596728759765625,-0.9013818537354469,-0.3409406584687531,-0.26474983758330345
1761505939145884700,10.616884765625,-1.0445540608733892,-0.17588102917149662,-0.27608123280629515
1761505939166040800,10.637040771484376,-0.4876467388212681,-0.00898658566251397,-0.40214112323224543
