time,seconds_elapsed,z,y,x
1761505817678215700,0.080215576171875,0.32326047874093056,0.11706395241320132,0.2027698032820597
1761505817698372900,0.100372802734375,-0.0482540355592966,-0.12472381951659917,0.23409761928599326
1761505817718528800,0.12052880859375,0.17016133635044098,-0.1362850779727101,0.0948148208020255
1761505817738686000,0.14068603515625,0.01603869613111019,-0.17501695968806744,0.07192574731949716
1761505817758841900,0.160841796875,-0.013031331008672714,-0.24883798270225524,0.002658478619530797
1761505817778998800,0.180998779296875,-0.11395604952573776,-0.381455185817182,-0.02912975797038525
1761505817799154700,0.20115478515625,-0.10473521671593189,-0.4429457195684314,-0.029680706384032963
1761505817819311900,0.221311767578125,-0.034622985091805454,-0.42771658625453707,0.032255963699519635
1761505817839467800,0.2414677734375,-0.055014031213521955,-0.2826636799365282,-0.05737951823584735
1761505817859625000,0.261625,0.05351882421970367,-0.14343874911963939,-0.11309640048909932
1761505817879780900,0.28178076171875,-0.051392333585023875,-0.06826923410594463,-0.17642543824650347
1761505817899937800,0.301937744140625,0.1332511171042919,-0.029262042580544947,-0.30625779641587286
1761505817920094200,0.32209423828125,0.17742986604869365,-0.08370411912500858,-0.2591426652260125
1761505817940251100,0.342251220703125,0.11691899098455905,-0.20796119791269302,0.010430427795276045
1761505817960407300,0.3624072265625,0.27398645248413084,-0.24947043538689612,0.11242635574042796
1761505817980564200,0.382564208984375,0.18586451691687106,-0.2730345585867762,0.25378720260746773
1761505818000720400,0.402720458984375,0.11046937645375728,-0.24110037418752908,0.19870193278864026
1761505818020876300,0.422876220703125,0.20610241830348966,-0.16333996589779853,0.10703633326515555
1761505818041033000,0.443032958984375,0.1213350538611412,-0.2834258964806795,0.18966179030798375
1761505818061189000,0.463189208984375,0.05181552743315696,-0.2807669064044952,0.23694062415957448
1761505818081346000,0.483345947265625,-0.008225976553559302,-0.2731029476478696,0.18468188300356267
1761505818101502200,0.503502197265625,-0.037675942921638485,-0.24348960741162298,0.17504267865121365
1761505818121659100,0.5236591796875,0.0010585691422224045,-0.11960793780758976,0.09196684749238193
1761505818141815300,0.543815185546875,-0.07605857280790805,-0.06372603771835565,0.11737827905938028
1761505818161972000,0.563971923828125,-0.07038871047794819,-0.01288359310105443,0.048102059867978095
1761505818182128000,0.584128173828125,-0.09732231011092662,-0.02625906137228012,-0.01755056199878454
1761505818202285000,0.60428515625,-0.12460370026826857,-0.00507248095870018,-0.05024338274560868
1761505818222441200,0.624441162109375,-0.023374445846676827,0.011658435220271348,-0.1827748803384602
1761505818242598100,0.64459814453125,-0.01240706163048744,-0.08376081774830818,-0.14970672347322106
1761505818262754300,0.66475439453125,0.16609657112956047,-0.17732333693429828,-0.19843246819749474
1761505818282911000,0.684910888671875,0.28072949700355526,-0.27657763802111146,-0.12204627087041735
1761505818303067100,0.705067138671875,0.3582803541958332,-0.33723420516625047,-0.0686288611985743
1761505818323224000,0.72522412109375,0.4332598995953798,-0.438799559674412,-0.006584931348264217
1761505818343380200,0.745380126953125,0.40771746205985543,-0.5694006006613374,0.01604592958949506
1761505818363537200,0.765537109375,0.27284955740869044,-0.6547453266002238,0.07535451619178056
1761505818383693300,0.785693359375,0.22378420546650885,-0.7400052968651056,0.12455708464756607
1761505818403850000,0.80585009765625,0.19554946010708807,-0.6289283099070191,0.14738924031108616
1761505818424006100,0.826006103515625,0.07155366260409354,-0.6277747559577226,0.06593012363389134
1761505818444163000,0.8461630859375,-0.013104396244883536,-0.7150520573943853,-0.008876914742961525
1761505818464319200,0.8663193359375,-0.17602292186021803,-0.6834438900791108,-0.06600823037140072
1761505818484476200,0.88647607421875,-0.17979951778948305,-0.7173314005032181,-0.12842172418646514
1761505818504632300,0.90663232421875,-0.17012041981816292,-0.7142945170253515,-0.18161489664837718
1761505818524788200,0.926788330078125,-0.08184475499391555,-0.6909434520542621,-0.25387217747718094
1761505818544945200,0.946945068359375,-0.0071019409596920005,-0.7481551394425332,-0.2574790428627282
1761505818565101000,0.96710107421875,0.04630290149152279,-0.8050912247598171,-0.20951434563882648
1761505818585258200,0.98725830078125,0.12498247045278549,-0.8117106428995728,-0.10873466161563992
1761505818605414100,1.0074140625,0.18934359120428562,-0.8471602880738676,-0.011618249340355396
1761505818625571300,1.0275712890625,0.19351123227775097,-0.8481826168589294,0.05465060472860932
1761505818645727200,1.047727294921875,0.17531740393936632,-0.770543935252726,0.11423713148944079
1761505818665884200,1.06788427734375,0.16999591665565966,-0.7217825346931814,0.09301124197877943
1761505818686040000,1.0880400390625,0.20310908170640468,-0.6405958052165805,0.138320456257835
1761505818706197200,1.108197265625,0.1780336771607399,-0.6301223419971763,0.14805705657005308
1761505818726353200,1.128353271484375,0.17410101388692856,-0.5893757594585418,0.18825082753151653
1761505818746510000,1.148510009765625,0.07553308762907981,-0.5587137869521975,0.20796879669725893
1761505818766666200,1.168666259765625,0.008217793247103691,-0.5090376096352934,0.13767938187532125
1761505818786823000,1.188822998046875,-0.1270949325621128,-0.4810138766780495,0.10525668330676853
1761505818806979000,1.20897900390625,-0.1930699182510376,-0.42394335132613775,0.006608019962906837
1761505818827136000,1.229135986328125,-0.27055180186033245,-0.41887218554168937,-0.018961305579543113
1761505818847292200,1.249292236328125,-0.3248077081829309,-0.5285635633602738,-0.013153057692199944
1761505818867449000,1.269448974609375,-0.5101625220119953,-0.7610887091651558,0.11492701344974339
1761505818887605200,1.289605224609375,-0.6417793159127235,-0.7763765869289636,0.08573869369253516
1761505818907760600,1.3097607421875,-0.7221972529739141,-0.6951639923587442,-0.11751922190003096
1761505818927917600,1.32991748046875,-0.6774941878944635,-0.5972811257556081,-0.3172633572179824
1761505818948073700,1.35007373046875,-0.6588508622229099,-0.42985462119653817,-0.4837480508822947
1761505818968230400,1.37023046875,-0.49931087312996386,-0.4258278498984873,-0.5542134067930281
1761505818988386600,1.390386474609375,-0.47494507815837855,-0.4326720167048275,-0.5923486377894878
1761505819008543500,1.41054345703125,-0.4325461983680725,-0.5077377790831029,-0.5414072628423571
1761505819028699600,1.43069970703125,-0.4817898294866085,-0.556631427720189,-0.5388208265457302
1761505819048856600,1.450856689453125,-0.40991409532129763,-0.4931503046736121,-0.5470248835284263
1761505819069012700,1.4710126953125,-0.2701286080121994,-0.41866497253179547,-0.5089228972144425
1761505819089169400,1.49116943359375,-0.20947160247564314,-0.3272837429076433,-0.42128056185767054
1761505819109325600,1.51132568359375,-0.13693711214065551,-0.1954740567833185,-0.35422830232605335
1761505819129482500,1.531482421875,0.011321019959449768,-0.03479176578745246,-0.22819646895080803
1761505819149638700,1.551638671875,0.17417933982014655,0.0544566895917058,-0.12899506709501146
1761505819169795600,1.571795654296875,0.26768939816653725,0.13485636034384368,-0.04719795063510537
1761505819189951700,1.59195166015625,0.24467677136957644,0.179670922973752,-0.03463876718282699
1761505819210108400,1.6121083984375,0.3112538146048784,0.22295403825268148,0.10048398901224136
1761505819230264600,1.6322646484375,0.1776794568955898,0.2687600961379707,-0.005649988585710525
1761505819250421500,1.65242138671875,0.16308569887578486,0.34963907483965156,-0.02994052636399865
1761505819270577700,1.67257763671875,0.14934008211791513,0.3716483698129654,-0.1024468135178089
1761505819290733600,1.692733642578125,0.25315526137948036,0.36280747623145576,-0.07119374325051904
1761505819310890800,1.712890869140625,0.2709352482199669,0.3439961005166173,-0.019916706608235836
1761505819331046700,1.733046630859375,0.3736743226826191,0.2545294723421335,0.08608093125894666
1761505819351203300,1.753203369140625,0.33743922621905803,0.2163181073695421,0.2798288949020207
1761505819371359500,1.773359375,0.3892313727766275,0.21617606855034827,0.3498391274563968
1761505819391516400,1.793516357421875,0.387083839353919,0.21419950778037308,0.3854074305742979
1761505819411672600,1.813672607421875,0.4116904573440551,0.2434931145429611,0.40977980141714215
1761505819431829500,1.83382958984375,0.3712900578945875,0.23120967929214237,0.3970493530511856
1761505819451985700,1.853985595703125,0.29064649538397785,0.22453005539774892,0.41705213050767775
1761505819472142300,1.874142333984375,0.2798445308625698,0.1590650650575757,0.4138568415977061
1761505819492298500,1.894298583984375,0.26621231135129925,0.09141776224225759,0.5005778243258595
1761505819512455400,1.914455322265625,0.26502105574011803,0.03358078256249428,0.581621638200432
1761505819532611600,1.934611572265625,0.21861177126467227,-0.06931465150564908,0.6792848707035184
1761505819552768500,1.9547685546875,0.169672676050663,-0.24591420421004295,0.7513337694786488
1761505819572924700,1.974924560546875,0.032006665113568304,-0.3519000055089593,0.865817788401246
1761505819593081600,1.99508154296875,-0.07669336358010768,-0.35702275535017247,0.7608322501860558
1761505819613237500,2.015237548828125,-0.05495265641510486,-0.2673381005108356,0.5025443020932376
1761505819633394400,2.03539453125,-0.06947218015491963,-0.05774447909072041,0.2957932106226682
1761505819653550600,2.055550537109375,-0.061253802385926245,0.11658157572373747,0.12554141950979827
1761505819673707500,2.07570751953125,0.06920154651999473,0.09824804665371775,-0.0063562371589243405
1761505819693863700,2.09586376953125,0.1856540890365839,0.00395575188845396,0.16204875704348087
1761505819714019600,2.11601953125,0.26167700600922106,-0.08163812650591135,0.19240049455687402
1761505819734176500,2.136176513671875,0.2073778450667858,-0.25698490267023444,0.3423607543997466
1761505819754332400,2.15633251953125,0.1939589760452509,-0.5015104290008544,0.45849619379118084
1761505819774489600,2.176489501953125,0.1017851347386837,-0.678150752107054,0.5717736134029925
1761505819794645500,2.1966455078125,0.11487199532687663,-0.7998892722025513,0.5627533446665853
1761505819814802700,2.216802734375,0.06806523596644401,-0.8289850183054804,0.5792145770587027
1761505819834958600,2.23695849609375,0.05859598135352134,-0.8445105042174458,0.538858162881434
1761505819855115800,2.25711572265625,0.004045475998520851,-0.8060296746537089,0.5308239095076919
1761505819875271700,2.277271728515625,-0.003493687334656715,-0.710420744331926,0.4471091959234327
1761505819895428600,2.2974287109375,-0.0729547615736723,-0.5744165291272103,0.41203927078172564
1761505819915584300,2.317584228515625,-0.041734278401732446,-0.3944530529476702,0.3198476746227592
1761505819935741400,2.337741455078125,-0.06887129165232181,-0.2756995400123298,0.288253828093782
1761505819955897300,2.3578974609375,-0.05186462727189064,-0.2139903950743377,0.35341793579123915
1761505819976054500,2.378054443359375,-0.06388882706463336,-0.200651313290745,0.3954565309017896
1761505819996210400,2.39821044921875,-0.10950374629199504,-0.303388926448673,0.4705095068637281
1761505820016367400,2.418367431640625,-0.2361480124771595,-0.5256473836526274,0.6316787045937031
1761505820036523300,2.438523193359375,-0.485336123791337,-0.882120834556967,0.804495816149935
1761505820056680400,2.458680419921875,-0.7830746232628822,-0.874109523667395,0.7292808545593172
1761505820076836400,2.47883642578125,-1.021066217780113,-0.6359950334228575,0.4291789138920605
1761505820096993500,2.49899365234375,-1.0758289045810698,-0.28431743849292396,0.09805142810307442
1761505820117149400,2.5191494140625,-0.9600012159645557,0.10123407672718167,-0.20261406473107635
1761505820137306400,2.539306396484375,-0.8854378501504659,0.31519597635939717,-0.21805947114415467
1761505820157462300,2.559462158203125,-0.6081260526359081,0.4487355550162494,-0.33387276590913534
1761505820177619500,2.579619384765625,-0.35172084954977034,0.35747751338034867,-0.38761341618597506
1761505820197775400,2.599775390625,-0.19994740280508994,0.34624081070348617,-0.3980830069478601
1761505820217932500,2.6199326171875,0.0049514849275350565,0.4924973937228322,-0.3931690044865012
1761505820238088400,2.64008837890625,0.4181839110165834,0.5575047034233808,-0.6043213265907019
1761505820258245400,2.660245361328125,0.347211847692728,0.5022213537491858,-0.44190212879963214
1761505820278401300,2.6804013671875,0.2657376795768738,0.4444451643459499,-0.5454842299576849
1761505820298558500,2.700558349609375,0.27231998057663437,0.439341265335679,-0.5406378128398209
1761505820318714400,2.72071435546875,0.3951601783037185,0.4479166398487985,-0.450247859275341
1761505820338870300,2.740870361328125,0.46733927932977676,0.5176052392333745,-0.3392106928709894
1761505820359027500,2.76102734375,0.47334641079008577,0.5574971046388149,-0.23672376653850077
1761505820379183400,2.781183349609375,0.5292600211918354,0.5321335308015346,-0.25252953069657086
1761505820399340300,2.80134033203125,0.5201280357092619,0.4648027465894818,-0.15127017339766025
1761505820419496200,2.82149609375,0.5240326419323682,0.31729221798628565,-0.09247099762223661
1761505820439653400,2.8416533203125,0.3442594276279211,0.20327450140118597,-0.045977176668494935
1761505820459809300,2.861809326171875,0.21073124714791774,0.22643384319245813,-0.06027743163444101
1761505820479966500,2.881966552734375,0.11901976265609264,0.19940715844854712,-0.12063998426906763
1761505820500122400,2.902122314453125,0.2091600523084402,0.2862815781727433,-0.31298984461724755
1761505820520279300,2.922279296875,0.20190262852609156,0.3107885351806879,-0.33265849474854764
1761505820540435200,2.942435302734375,0.2484212185949087,0.2532728964097798,-0.3004031155709177
1761505820560592400,2.96259228515625,0.3084001787394285,0.03491699960231781,-0.127936132626608
1761505820580748300,2.982748291015625,0.30000585988163947,-0.21717706228643655,0.1293085169583559
1761505820600905500,3.002905517578125,0.02905482957065105,-0.41303164281994104,0.37104558161422607
1761505820621061400,3.023061279296875,0.0549380433678627,-0.5240096994481981,0.2953067422799766
1761505820641218300,3.04321826171875,-0.05567044929563999,-0.5424254999741912,0.23049378610774873
1761505820661374200,3.063374267578125,-0.1020551838517189,-0.500918308326602,-0.008712444896250962
1761505820681531400,3.083531494140625,-0.1325719026684761,-0.47383770143836734,-0.2578859431631863
1761505820701687300,3.103687255859375,-0.12037936057150363,-0.4563701415479183,-0.41918665831834073
1761505820721844500,3.123844482421875,-0.13331073833703994,-0.46172611562311644,-0.3925243499074131
1761505820742000400,3.14400048828125,-0.19398118787705898,-0.5193481373779475,-0.24940270391292868
1761505820762157600,3.164157470703125,-0.24592531012594698,-0.5920166293561459,-0.11199015628024934
1761505820782313500,3.1843134765625,-0.3545452593207359,-0.6439695194333791,-0.06846534119993448
1761505820802470400,3.204470458984375,-0.3721814537763595,-0.651471711757034,-0.15569887656010686
1761505820822626300,3.224626220703125,-0.42060850781500336,-0.7014988944686948,-0.2165956091366708
1761505820842783500,3.244783447265625,-0.4653729476928711,-0.7928431530833244,-0.24412352140098809
1761505820862939400,3.264939453125,-0.41068507969379425,-0.788742732027173,-0.2596148127824068
1761505820883096600,3.2850966796875,-0.28189912530481814,-0.7429555249728262,-0.32252420035563406
1761505820903252500,3.30525244140625,-0.1695411586254835,-0.6313502763569354,-0.40547231348156926
1761505820923413800,3.325413818359375,-0.17233517325818537,-0.5840851057045161,-0.39908991896808144
1761505820943569700,3.345569580078125,-0.08989069880545139,-0.668468585395813,-0.4216961569212377
1761505820963726800,3.365726806640625,-0.149345927336812,-0.5777873207345604,-0.37756665394604205
1761505820983882800,3.3858828125,-0.05288461796939373,-0.4707306753337383,-0.5765384897172451
1761505821004039700,3.406039794921875,-0.03879354877471924,-0.3520183711916208,-0.6352353010967373
1761505821024195600,3.426195556640625,0.042843116426467896,-0.19660218403041363,-0.6986487657345831
1761505821044352800,3.446352783203125,0.13639584487080572,-0.24644202747642993,-0.6713276280887425
1761505821064508700,3.4665087890625,0.14970014760196207,-0.29944734921604393,-0.6431665324874222
1761505821084665900,3.486665771484375,0.10430851573646067,-0.40396687735468145,-0.5228096760086715
1761505821104821800,3.50682177734375,0.06572247223258018,-0.5453996934793889,-0.4194954320065677
1761505821124978700,3.526978759765625,0.03793371707499027,-0.8288026474758983,-0.15060732557475565
1761505821145134600,3.547134521484375,-0.1512935542732477,-0.8588127319447696,0.036748160552233455
1761505821165291800,3.567291748046875,-0.3954097691506147,-0.8340659748315811,-0.05252718283385038
1761505821185447700,3.58744775390625,-0.48098377380073065,-0.6403137734048068,-0.3203871152617037
1761505821205604900,3.60760498046875,-0.5055681799590588,-0.45144379106163973,-0.5018437526084483
1761505821225760800,3.6277607421875,-0.43151627079844473,-0.3445186630859971,-0.703276863926649
1761505821245917700,3.647917724609375,-0.3530272559732199,-0.06751549312919378,-0.6682423754245043
1761505821266073600,3.668073486328125,-0.2685503989100456,-0.0012573065847158432,-0.5369675268292426
1761505821286230800,3.688230712890625,-0.17540975839793682,-0.030641514240205288,-0.37411329862177367
1761505821306386700,3.70838671875,-0.3129623720884323,0.06549450869560242,-0.3899637787044048
1761505821326543600,3.728543701171875,-0.2820657140433788,0.10514087490737438,-0.33955987163484097
1761505821346699800,3.74869970703125,-0.27704408648908135,0.14261486551612615,-0.2664129484899342
1761505821366856400,3.7688564453125,-0.1897235304325819,0.22283698774427174,-0.3049680123336613
1761505821387012600,3.7890126953125,-0.16478607305288315,0.28822014501988885,-0.2753168243050575
1761505821407169500,3.80916943359375,-0.05260346294045448,0.3427972461208701,-0.22102847701758144
1761505821427325700,3.82932568359375,0.07622983772158622,0.3861573721587658,-0.1902533995255828
1761505821447482600,3.849482666015625,0.21175766758620737,0.3999550113648176,-0.13885741267874835
1761505821467638800,3.869638671875,0.33962066191136836,0.40423809551149603,-0.07919087948426604
1761505821487795700,3.889795654296875,0.4898965635746717,0.3352227192133665,0.041760874147713185
1761505821507951600,3.90995166015625,0.6034463703870773,0.2624596808195114,0.14092778921201823
1761505821528108500,3.930108642578125,0.6522288137346506,0.22220307375490664,0.4244447249770164
1761505821548264700,3.9502646484375,0.6221838040828704,0.16884207044541835,0.40025384818091986
1761505821568421600,3.970421630859375,0.38736557890474793,0.29860388412922617,0.4067544622465968
1761505821588577800,3.990577880859375,0.28888708449602124,0.39532764382511376,0.30741905874758957
1761505821608734700,4.010734619140625,0.26404899583756924,0.5100140534520149,0.3478368477232754
1761505821628891000,4.030890869140625,0.2853092260092497,0.5378209287881851,0.46658539222255346
1761505821649047600,4.051047607421875,0.22640637066364286,0.49920156753659245,0.6029118251189589
1761505821669203700,4.07120361328125,0.0803437027812004,0.31362229730188845,0.8099224443085491
1761505821689360600,4.091360595703125,-0.07232347793281078,0.16136691225916147,0.7844353902220725
1761505821709516800,4.111516845703125,-0.31424481311440466,0.0209115628644824,0.7085965976446866
1761505821729673700,4.131673828125,-0.5084972191482782,0.0327694661796093,0.58952831967175
1761505821749830000,4.151829833984375,-0.5969032323539256,0.12693711165189742,0.36890038627907634
1761505821769986600,4.171986572265625,-0.423913979101181,0.24541122312396763,0.23037921981737017
1761505821790142700,4.192142822265625,-0.2339209840774536,0.21301117477864026,0.09452844160869717
1761505821810299600,4.212299560546875,-0.01749707824587822,0.2094362389013171,0.11862857138141988
1761505821830456800,4.232456787109375,0.13547054671943187,0.008458616265654563,0.17888079550936817
1761505821850612700,4.25261279296875,0.2905307600498199,-0.18167495627254246,0.2547776018843055
1761505821870769700,4.272769775390625,0.4185083206653595,-0.33468028289973734,0.2308148347556591
1761505821890925600,4.292925537109375,0.5699503434985875,-0.4767442365348339,0.2508751876182854
1761505821911078400,4.313078369140625,0.576312864267826,-0.611367518775165,0.2713106574036181
1761505821931234300,4.333234375,0.5629746592670679,-0.7684183214008807,0.3228118581905961
1761505821951391500,4.3533916015625,0.5521931530117988,-0.8693161519110202,0.35889644026756284
1761505821971547400,4.37354736328125,0.4636638056874275,-0.87744802044034,0.27224428499192
1761505821991704600,4.39370458984375,0.47104222550094127,-0.8668915551126003,0.3138984838947654
1761505822011862300,4.4138623046875,0.5569260267525911,-0.8542854637786745,0.25802403645962474
1761505822032018400,4.434018310546875,0.5795137061357498,-0.7885112613588571,0.21701924137622117
1761505822052175400,4.45417529296875,0.5339800354510545,-0.7039034713923931,0.24686463680267332
1761505822072331500,4.47433154296875,0.53702831710577,-0.7099924359172582,0.21185265239328144
1761505822092488200,4.49448828125,0.44621115110516546,-0.6840811650693416,0.2369676582969725
1761505822112644400,4.514644287109375,0.42270343426764007,-0.6993341176502407,0.24040406248643992
1761505822132801300,4.53480126953125,0.3594616729348898,-0.6794720638386905,0.3026496523886919
1761505822152957400,4.55495751953125,0.2962041295111179,-0.7570525855168699,0.41747327852919697
1761505822173114400,4.5751142578125,0.16532617127895355,-0.9910179932579397,0.5981155307531356
1761505822193270500,4.5952705078125,-0.07524667190313339,-1.237034488798678,0.8142804933875799
1761505822213427200,4.61542724609375,-0.40021161647439,-1.2750571993313728,0.8122896118313073
1761505822233583400,4.635583251953125,-0.6702636521190405,-1.0581553007245064,0.7685347873874008
1761505822253740300,4.655740234375,-0.748342917099595,-0.7428672621674836,0.462070106755197
1761505822273896400,4.675896484375,-0.7168377717673778,-0.466420264788717,0.2690912277884781
1761505822294053400,4.696053466796875,-0.7697948704510926,-0.2917604479752481,0.20468246850296853
1761505822314209500,4.71620947265625,-0.8557026371002197,-0.15627382690384983,0.31287279410883784
1761505822334366200,4.7363662109375,-0.9469839134812355,-0.06747501498833298,0.2900068823061883
1761505822354522400,4.7565224609375,-0.9759241767615079,-0.022722119417786596,0.18751228412389753
1761505822374679300,4.77667919921875,-0.819388630181551,0.1635949635721743,-0.006548544860631227
1761505822394835500,4.79683544921875,-0.4997089325368404,0.29366818129271266,-0.18484934852495788
1761505822414992400,4.816992431640625,-0.2132721638023853,0.40720337505787607,-0.2221872916638851
1761505822435148500,4.8371484375,-0.02158405529856682,0.40859307585060595,-0.12760916569456457
1761505822455305200,4.85730517578125,0.2937450459212065,0.3334884427666664,-0.13125921263471246
1761505822475461400,4.87746142578125,0.3952145388394594,0.38098070017322894,-0.05224456650018692
1761505822495618300,4.897618408203125,0.3412356958925724,0.568432486281544,0.03845189573019743
1761505822515774500,4.9177744140625,0.5879968723207711,0.7778729629665613,-0.5404606296420097
1761505822535931400,4.937931396484375,0.4601747945278883,0.9797589326187968,-0.5572381614416837
1761505822556087600,4.958087646484375,0.4852735799491405,0.9245490865722298,-0.5530062229603528
1761505822576244500,4.978244384765625,0.37296412858664985,0.6786603090643882,-0.48079848036170003
1761505822596401400,4.9984013671875,0.1709615468174219,0.4271437548026442,-0.2778736691810191
1761505822616557300,5.018557373046875,-0.050506782922148705,0.25063714107871055,-0.2454426411755383
1761505822636714500,5.038714599609375,-0.23788228892385957,0.31760406041443345,-0.2967738922230899
1761505822656870400,5.058870361328125,-0.34351182413101194,0.5492527156457304,-0.4813651743337512
1761505822677027600,5.079027587890625,-0.16865853057205676,0.7713874003395438,-0.7300209323368966
1761505822697183500,5.09918359375,-0.10235679714679717,0.9433705452896654,-0.7753212326571345
1761505822717340400,5.11934033203125,0.24276713835597036,0.9129793525487184,-0.7729884057953953
1761505822737496300,5.139496337890625,0.3891898717224598,0.7284674192845821,-0.6526141597904265
1761505822757653500,5.159653564453125,0.48457975246608254,0.41067996512725946,-0.44621728858500714
1761505822777809400,5.179809326171875,0.42746904123425483,0.03711509416848421,-0.28160891018658873
1761505822797966600,5.199966552734375,0.5017997673362493,-0.2870559235461056,-0.24499592032134532
1761505822818122500,5.22012255859375,0.37443712374866006,-0.5966511572889983,-0.1437675426825881
1761505822838279400,5.240279541015625,0.17022504923641682,-0.649072395530343,-0.17660408274903894
1761505822858435300,5.260435302734375,-0.0012467851907014846,-0.6694641723044217,-0.3672901746034622
1761505822878592500,5.280592529296875,-0.19634265631139278,-0.5538828596644103,-0.5320381076030433
1761505822898748400,5.30074853515625,-0.257693489331007,-0.5636319541320204,-0.6533455428048968
1761505822918905900,5.32090576171875,-0.3455062128186226,-0.5889123797304928,-0.560882801554352
1761505822939061800,5.341061767578125,-0.318910466837883,-0.7120904311098158,-0.4753229715600609
1761505822959218700,5.36121875,-0.41510231161415573,-0.7636934848360717,-0.2803239849425852
1761505822979374800,5.381374755859375,-0.44127953992187974,-0.8694258958958089,-0.21650603115707634
1761505822999531800,5.40153173828125,-0.4861567925244569,-0.9975416959382593,-0.14477978846505282
1761505823019688000,5.42168798828125,-0.4480494724482298,-1.0250747227691113,-0.05364113542512059
1761505823039844900,5.441844970703125,-0.43519174444079395,-1.0234081047311425,-0.06099705114588141
1761505823060001000,5.4620009765625,-0.5215671286016702,-1.007668391546607,-0.1600492537893355
1761505823080157700,5.48215771484375,-0.5419996757775545,-0.8650783682107925,-0.26388854457885025
1761505823100313900,5.50231396484375,-0.5421364538997412,-0.6520869210459291,-0.38169630109667774
1761505823120470800,5.522470703125,-0.5402677374184132,-0.48960006484612817,-0.5489800361841917
1761505823140627000,5.542626953125,-0.5732733504414558,-0.5303473780371248,-0.4608192299112677
1761505823160784000,5.562783935546875,-0.5923416235268115,-0.6130543028183281,-0.43432343717366456
1761505823180940000,5.58293994140625,-0.6559732609599829,-0.5775611107632518,-0.329794556684792
1761505823201096700,5.6030966796875,-0.7139929037302732,-0.48559842798933384,-0.2590105632789433
1761505823221252900,5.6232529296875,-0.7974789961904287,-0.3319014658361673,-0.3035002778686583
1761505823241409800,5.643409912109375,-0.6891004545360803,-0.09553060438856482,-0.30514293050915003
1761505823261566000,5.66356591796875,-0.5198860436469316,-0.04478679784014821,-0.28647987722381946
1761505823281723000,5.683722900390625,-0.39845045202076435,0.021068360861390828,-0.2126185221992433
1761505823301879000,5.703879150390625,-0.41296646862924097,-0.008419453299045563,0.05999123510420322
1761505823322035700,5.72403564453125,-0.4301742085397243,0.0002674187645316124,0.1561601373963058
1761505823342191600,5.744191650390625,-0.30003683954179283,0.04358049079030752,0.09898644393086432
1761505823362348800,5.764348876953125,-0.12242109553217888,0.19513678765296935,-0.044222734216600654
1761505823382504700,5.784504638671875,0.05657061300575733,0.45656785607710476,-0.06784414056167005
1761505823402662000,5.804661865234375,0.30852409738004205,0.523966006436944,-0.10867357907816767
1761505823422817800,5.82481787109375,0.43254210671484467,0.5321360150195658,0.03268894828930497
1761505823442974700,5.844974609375,0.5424187779724597,0.4317369278118014,0.2005573513969779
1761505823463130600,5.865130615234375,0.7088146243095398,0.3237117296397686,0.35694077615514397
1761505823483287800,5.885287841796875,0.7468634921967983,0.3049099985361099,0.46210547032952304
1761505823503443700,5.905443603515625,0.7122182952731847,0.282471956756711,0.5741672305412591
1761505823523601000,5.925600830078125,0.7764280248552561,0.3091320001453161,0.6483882126584649
1761505823543756800,5.9457568359375,0.7305056471139192,0.2831552628457546,0.7346895086698234
1761505823563913700,5.965913818359375,0.6287772109985351,0.2604775670915842,0.7608212904006242
1761505823584069600,5.986069580078125,0.5460913290053606,0.20443623865693805,0.869113322815299
1761505823604226800,6.006226806640625,0.5101180983483791,0.1360115217283368,1.009377971943468
1761505823624384000,6.026384033203125,0.30056057115495205,0.09473287813961505,1.0298550889134406
1761505823644540000,6.046539794921875,-0.12101999656260012,0.2311462586671114,0.8166913539215922
1761505823664696600,6.066696533203125,-0.3264075445950031,0.49191053374558685,0.48409722964614627
1761505823684852700,6.086852783203125,-0.6031769057959318,0.7693757682561874,0.25965368348807094
1761505823705009700,6.107009765625,-0.3412637529432773,0.8846177659392357,0.18267668066099285
1761505823725165800,6.127165771484375,0.004247136050462723,0.8310583174481987,-0.0947331704005599
1761505823745322800,6.14732275390625,0.08763385978937148,0.700787092937529,-0.24056509826704858
1761505823765479000,6.16747900390625,-0.05293956302702427,0.48914881394729015,0.07152443650960921
1761505823785635600,6.187635498046875,0.048266310518980025,0.16641849656030536,0.29064678764492274
1761505823805791700,6.207791748046875,0.06715864251554012,-0.08243629114627837,0.4940048756763339
1761505823825948700,6.22794873046875,0.08706395094692707,-0.2808918479584157,0.5167917308934032
1761505823846104800,6.248104736328125,-0.11017068576812744,-0.460608948161453,0.46087066783756014
1761505823866261800,6.26826171875,-0.16488953342735765,-0.4718574874065816,0.3148782887123525
1761505823886418000,6.28841796875,-0.18621523005068302,-0.4878942838415503,0.19265724579691887
1761505823906574800,6.308574951171875,-0.19748890373706818,-0.4640367306530475,0.04507672069743275
1761505823926730800,6.328730712890625,-0.16381284410655497,-0.4399535520151257,-0.0017006664380431174
1761505823946887700,6.3488876953125,-0.08869710510671139,-0.35766046873182056,-0.007008271326869726
1761505823967043600,6.369043701171875,0.013252280282974243,-0.2585334472864866,0.05323445432037115
1761505823987200800,6.38920068359375,0.0752770670413971,-0.18124299459606408,0.0419378381498158
1761505824007356700,6.409356689453125,0.08503916712105274,-0.09443769458532333,0.11352920241579413
1761505824027513900,6.429513916015625,0.1371194829702377,-0.0721399380594492,0.09055150080174207
1761505824047669800,6.449669677734375,0.1672796434342861,-0.15126199009120464,0.16338395116999743
1761505824067826700,6.46982666015625,0.15172025525271893,-0.18346183968931434,0.2342484624661505
1761505824087982600,6.489982666015625,0.15835983939766882,-0.2257490757986903,0.3573467266075313
1761505824108139800,6.510139892578125,0.14348667991459368,-0.2650561270534992,0.4729265779428184
1761505824128295700,6.530295654296875,0.08845745113193988,-0.2701318228825927,0.5703589242994785
1761505824148452900,6.550452880859375,0.0619616583943367,-0.3008911182835698,0.6565370323225855
1761505824168608800,6.57060888671875,0.07665478513538837,-0.3171858350023627,0.6408161699689925
1761505824188765400,6.590765380859375,0.05127016851007938,-0.30294658950865266,0.7158350244656205
1761505824208921600,6.610921630859375,0.034005145454406735,-0.3396756069689989,0.7015513553082943
1761505824229078500,6.63107861328125,0.07856266458332538,-0.6017585634306073,0.847370131432265
1761505824249234700,6.651234619140625,-0.05416004473268986,-1.0279960170432925,1.0945515790991485
1761505824269391600,6.6713916015625,-0.12434475707113742,-1.2222384862050413,1.1135241367250681
1761505824289547800,6.6915478515625,-0.45310558679401874,-1.115104099392891,0.913049202914536
1761505824309704400,6.711704345703125,-0.7161749239444732,-0.5249760602623224,0.7862954850055277
1761505824329860600,6.731860595703125,-0.43397243177890776,-0.09941665204167366,0.2538974580489099
1761505824350017500,6.752017578125,-0.013121347379684447,0.31629063972830773,-0.2699481368787586
1761505824370173700,6.772173583984375,0.23665070130228996,0.6204033504068851,-0.3282099178418517
1761505824390330600,6.79233056640625,0.3128571581482887,0.5867758060932159,-0.09329583107382058
1761505824410486800,6.81248681640625,0.40765608726143837,0.4284416856586933,0.24196108267009256
1761505824430643500,6.8326435546875,0.3559714927315712,0.23390169485509393,0.4331066087298095
1761505824450799600,6.852799560546875,0.33163375481069085,0.08633388310670852,0.6281061798691749
1761505824470956500,6.87295654296875,0.24488369211852548,0.2588239546656608,0.7316945646375417
1761505824491112700,6.89311279296875,0.05400865356326103,0.23926994388997552,0.6832701409474015
1761505824511269600,6.91326953125,0.006115852531790733,0.2893599627047777,0.6368649481251836
1761505824531425800,6.93342578125,-0.13288053022623061,0.3873404444634914,0.3780613055951893
1761505824551582500,6.95358251953125,-0.18473229801654814,0.5057382758289575,0.3162001849658787
1761505824571738600,6.973738525390625,-0.06352876158058643,0.7384215348049998,0.19335501880273223
1761505824591895600,6.9938955078125,0.14232581944167613,0.9691612584978342,0.20963322277814148
1761505824612051700,7.0140517578125,0.23909575636684893,1.1115241950795054,0.21986191745623945
1761505824632208600,7.034208740234375,0.24413608862161634,1.023347314454615,0.25983167040348054
1761505824652364800,7.05436474609375,0.20731530122458933,0.8004930833145976,0.25334625390693544
1761505824672521500,7.074521484375,0.20483049867153166,0.5674269625008106,0.04292378044724464
1761505824692677600,7.094677734375,0.01605097109079361,0.6820324158459902,0.24191081378757953
1761505824712834600,7.11483447265625,-0.21436288164854048,0.6909113033503294,0.1835012949168682
1761505824732990700,7.13499072265625,-0.30879765362441536,0.5644266116410493,0.03960691098421812
1761505824753147600,7.155147705078125,-0.55659226475358,0.43196226100027557,-0.17021745045185088
1761505824773303800,7.1753037109375,-0.7297106973439454,0.4089721382960677,-0.29517770907282825
1761505824793460500,7.19546044921875,-0.7350970665574074,0.3265548441112041,-0.46503640921488404
1761505824813616600,7.21561669921875,-0.6367904215842485,0.34529198554605245,-0.4828320320159197
1761505824833773600,7.235773681640625,-0.46583705807328224,0.3463908866986632,-0.5051959856458008
1761505824853929700,7.2559296875,-0.3774374746084213,0.32691286376863715,-0.3722304074846208
1761505824874086700,7.276086669921875,-0.13237374974787233,0.21574527591764925,-0.2935055380769074
1761505824894242600,7.29624267578125,-0.08862170178294182,0.05273351906090974,-0.22462781668379903
1761505824914399500,7.3163994140625,-0.12031155603229998,-0.1646966412037611,-0.1457880887247622
1761505824934555400,7.336555419921875,-0.03175590522289276,-0.29235972904264923,-0.06879676511138677
1761505824954712000,7.356712158203125,-0.04338905987143516,-0.2578273448437452,0.08581848093047738
1761505824974868200,7.3768681640625,-0.042209494698047634,-0.13349223238378763,0.13913696027249098
1761505824995025200,7.397025146484375,-0.14548691382110118,0.07222995443046093,0.1713524458311498
1761505825015181300,7.417181396484375,-0.21366262442469597,0.31437633053958414,0.22667831947281955
1761505825035338200,7.437338134765625,-0.24281156201958654,0.5734940074548125,0.12000102877840399
1761505825055494400,7.457494384765625,-0.2409142039656639,0.7302046183407306,0.10820230830460786
1761505825075651000,7.477651123046875,-0.30403964544236656,0.86378686709553,0.021121552353352308
1761505825095807200,7.49780712890625,-0.39883331385850906,0.8466314418941736,-0.03259220991656184
1761505825115964200,7.517964111328125,-0.5960246959537268,0.771004830762744,0.02428571547269821
1761505825136120300,7.538120361328125,-0.6756003369718789,0.810345199765265,-0.019048545471578835
1761505825156277200,7.55827734375,-0.7374246327221393,0.8195359296977519,-0.1192193768814206
1761505825176433400,7.578433349609375,-0.8740963719248771,0.8058493496507406,-0.1584758669927716
1761505825196590000,7.598590087890625,-0.9652952307194471,0.5050599381759763,-0.10524506593421101
1761505825216746200,7.618746337890625,-1.0402911427319048,0.23592969355136154,-0.16191767800971865
1761505825236903200,7.638903076171875,-0.8821610204368829,0.20549013162404298,-0.3025922231130302
1761505825257059300,7.659059326171875,-0.6631693099439143,0.16099895572960377,-0.29637992446944117
1761505825277216300,7.67921630859375,-0.2417243513047695,0.38701720385849475,-0.2874284101203084
1761505825297372400,7.699372314453125,0.006197101074457168,0.537423746164143,-0.35637218248695135
1761505825317529000,7.719529052734375,0.25862054104804993,0.5719678208008409,-0.3540772034175694
1761505825337685200,7.739685302734375,0.3643897769868374,0.38911417613774535,-0.16731310731247068
1761505825357842200,7.75984228515625,0.35042145738899705,0.19149872341156005,-0.07922083623111248
1761505825377998300,7.779998291015625,0.29785365028381344,0.0737453274294734,-0.021946751131117343
1761505825398155300,7.8001552734375,0.34697160919606684,0.0626692221418023,-0.003391688264906406
1761505825418311400,7.8203115234375,0.43729660776555535,-0.04710574230700731,-0.04726107899919152
1761505825438468000,7.840468017578125,0.45113925515711306,-0.11461743604391812,0.002395809095352888
1761505825458624300,7.860624267578125,0.4032674969136715,-0.09796382288485765,0.05080152808502316
1761505825478781200,7.88078125,0.3160895641982555,-0.21614684245586394,0.2395788637086749
1761505825498937300,7.900937255859375,0.20361469314098357,-0.28880554369240996,0.17192220854312182
1761505825519094300,7.92109423828125,0.11839900040924549,-0.34925416717529295,0.10398279091343283
1761505825539250400,7.94125048828125,0.1441267313838005,-0.26925153291672466,-0.32593525090813635
1761505825559406300,7.96140625,-0.025548282754421232,-0.2873968459382653,-0.4952862937889993
1761505825579563300,7.981563232421875,-0.2706733824133873,-0.29833968023508783,-0.3479442536205053
1761505825599718400,8.001718505859374,-0.1518774916410446,-0.2506482469946146,-0.08967975946851074
1761505825619874300,8.021874267578125,0.06832184107601642,-0.1315767541512847,-0.14146364965438843
1761505825640031200,8.04203125,0.05003156662583351,-0.269726456952095,-0.031770006813481445
1761505825660187100,8.062187255859374,0.0787450354129076,-0.2702224237754941,0.28478264485187826
1761505825680344300,8.08234423828125,0.06202303319275379,-0.3448585625648498,0.5742971039986238
1761505825700500200,8.102500244140625,-0.0019026187509298324,-0.5444643123254179,0.8554499775134027
1761505825720657400,8.122657470703125,0.05035305366516113,-0.49952977657765146,0.9908204248592257
1761505825740813300,8.142813232421876,0.11564005708992481,-0.26076573638319966,1.1154932448409498
1761505825760970200,8.16297021484375,0.22085165914595126,-0.04708236143141985,1.1981439093902706
1761505825781126100,8.183126220703125,0.30290742654204367,0.1796127630457282,1.1713376624640077
1761505825801283300,8.203283447265624,0.4470931946367025,0.47723552718311546,1.0098541380878536
1761505825821439200,8.223439208984376,0.45973640311062336,0.6959402374282478,0.7662786790236831
1761505825841596400,8.243596435546875,0.5099965177953243,0.8097700302258133,0.5864439437903464
1761505825861752300,8.26375244140625,0.4705670092046261,0.6491361084163189,0.590231864831224
1761505825881909200,8.2839091796875,0.4634375957161188,0.2744035088524222,0.5875264783300459
1761505825902065200,8.304065185546875,0.29366262833476064,-0.07867021661102772,0.7476090498670935
1761505825922222300,8.324222412109375,0.2515378893107176,-0.4281497169747948,0.879825855487585
1761505825942378500,8.34437841796875,0.026211130577325818,-0.7359753106966614,0.8955250905312597
1761505825962535400,8.364535400390626,0.11507482442259788,-0.801809134349227,1.0407374251946806
1761505825982693400,8.384693359375,0.05582943924963474,-0.8623419289842248,1.0768033756364137
1761505826002849300,8.404849365234375,0.10350129100680351,-0.8100330650761723,0.9821410785149782
1761505826023006500,8.42500634765625,0.07572247272133827,-0.727564917486906,0.9510478019192814
1761505826043162400,8.445162353515625,0.027634441378712654,-0.7032388700038195,0.8537428082693368
1761505826063319600,8.465319580078125,0.05209492889642715,-0.49247605867385863,0.8192154655717313
1761505826083475500,8.485475341796874,0.12488660886287689,-0.41901656244844193,0.8764883085627109
1761505826103632400,8.50563232421875,0.1822813977330923,-0.370932915019989,0.8174985055860131
1761505826123788300,8.525788330078125,0.12684358814954758,-0.3545578265413642,0.6930207697849721
1761505826143945500,8.545945556640625,0.06094400578439235,-0.3725809744879603,0.5383943447619677
1761505826164101400,8.566101318359374,-0.01797054097652435,-0.39303281088620423,0.4708591970842331
1761505826184258600,8.586258544921876,-0.20559972947835922,-0.324887787681818,0.434285808577016
1761505826204414500,8.60641455078125,-0.2590700383812189,-0.17815818032324313,0.2957457182191312
1761505826224571400,8.6265712890625,-0.3592109130442142,-0.08394698797017336,0.14336575694866477
1761505826244727300,8.646727294921876,-0.4272644585728645,-0.0697846071049571,0.0524395776156336
1761505826264884500,8.666884521484375,-0.4507154767870903,0.01085953992754221,0.0588913841035217
1761505826285040400,8.687040283203125,-0.4796750292897224,0.10961626675575971,0.02852627565190196
1761505826305197600,8.707197509765624,-0.3841998083502054,0.1954725954785943,-0.0949337344739586
1761505826325353500,8.727353515625,-0.38443303258419037,0.22094079873412847,-0.05836253792382776
1761505826345510400,8.747510498046875,-0.3359539560973644,0.2970923105224967,-0.10337335377819835
1761505826365666300,8.767666259765624,-0.2729857510089874,0.2268076449409127,-0.1632378206975758
1761505826385823500,8.787823486328126,-0.23819851526618002,0.24078823949843645,-0.22608546814620495
1761505826405979400,8.8079794921875,-0.3021177374690771,0.2397705868884921,-0.13411029121689497
1761505826426135600,8.828135498046874,-0.24517829115092754,0.28700024783611294,-0.10376359520480036
1761505826446292500,8.84829248046875,-0.29365795215964313,0.30308278310894965,-0.162341310249269
1761505826466448600,8.86844873046875,-0.28929274268746374,0.29744653078764677,-0.18710728351958095
1761505826486605300,8.888605224609375,-0.23367022418677805,0.3824012344956398,-0.18991452296003697
1761505826506761500,8.908761474609374,-0.18333470617830752,0.49779257752150297,-0.172699987982586
1761505826526918400,8.92891845703125,-0.06341711789965629,0.5633744722396135,-0.2218012880209833
1761505826547074300,8.94907421875,-0.03034603842496872,0.5538467654377222,-0.21042839174382388
1761505826567231500,8.9692314453125,0.015350129345059393,0.5594093680009246,-0.18795505945533514
1761505826587387400,8.989387451171876,0.15261223565638066,0.5466901716813445,-0.08015285638421774
1761505826607544300,9.00954443359375,0.20073942996561525,0.5548842917919159,-0.020817089514061807
1761505826627700200,9.0297001953125,0.22061317421495913,0.495778315089643,0.018435089748352763
1761505826647857400,9.049857421875,0.19228782796263694,0.45028439189344643,0.04456372967399656
1761505826668013300,9.070013427734375,0.1791524520576,0.4286272713586688,-0.07390344060063361
1761505826688170500,9.09017041015625,0.11147767671346664,0.46225510793328284,-0.12712898096218705
1761505826708326400,9.110326416015624,0.02989011135101318,0.5219043977320194,-0.2025854962237179
1761505826728483300,9.1304833984375,-0.05820610525310039,0.5942649928048253,-0.3063064213305712
1761505826748639200,9.15063916015625,-0.11077566592395305,0.5774807390034199,-0.34188626875579353
1761505826768796400,9.17079638671875,-0.19726327828764914,0.44975013888627285,-0.3179964207328856
1761505826788952300,9.190952392578126,-0.29805121868252754,0.3809343768134713,-0.3010335954941809
1761505826809109500,9.211109619140625,-0.4123591503858566,0.32947423868924375,-0.344593481887877
1761505826829265400,9.231265380859375,-0.37031565990447995,0.2514016957104206,-0.39293329603448507
1761505826849422300,9.25142236328125,-0.33032384125590325,0.19022329664826393,-0.34617841299176216
1761505826869578200,9.271578125,-0.18145429925918577,0.17662877879887817,-0.3718888275053352
1761505826889735400,9.2917353515625,-0.03181728002130985,0.1070636596634984,-0.3753730163592845
1761505826909891300,9.311891357421874,-0.009726444244384765,0.03884849383234978,-0.34023243713416157
1761505826930049000,9.332049072265624,-0.08023848884105682,-0.08580079914331436,-0.23869959665611384
1761505826950205200,9.352205078125,-0.028127193331718443,-0.18403496340215206,-0.190138760169968
1761505826970361000,9.372361083984375,0.07915946143269538,-0.24027502927929162,-0.11486425041183829
1761505826990518000,9.39251806640625,0.14124562298953533,-0.20453794546574353,-0.1350663498327136
1761505827010674000,9.412673828125,0.19028233335912226,-0.19438070858865975,-0.11505611972212791
1761505827030831000,9.4328310546875,0.1974006409317255,-0.1812149375453591,-0.11838431429676712
1761505827050987000,9.452987060546874,0.11946166120469569,-0.22812311145365236,-0.2698076324295252
1761505827071144200,9.473144287109376,0.059033203727006905,-0.26149463517963883,-0.24940095034725962
1761505827091300000,9.493300048828125,-0.10189502485394478,-0.2576233467042446,-0.07763919306285678
1761505827111457000,9.51345703125,-0.11226152056753634,-0.41072073552906513,-0.12288703254349528
1761505827131613000,9.533613037109374,0.045510874330997465,-0.5069380070075392,-0.2392272737920284
1761505827151770000,9.55377001953125,0.054876668569445605,-0.5703478183835744,-0.3139656308468431
1761505827171926000,9.573926025390625,0.009913491249084472,-0.48152036489546296,-0.3080630557395518
1761505827192083200,9.594083251953125,-0.14569383457005022,-0.388204660077393,-0.20439144966714082
1761505827212239000,9.614239013671876,-0.17820435755252836,-0.35837533900290724,-0.22338578073345122
1761505827232396000,9.63439599609375,-0.26988193977475167,-0.31843788089007136,-0.3151274411678314
1761505827252552000,9.654552001953125,-0.3462777817130089,-0.19733780482858418,-0.42980245261788363
1761505827272709000,9.674709228515624,-0.36893034302592276,-0.05597527746111154,-0.5004490103144198
1761505827292865000,9.694864990234375,-0.38472587805092334,0.007989245188236236,-0.5449184858337044
1761505827313022200,9.715022216796875,-0.46036710222959515,-0.02498509591370821,-0.46970264746025203
1761505827333178000,9.73517822265625,-0.691174922722578,-0.48569940414577717,-0.2544653941299766
1761505827353334800,9.755334716796876,-0.9401496835470199,-0.5953682778716087,-0.20962080168798564
1761505827373491000,9.775490966796875,-1.2637012541890145,-0.5320762476563453,-0.31705658259950575
1761505827393647900,9.79564794921875,-1.423835117521882,-0.36507220629304643,-0.29500322928875683
1761505827413804000,9.815803955078126,-1.2010521980524063,-0.22302608057558534,-0.2655684604898095
1761505827433961000,9.8359609375,-0.632130613079667,-0.022188743193447588,-0.39934513583816583
1761505827454117000,9.8561171875,-0.5405892244577407,0.1882046503022313,-0.2133746743287891
1761505827474273000,9.87627294921875,-0.30441490849554537,0.20897972730547187,-0.13340996092781424
1761505827494430000,9.896429931640625,-0.17704174351394175,0.17450491851270197,0.05986950842067599
1761505827514585900,9.9165859375,0.028919220492243766,0.19225567925870418,0.11560995421260595
1761505827534743000,9.936742919921874,0.23647592925727365,0.3305500512272119,0.12943433529511095
1761505827554899000,9.95689892578125,0.4302250619441271,0.5386258154302835,0.045486908933520316
1761505827575056100,9.97705615234375,0.5580214207738637,0.7284077980518341,-0.01583703607916832
1761505827595212000,9.9972119140625,0.6061439389079809,0.8106608415856957,-0.02057867764830589
1761505827615369000,10.017368896484374,0.5761854384958743,0.83264120272547,0.06512099920809268
1761505827635524900,10.03752490234375,0.548695958545804,0.7922206372708082,0.04961085699573159
1761505827655682000,10.05768212890625,0.5781868414461613,0.7089318209484219,-0.0016845920860767364
1761505827675838000,10.077837890625,0.5112503172487021,0.6619900370314717,0.1928412240616977
1761505827695995100,10.0979951171875,0.5572516054451465,0.6455445136651397,0.26394115154892206
1761505827716151000,10.118151123046875,0.4255097238600254,0.6456415442988276,0.43424861837178463
1761505827736308200,10.13830810546875,0.30442133823633194,0.5736190951392054,0.5338337588481604
1761505827756464000,10.158464111328126,0.2545890935748815,0.5018313315182924,0.5792883729472756
1761505827776621000,10.17862109375,0.26756957117915153,0.3032861967265606,0.6752024236954748
1761505827796777000,10.19877685546875,0.23565935217738151,0.22410013954788446,0.6994277872830629
1761505827816934100,10.21893408203125,0.09139701171517371,0.15501315931826828,0.7337197868548333
1761505827837090000,10.239090087890625,0.05124971024394035,0.2540373049110174,0.6826581465288997
1761505827857247200,10.259247314453125,0.026091888111829758,0.26017683057934043,0.6595856062382459
1761505827877403100,10.279403076171874,0.20562135678827761,0.16629764665961264,0.3652067924581468
1761505827897559000,10.29955908203125,0.42487376404404636,0.03077683105766773,0.23069983007386324
1761505827917715500,10.319715576171875,0.6038876844137907,-0.10236731854081153,0.30704423408582804
1761505827937871600,10.33987158203125,0.5811842696964741,-0.26583471021056176,0.6186199741214513
1761505827958028500,10.360028564453126,0.5486322456598282,-0.49291211200356483,0.8098254136748612
1761505827978184700,10.380184814453125,0.28731472061276436,-0.7021963752135634,0.9993367626614869
1761505827998341600,10.400341552734375,0.032814474365115164,-0.7652358919724822,0.9080490565396845
1761505828018497800,10.420497802734374,-0.21992869908213614,-0.6764680597171187,0.7289439507551491
1761505828038654500,10.440654541015626,-0.3499836504936218,-0.5170455595239997,0.5131073432922363
1761505828058810600,10.460810546875,-0.4162631720870733,-0.31536417253315446,0.2864455365628004
1761505828078967600,10.480967529296874,-0.4366752609968185,-0.2782797657638788,0.11151187124401331
1761505828099123700,10.501123779296876,-0.3069236764460802,-0.28917934544086454,0.0357635334290564
1761505828119280600,10.52128076171875,-0.18862521380186079,-0.29878391687124967,-0.05127309111952781
1761505828139436800,10.541436767578125,-0.09471066630780696,-0.22494389689564703,0.05454144526571035
1761505828159593500,10.561593505859374,0.02803366982936859,-0.3243658096343279,-0.019167203415185213
1761505828179749600,10.58174951171875,0.2927998740255833,-0.47840194061398505,-0.034085224953293795
1761505828199905500,10.601905517578125,0.4627373384922743,-0.6834940128311514,0.12717691175714135
1761505828220062700,10.622062744140624,0.5231669650137424,-0.8232496895238757,0.18787234960794447
1761505828240218600,10.642218505859375,0.4411030143111944,-1.0167428016230464,0.11422653703019023
1761505828260375800,10.662375732421875,0.560894930383563,-0.7497852248623966,0.8589711373768746
1761505828280531700,10.68253173828125,0.30176293268203735,-0.7960510092139244,0.37399814780950547
1761505828300688600,10.702688720703126,0.11106675782501697,-1.0302689304113388,0.22117884527370332
1761505828320844500,10.722844482421875,-0.1146989768475294,-0.9073752489313482,0.26111674177795646
1761505828341001700,10.743001708984375,-0.31496962025761605,-0.8874664333686232,0.1593979502737522
