time,seconds_elapsed,z,y,x
1761505817678215700,0.080215576171875,0.07310204207897186,0.09586111456155777,-0.2117607593536377
1761505817698372900,0.100372802734375,0.031835928559303284,0.09320490807294846,-0.03400947153568268
1761505817718528800,0.12052880859375,-0.00012722681276500225,0.09482701867818832,0.10855261981487274
1761505817738686000,0.14068603515625,0.025951823219656944,0.030501235276460648,0.1627933830022812
1761505817758841900,0.160841796875,0.08270882070064545,0.042781177908182144,0.098056860268116
1761505817778998800,0.180998779296875,0.10862158238887787,0.0930139496922493,-0.042653363198041916
1761505817799154700,0.20115478515625,0.06604044139385223,0.1561664193868637,-0.14121270179748535
1761505817819311900,0.221311767578125,-0.020580409094691277,0.19695501029491425,-0.12967659533023834
1761505817839467800,0.2414677734375,-0.09257282316684723,0.13423265516757965,-0.05162294954061508
1761505817859625000,0.261625,-0.13069367408752441,0.036137379705905914,0.0415429063141346
1761505817879780900,0.28178076171875,-0.13639888167381287,-0.024944104254245758,0.08772069215774536
1761505817899937800,0.301937744140625,-0.07107064127922058,0.06888223439455032,0.10780906677246094
1761505817920094200,0.32209423828125,-0.0013917125761508942,0.15713812410831451,0.061703160405159
1761505817940251100,0.342251220703125,0.013621238060295582,0.18986541032791138,-0.014116455800831318
1761505817960407300,0.3624072265625,0.0005480044055730104,0.15557897090911865,-0.020046841353178024
1761505817980564200,0.382564208984375,-0.045479122549295425,0.07278399914503098,-0.048321329057216644
1761505818000720400,0.402720458984375,-0.08208511024713516,0.032400794327259064,-0.01889585331082344
1761505818020876300,0.422876220703125,-0.07844242453575134,0.07444007694721222,0.05338947847485542
1761505818041033000,0.443032958984375,-0.08352673798799515,0.09019146114587784,0.051675647497177124
1761505818061189000,0.463189208984375,-0.1098674014210701,0.06687088310718536,-0.02681989222764969
1761505818081346000,0.483345947265625,-0.1275264173746109,0.026391178369522095,-0.12993063032627106
1761505818101502200,0.503502197265625,-0.1478252112865448,-0.008691353723406792,-0.15874655544757843
1761505818121659100,0.5236591796875,-0.17291077971458435,-0.036730244755744934,-0.10643982887268066
1761505818141815300,0.543815185546875,-0.18864628672599792,-0.08972544968128204,-0.044276267290115356
1761505818161972000,0.563971923828125,-0.1776077002286911,-0.1055183932185173,-0.013539575040340424
1761505818182128000,0.584128173828125,-0.1562262624502182,-0.09251592308282852,-0.0237734355032444
1761505818202285000,0.60428515625,-0.13906855881214142,-0.05313081294298172,-0.022770889103412628
1761505818222441200,0.624441162109375,-0.12899324297904968,-0.010900655761361122,-0.0026644470635801554
1761505818242598100,0.64459814453125,-0.13564980030059814,0.03429681062698364,-0.021733872592449188
1761505818262754300,0.66475439453125,-0.13435085117816925,0.11852052807807922,-0.06351001560688019
1761505818282911000,0.684910888671875,-0.1251484453678131,0.1494997888803482,-0.1363062858581543
1761505818303067100,0.705067138671875,-0.11387548595666885,0.1024799644947052,-0.19712933897972107
1761505818323224000,0.72522412109375,-0.1047939881682396,0.056927308440208435,-0.23713314533233643
1761505818343380200,0.745380126953125,-0.08335278928279877,0.03128339350223541,-0.28799301385879517
1761505818363537200,0.765537109375,-0.07463185489177704,-0.02959229052066803,-0.33684414625167847
1761505818383693300,0.785693359375,-0.06011006981134415,-0.1034298837184906,-0.29111284017562866
1761505818403850000,0.80585009765625,-0.09566036611795425,-0.15890155732631683,-0.1728861927986145
1761505818424006100,0.826006103515625,-0.10994457453489304,-0.1815853863954544,-0.07930431514978409
1761505818444163000,0.8461630859375,-0.08133692294359207,-0.15029461681842804,-0.055140420794487
1761505818464319200,0.8663193359375,-0.06349556148052216,-0.12496573477983475,-0.09094922989606857
1761505818484476200,0.88647607421875,-0.05838609114289284,-0.06966172158718109,-0.13991564512252808
1761505818504632300,0.90663232421875,-0.06611248850822449,-0.010419589467346668,-0.1638282835483551
1761505818524788200,0.926788330078125,-0.06275034695863724,0.05393199250102043,-0.15337790548801422
1761505818544945200,0.946945068359375,-0.03740643709897995,0.09412889927625656,-0.1476944386959076
1761505818565101000,0.96710107421875,-0.025623751804232597,0.10578453540802002,-0.15637822449207306
1761505818585258200,0.98725830078125,-0.03234262391924858,0.0734608918428421,-0.13751938939094543
1761505818605414100,1.0074140625,-0.03480466082692146,0.03480807691812515,-0.11891722679138184
1761505818625571300,1.0275712890625,-0.037173882126808167,0.005142080597579479,-0.11765798926353455
1761505818645727200,1.047727294921875,-0.03210465610027313,0.009082884527742863,-0.13239623606204987
1761505818665884200,1.06788427734375,0.006327022798359394,0.045101627707481384,-0.13733303546905518
1761505818686040000,1.0880400390625,0.0407831110060215,0.10000891238451004,-0.13367094099521637
1761505818706197200,1.108197265625,0.07360754907131195,0.12886326014995575,-0.13771507143974304
1761505818726353200,1.128353271484375,0.0940210223197937,0.12186003476381302,-0.13846740126609802
1761505818746510000,1.148510009765625,0.10512331873178482,0.07152514904737473,-0.12333951145410538
1761505818766666200,1.168666259765625,0.1219855472445488,0.05109809339046478,-0.10332262516021729
1761505818786823000,1.188822998046875,0.1451265960931778,0.06726080924272537,-0.09353822469711304
1761505818806979000,1.20897900390625,0.1885540634393692,0.09545060992240906,-0.08228089660406113
1761505818827136000,1.229135986328125,0.23942315578460693,0.11149796098470688,-0.07123447954654694
1761505818847292200,1.249292236328125,0.3054969012737274,0.125604048371315,-0.049944452941417694
1761505818867449000,1.269448974609375,0.34351885318756104,0.06559513509273529,-0.03781525418162346
1761505818887605200,1.289605224609375,0.2920777499675751,-0.00360927265137434,-0.040234729647636414
1761505818907760600,1.3097607421875,0.20810900628566742,0.01450018398463726,-0.03611985966563225
1761505818927917600,1.32991748046875,0.17347873747348785,0.11265484243631363,-0.014268905855715275
1761505818948073700,1.35007373046875,0.18593071401119232,0.1888348013162613,0.02683819644153118
1761505818968230400,1.37023046875,0.23844709992408752,0.2510083317756653,0.11490333825349808
1761505818988386600,1.390386474609375,0.26216959953308105,0.2541508376598358,0.20123650133609772
1761505819008543500,1.41054345703125,0.2544462978839874,0.23546597361564636,0.27368614077568054
1761505819028699600,1.43069970703125,0.2166939079761505,0.18104055523872375,0.32885003089904785
1761505819048856600,1.450856689453125,0.16859465837478638,0.1680859476327896,0.37375783920288086
1761505819069012700,1.4710126953125,0.13199178874492645,0.17736293375492096,0.42677125334739685
1761505819089169400,1.49116943359375,0.11087293922901154,0.22710801661014557,0.4101167619228363
1761505819109325600,1.51132568359375,0.11643003672361374,0.2451905906200409,0.35271111130714417
1761505819129482500,1.531482421875,0.11577244102954865,0.2389375865459442,0.3166036009788513
1761505819149638700,1.551638671875,0.11365897953510284,0.22344577312469482,0.3096669018268585
1761505819169795600,1.571795654296875,0.10532119125127792,0.1920071542263031,0.29341089725494385
1761505819189951700,1.59195166015625,0.1213158443570137,0.11660820990800858,0.2674570381641388
1761505819210108400,1.6121083984375,0.11594464629888535,0.0879969522356987,0.27818718552589417
1761505819230264600,1.6322646484375,0.10439365357160568,0.020122038200497627,0.29556918144226074
1761505819250421500,1.65242138671875,0.08359061926603317,-0.016083210706710815,0.28713300824165344
1761505819270577700,1.67257763671875,0.0649358332157135,-0.009544797241687775,0.2640071511268616
1761505819290733600,1.692733642578125,0.04793373867869377,0.04262704774737358,0.259962260723114
1761505819310890800,1.712890869140625,0.041321706026792526,0.10165712237358093,0.23582974076271057
1761505819331046700,1.733046630859375,0.04075881093740463,0.1393207460641861,0.1886391043663025
1761505819351203300,1.753203369140625,0.014647703617811203,0.08958826959133148,0.13367392122745514
1761505819371359500,1.773359375,-0.01967068575322628,0.05811872333288193,0.10249396413564682
1761505819391516400,1.793516357421875,-0.04460414499044418,0.03831873834133148,0.0863431915640831
1761505819411672600,1.813672607421875,-0.0460035540163517,0.053155507892370224,0.09072776883840561
1761505819431829500,1.83382958984375,-0.009548483416438103,0.08002033829689026,0.09495799988508224
1761505819451985700,1.853985595703125,0.031016560271382332,0.10309113562107086,0.05897608399391174
1761505819472142300,1.874142333984375,0.06750262528657913,0.11952311545610428,-0.00758771738037467
1761505819492298500,1.894298583984375,0.08253784477710724,0.1005009338259697,-0.10001734644174576
1761505819512455400,1.914455322265625,0.09040649980306625,0.05539863184094429,-0.17800630629062653
1761505819532611600,1.934611572265625,0.10485276579856873,0.006624763831496239,-0.22289909422397614
1761505819552768500,1.9547685546875,0.13737209141254425,-0.047089964151382446,-0.2380099594593048
1761505819572924700,1.974924560546875,0.12862981855869293,-0.15668721497058868,-0.28618013858795166
1761505819593081600,1.99508154296875,0.08529520034790039,-0.23692618310451508,-0.38138988614082336
1761505819613237500,2.015237548828125,0.043574362993240356,-0.2125975787639618,-0.4453756809234619
1761505819633394400,2.03539453125,0.010644110850989819,-0.15460963547229767,-0.46845385432243347
1761505819653550600,2.055550537109375,0.00446262676268816,-0.10782407224178314,-0.4673915505409241
1761505819673707500,2.07570751953125,0.06976065784692764,-0.06811936944723129,-0.3902220129966736
1761505819693863700,2.09586376953125,0.1389395147562027,-0.037933461368083954,-0.2511216402053833
1761505819714019600,2.11601953125,0.19322417676448822,-0.0472838431596756,-0.1001540943980217
1761505819734176500,2.136176513671875,0.18606500327587128,-0.12500765919685364,-0.0011286353692412376
1761505819754332400,2.15633251953125,0.14172996580600739,-0.18096044659614563,0.03661849722266197
1761505819774489600,2.176489501953125,0.075739286839962,-0.21843507885932922,0.025467555969953537
1761505819794645500,2.1966455078125,0.02989419549703598,-0.22373127937316895,0.013563612475991249
1761505819814802700,2.216802734375,-0.021741237491369247,-0.20866429805755615,-0.010279581882059574
1761505819834958600,2.23695849609375,-0.0861973762512207,-0.17453542351722717,-0.0624406673014164
1761505819855115800,2.25711572265625,-0.17027506232261658,-0.13785915076732635,-0.12448608130216599
1761505819875271700,2.277271728515625,-0.2543119788169861,-0.09955723583698273,-0.15680474042892456
1761505819895428600,2.2974287109375,-0.31875258684158325,-0.05299466848373413,-0.1667655110359192
1761505819915584300,2.317584228515625,-0.31738153100013733,0.006752857007086277,-0.14585494995117188
1761505819935741400,2.337741455078125,-0.29220882058143616,0.02383703552186489,-0.10554692149162292
1761505819955897300,2.3578974609375,-0.2576800584793091,-0.0002177683636546135,-0.019634021446108818
1761505819976054500,2.378054443359375,-0.21519623696804047,-0.07223199307918549,0.10214676707983017
1761505819996210400,2.39821044921875,-0.18494278192520142,-0.1596061885356903,0.23966513574123383
1761505820016367400,2.418367431640625,-0.17633800208568573,-0.23986046016216278,0.3400852084159851
1761505820036523300,2.438523193359375,-0.17213788628578186,-0.3144882619380951,0.3495064675807953
1761505820056680400,2.458680419921875,-0.24938414990901947,-0.35355040431022644,0.22973476350307465
1761505820076836400,2.47883642578125,-0.37906137108802795,-0.3134574890136719,0.039941128343343735
1761505820096993500,2.49899365234375,-0.454128623008728,-0.2207704484462738,-0.08274944126605988
1761505820117149400,2.5191494140625,-0.42951688170433044,-0.13073554635047913,-0.0844547301530838
1761505820137306400,2.539306396484375,-0.3806763291358948,-0.1103692501783371,-0.018968939781188965
1761505820157462300,2.559462158203125,-0.3256567120552063,-0.0739203691482544,0.05612476170063019
1761505820177619500,2.579619384765625,-0.27303847670555115,0.035958826541900635,0.024352556094527245
1761505820197775400,2.599775390625,-0.26190581917762756,0.03792288154363632,-0.0785638764500618
1761505820217932500,2.6199326171875,-0.24977561831474304,-0.10806214064359665,-0.006553490646183491
1761505820238088400,2.64008837890625,-0.2342359870672226,-0.1728498786687851,0.2545470595359802
1761505820258245400,2.660245361328125,-0.304234117269516,-0.23061151802539825,0.45986056327819824
1761505820278401300,2.6804013671875,-0.35938936471939087,-0.21217072010040283,0.4849218428134918
1761505820298558500,2.700558349609375,-0.4044211208820343,-0.13734449446201324,0.38715434074401855
1761505820318714400,2.72071435546875,-0.43362975120544434,-0.05095690116286278,0.28887444734573364
1761505820338870300,2.740870361328125,-0.454555869102478,-0.04630653187632561,0.22797998785972595
1761505820359027500,2.76102734375,-0.4840582013130188,-0.051638051867485046,0.20611459016799927
1761505820379183400,2.781183349609375,-0.4713080823421478,-0.04568540304899216,0.20910236239433289
1761505820399340300,2.80134033203125,-0.45460745692253113,-0.0315079465508461,0.16758838295936584
1761505820419496200,2.82149609375,-0.41677483916282654,-0.000023271888494491577,0.07508982717990875
1761505820439653400,2.8416533203125,-0.37674760818481445,-0.033000532537698746,-0.10828429460525513
1761505820459809300,2.861809326171875,-0.33817368745803833,-0.11665795743465424,-0.3420032560825348
1761505820479966500,2.881966552734375,-0.26209384202957153,-0.19301541149616241,-0.5219712853431702
1761505820500122400,2.902122314453125,-0.14202961325645447,-0.20331278443336487,-0.5596593618392944
1761505820520279300,2.922279296875,-0.033928029239177704,-0.18621504306793213,-0.4684114456176758
1761505820540435200,2.942435302734375,0.08496488630771637,-0.11760175228118896,-0.2828303277492523
1761505820560592400,2.96259228515625,0.1853870153427124,-0.010753102600574493,-0.033481694757938385
1761505820580748300,2.982748291015625,0.23371967673301697,0.07217474281787872,0.13284941017627716
1761505820600905500,3.002905517578125,0.242337167263031,0.04062831401824951,0.17644353210926056
1761505820621061400,3.023061279296875,0.24787916243076324,0.03979256749153137,0.13119345903396606
1761505820641218300,3.04321826171875,0.2298591583967209,0.005554813891649246,-0.0038792993873357773
1761505820661374200,3.063374267578125,0.225455179810524,0.01592322811484337,-0.19607791304588318
1761505820681531400,3.083531494140625,0.26073965430259705,0.05992508307099342,-0.380690336227417
1761505820701687300,3.103687255859375,0.31480270624160767,0.11351660639047623,-0.48635274171829224
1761505820721844500,3.123844482421875,0.34575843811035156,0.11533140391111374,-0.4622701406478882
1761505820742000400,3.14400048828125,0.33549538254737854,0.06278569996356964,-0.3326300382614136
1761505820762157600,3.164157470703125,0.30785390734672546,0.012924510054290295,-0.15750841796398163
1761505820782313500,3.1843134765625,0.28947708010673523,-0.006878831423819065,-0.028905047103762627
1761505820802470400,3.204470458984375,0.2845019996166229,0.061725541949272156,0.038280971348285675
1761505820822626300,3.224626220703125,0.2753773331642151,0.1672283560037613,0.026100190356373787
1761505820842783500,3.244783447265625,0.24647057056427002,0.24187347292900085,-0.01663140021264553
1761505820862939400,3.264939453125,0.17622120678424835,0.301458477973938,-0.004219791851937771
1761505820883096600,3.2850966796875,0.09426068514585495,0.3732972741127014,0.0633692815899849
1761505820903252500,3.30525244140625,0.05626051500439644,0.42315179109573364,0.10749004781246185
1761505820923413800,3.325413818359375,0.06322644650936127,0.429408460855484,0.08364620804786682
1761505820943569700,3.345569580078125,0.11904869228601456,0.4485800266265869,0.05297350883483887
1761505820963726800,3.365726806640625,0.12727393209934235,0.3902038335800171,0.03916046768426895
1761505820983882800,3.3858828125,0.14842906594276428,0.3428536653518677,0.08632288873195648
1761505821004039700,3.406039794921875,0.17692001163959503,0.2891143560409546,0.18190735578536987
1761505821024195600,3.426195556640625,0.21747136116027832,0.2585631012916565,0.2729620039463043
1761505821044352800,3.446352783203125,0.2857522666454315,0.28029778599739075,0.29481345415115356
1761505821064508700,3.4665087890625,0.3629336655139923,0.304951548576355,0.23521330952644348
1761505821084665900,3.486665771484375,0.41640952229499817,0.27368953824043274,0.13859426975250244
1761505821104821800,3.50682177734375,0.43682268261909485,0.23749196529388428,0.10848356038331985
1761505821124978700,3.526978759765625,0.4425993263721466,0.19612497091293335,0.1517326384782791
1761505821145134600,3.547134521484375,0.3588600754737854,0.10113323479890823,0.19905532896518707
1761505821165291800,3.567291748046875,0.24304001033306122,-0.011577687226235867,0.19415530562400818
1761505821185447700,3.58744775390625,0.12654292583465576,-0.05188190937042236,0.14449279010295868
1761505821205604900,3.60760498046875,0.020791204646229744,0.02798660844564438,0.06968674063682556
1761505821225760800,3.6277607421875,-0.014089941047132015,0.1639832854270935,0.01442996971309185
1761505821245917700,3.647917724609375,-0.039069898426532745,0.19915129244327545,0.01766192354261875
1761505821266073600,3.668073486328125,-0.03726574778556824,0.15768803656101227,0.09195097535848618
1761505821286230800,3.688230712890625,-0.034200556576251984,0.1489558219909668,0.17350614070892334
1761505821306386700,3.70838671875,-0.01307743601500988,0.10618747025728226,0.17413000762462616
1761505821326543600,3.728543701171875,0.021032169461250305,0.05440175160765648,0.14704793691635132
1761505821346699800,3.74869970703125,0.06315494328737259,0.04239322617650032,0.12242313474416733
1761505821366856400,3.7688564453125,0.11737173795700073,0.062475189566612244,0.11112304776906967
1761505821387012600,3.7890126953125,0.14869694411754608,0.054748810827732086,0.1099029928445816
1761505821407169500,3.80916943359375,0.14898502826690674,0.03844159469008446,0.1338804066181183
1761505821427325700,3.82932568359375,0.14380060136318207,0.05231742560863495,0.19803492724895477
1761505821447482600,3.849482666015625,0.13027164340019226,0.0993516817688942,0.260091096162796
1761505821467638800,3.869638671875,0.12843947112560272,0.15813009440898895,0.2874252200126648
1761505821487795700,3.889795654296875,0.12904757261276245,0.1791783720254898,0.28885868191719055
1761505821507951600,3.90995166015625,0.10412868857383728,0.19871683418750763,0.2625747323036194
1761505821528108500,3.930108642578125,0.032155074179172516,0.20329639315605164,0.21492528915405273
1761505821548264700,3.9502646484375,-0.007166212424635887,0.18583595752716064,0.13955093920230865
1761505821568421600,3.970421630859375,-0.03006836213171482,0.16506554186344147,-0.021019190549850464
1761505821588577800,3.990577880859375,-0.005297619849443436,0.19833621382713318,-0.1416844129562378
1761505821608734700,4.010734619140625,0.02631024830043316,0.27267032861709595,-0.1722813844680786
1761505821628891000,4.030890869140625,0.06432649493217468,0.2972456216812134,-0.14518053829669952
1761505821649047600,4.051047607421875,0.11178556084632874,0.23069843649864197,-0.10232097655534744
1761505821669203700,4.07120361328125,0.15878750383853912,0.07306115329265594,-0.06491802632808685
1761505821689360600,4.091360595703125,0.18274644017219543,-0.040228769183158875,-0.07764891535043716
1761505821709516800,4.111516845703125,0.14786356687545776,-0.08129797875881195,-0.14820121228694916
1761505821729673700,4.131673828125,0.043878983706235886,-0.04895871877670288,-0.24537214636802673
1761505821749830000,4.151829833984375,-0.03750500828027725,0.046534642577171326,-0.3253729045391083
1761505821769986600,4.171986572265625,-0.0561785027384758,0.21076595783233643,-0.33132404088974
1761505821790142700,4.192142822265625,0.009453054517507553,0.31131860613822937,-0.2621272802352905
1761505821810299600,4.212299560546875,0.06291960179805756,0.34529632329940796,-0.16679656505584717
1761505821830456800,4.232456787109375,0.06587403267621994,0.3345382511615753,-0.09232325106859207
1761505821850612700,4.25261279296875,0.030359679833054543,0.30908069014549255,-0.046334557235240936
1761505821870769700,4.272769775390625,-0.0014028942678123713,0.2622631788253784,-0.034326743334531784
1761505821890925600,4.292925537109375,-0.010334806516766548,0.2148124724626541,-0.020665433257818222
1761505821911078400,4.313078369140625,-0.02575448714196682,0.13677524030208588,-0.008044682443141937
1761505821931234300,4.333234375,-0.06858237087726593,0.06924104690551758,0.01870768703520298
1761505821951391500,4.3533916015625,-0.12818723917007446,0.022816412150859833,0.04177595674991608
1761505821971547400,4.37354736328125,-0.19641593098640442,-0.05314385145902634,0.0384732186794281
1761505821991704600,4.39370458984375,-0.2832145392894745,-0.09787613153457642,0.026636390015482903
1761505822011862300,4.4138623046875,-0.321997731924057,-0.08424308151006699,0.021661488339304924
1761505822032018400,4.434018310546875,-0.33573997020721436,-0.08927393704652786,-0.012437980622053146
1761505822052175400,4.45417529296875,-0.3501965403556824,-0.14861392974853516,-0.05660473182797432
1761505822072331500,4.47433154296875,-0.3512921631336212,-0.15600153803825378,-0.08038941770792007
1761505822092488200,4.49448828125,-0.3709704577922821,-0.17120596766471863,-0.11894027888774872
1761505822112644400,4.514644287109375,-0.3646116852760315,-0.19098921120166779,-0.15936698019504547
1761505822132801300,4.53480126953125,-0.3613194227218628,-0.21298126876354218,-0.18104267120361328
1761505822152957400,4.55495751953125,-0.32912716269493103,-0.2425270825624466,-0.17008978128433228
1761505822173114400,4.5751142578125,-0.26189565658569336,-0.2864454686641693,-0.13470560312271118
1761505822193270500,4.5952705078125,-0.22036738693714142,-0.31053727865219116,-0.13814036548137665
1761505822213427200,4.61542724609375,-0.22740033268928528,-0.36509156227111816,-0.22382023930549622
1761505822233583400,4.635583251953125,-0.29035720229148865,-0.3958960175514221,-0.31676262617111206
1761505822253740300,4.655740234375,-0.2701106369495392,-0.37860146164894104,-0.29796302318573
1761505822273896400,4.675896484375,-0.18271097540855408,-0.3131731450557709,-0.1941215842962265
1761505822294053400,4.696053466796875,-0.07020075619220734,-0.3386608958244324,-0.06874117255210876
1761505822314209500,4.71620947265625,-0.015557916834950447,-0.44516563415527344,0.06061791628599167
1761505822334366200,4.7363662109375,-0.0069780535995960236,-0.5005831718444824,0.16674429178237915
1761505822354522400,4.7565224609375,-0.007149273529648781,-0.42618775367736816,0.21093522012233734
1761505822374679300,4.77667919921875,0.013764704577624798,-0.2660404443740845,0.2026434987783432
1761505822394835500,4.79683544921875,0.0788770541548729,-0.10474912077188492,0.20036675035953522
1761505822414992400,4.816992431640625,0.10345686227083206,-0.04287934675812721,0.21205522119998932
1761505822435148500,4.8371484375,0.06986115127801895,-0.08913338929414749,0.25008508563041687
1761505822455305200,4.85730517578125,0.030147744342684746,-0.12997636198997498,0.28994664549827576
1761505822475461400,4.87746142578125,-0.06643173098564148,-0.18390361964702606,0.25292879343032837
1761505822495618300,4.897618408203125,-0.23313963413238525,-0.13742782175540924,0.2575922906398773
1761505822515774500,4.9177744140625,-0.2257470190525055,0.0444159135222435,0.30482393503189087
1761505822535931400,4.937931396484375,-0.16019390523433685,0.041063711047172546,0.29753434658050537
1761505822556087600,4.958087646484375,-0.08328323066234589,0.00021647848188877106,0.2750667333602905
1761505822576244500,4.978244384765625,-0.06476125866174698,-0.024728385731577873,0.2099076509475708
1761505822596401400,4.9984013671875,-0.1391625553369522,-0.061486005783081055,0.09002748876810074
1761505822616557300,5.018557373046875,-0.2412928193807602,-0.13643160462379456,-0.07907266914844513
1761505822636714500,5.038714599609375,-0.3714996576309204,-0.17615190148353577,-0.26170799136161804
1761505822656870400,5.058870361328125,-0.4722668528556824,-0.16566801071166992,-0.41172391176223755
1761505822677027600,5.079027587890625,-0.4651186764240265,-0.07359088957309723,-0.460944265127182
1761505822697183500,5.09918359375,-0.39528587460517883,-0.011636452749371529,-0.415764719247818
1761505822717340400,5.11934033203125,-0.2739849090576172,0.08827754110097885,-0.2681823968887329
1761505822737496300,5.139496337890625,-0.17209216952323914,0.12247266620397568,-0.14150089025497437
1761505822757653500,5.159653564453125,-0.14082463085651398,0.10497982800006866,-0.10897866636514664
1761505822777809400,5.179809326171875,-0.1422683298587799,0.06915327161550522,-0.15289777517318726
1761505822797966600,5.199966552734375,-0.13833966851234436,0.0551266148686409,-0.22105847299098969
1761505822818122500,5.22012255859375,-0.1467493176460266,0.0007890081033110619,-0.3228563666343689
1761505822838279400,5.240279541015625,-0.21129126846790314,-0.07736539840698242,-0.4643189311027527
1761505822858435300,5.260435302734375,-0.25258147716522217,-0.11574358493089676,-0.5720726847648621
1761505822878592500,5.280592529296875,-0.24471475183963776,-0.13553181290626526,-0.610804557800293
1761505822898748400,5.30074853515625,-0.15391653776168823,-0.11321517825126648,-0.5578171610832214
1761505822918905900,5.32090576171875,-0.044182389974594116,-0.10024017840623856,-0.43939509987831116
1761505822939061800,5.341061767578125,0.060458797961473465,-0.07953444123268127,-0.2526090145111084
1761505822959218700,5.36121875,0.09999630600214005,-0.10268125683069229,-0.08677361905574799
1761505822979374800,5.381374755859375,0.1227148175239563,-0.11213672906160355,0.026987513527274132
1761505822999531800,5.40153173828125,0.1378418356180191,-0.12418140470981598,0.08281748741865158
1761505823019688000,5.42168798828125,0.1047677993774414,-0.12998825311660767,0.1531682312488556
1761505823039844900,5.441844970703125,0.06204339489340782,-0.04845169559121132,0.19806167483329773
1761505823060001000,5.4620009765625,0.05176011472940445,0.08842580020427704,0.1988801509141922
1761505823080157700,5.48215771484375,0.07468173652887344,0.1923438310623169,0.16037413477897644
1761505823100313900,5.50231396484375,0.11884815990924835,0.24875876307487488,0.11110545694828033
1761505823120470800,5.522470703125,0.18926610052585602,0.27933400869369507,0.07473447173833847
1761505823140627000,5.542626953125,0.2905992269515991,0.3063923716545105,0.08622469753026962
1761505823160784000,5.562783935546875,0.39601457118988037,0.24044932425022125,0.16577206552028656
1761505823180940000,5.58293994140625,0.38867121934890747,0.09764919430017471,0.24842149019241333
1761505823201096700,5.6030966796875,0.301535040140152,-0.03886969015002251,0.2801639437675476
1761505823221252900,5.6232529296875,0.21258600056171417,-0.1399720013141632,0.29414138197898865
1761505823241409800,5.643409912109375,0.15994995832443237,-0.1182919591665268,0.3396622836589813
1761505823261566000,5.66356591796875,0.19767171144485474,0.03252003714442253,0.4117129445075989
1761505823281723000,5.683722900390625,0.2730267345905304,0.144847571849823,0.4494071900844574
1761505823301879000,5.703879150390625,0.2653951942920685,0.09085751324892044,0.3935837745666504
1761505823322035700,5.72403564453125,0.19086883962154388,0.015725482255220413,0.30219441652297974
1761505823342191600,5.744191650390625,0.12551067769527435,0.08725634962320328,0.2378598004579544
1761505823362348800,5.764348876953125,0.10366284847259521,0.23490329086780548,0.19287770986557007
1761505823382504700,5.784504638671875,0.12009116262197495,0.337421178817749,0.15373452007770538
1761505823402662000,5.804661865234375,0.19525814056396484,0.38789647817611694,0.1255413144826889
1761505823422817800,5.82481787109375,0.2538341283798218,0.3627353012561798,0.12451901286840439
1761505823442974700,5.844974609375,0.2838863730430603,0.31388920545578003,0.1572073996067047
1761505823463130600,5.865130615234375,0.28279659152030945,0.31182220578193665,0.20834262669086456
1761505823483287800,5.885287841796875,0.2752322852611542,0.2959665358066559,0.20967541635036469
1761505823503443700,5.905443603515625,0.2782132923603058,0.23207685351371765,0.1656293421983719
1761505823523601000,5.925600830078125,0.2935691475868225,0.19435779750347137,0.15276387333869934
1761505823543756800,5.9457568359375,0.3088316321372986,0.19166642427444458,0.15869911015033722
1761505823563913700,5.965913818359375,0.3270650804042816,0.20524217188358307,0.1169997826218605
1761505823584069600,5.986069580078125,0.335725873708725,0.14508867263793945,0.04323013499379158
1761505823604226800,6.006226806640625,0.31237220764160156,0.044587887823581696,-0.004544696770608425
1761505823624384000,6.026384033203125,0.246531680226326,-0.07968208193778992,-0.08697456121444702
1761505823644540000,6.046539794921875,0.12684814631938934,-0.1951511949300766,-0.23917478322982788
1761505823664696600,6.066696533203125,0.014310414902865887,-0.18918918073177338,-0.407910019159317
1761505823684852700,6.086852783203125,-0.06893911957740784,-0.19610905647277832,-0.5164988040924072
1761505823705009700,6.107009765625,-0.0710868239402771,-0.08274712413549423,-0.42257222533226013
1761505823725165800,6.127165771484375,0.09892027080059052,0.16027402877807617,-0.2043714076280594
1761505823745322800,6.14732275390625,0.33040332794189453,0.4126540422439575,-0.07425767928361893
1761505823765479000,6.16747900390625,0.43549177050590515,0.4492596983909607,-0.12614232301712036
1761505823785635600,6.187635498046875,0.436497300863266,0.3480187654495239,-0.17218542098999023
1761505823805791700,6.207791748046875,0.3588142395019531,0.20063750445842743,-0.1305541843175888
1761505823825948700,6.22794873046875,0.2924061119556427,0.06038110330700874,-0.03512474149465561
1761505823846104800,6.248104736328125,0.262752890586853,-0.08895151317119598,0.038381583988666534
1761505823866261800,6.26826171875,0.21402126550674438,-0.1572660207748413,0.08409564942121506
1761505823886418000,6.28841796875,0.15436957776546478,-0.13175423443317413,0.1100299060344696
1761505823906574800,6.308574951171875,0.09663993120193481,-0.07284947484731674,0.08393885940313339
1761505823926730800,6.328730712890625,0.021808797493577003,0.00313771516084671,0.028603222221136093
1761505823946887700,6.3488876953125,-0.03720763698220253,0.017017245292663574,0.011993266642093658
1761505823967043600,6.369043701171875,-0.05853774771094322,0.0007197335362434387,0.0399990975856781
1761505823987200800,6.38920068359375,-0.032155416905879974,-0.03237948194146156,0.07490503042936325
1761505824007356700,6.409356689453125,0.004393060225993395,-0.08584903925657272,0.09767375141382217
1761505824027513900,6.429513916015625,0.06477408856153488,-0.11719106137752533,0.11613016575574875
1761505824047669800,6.449669677734375,0.11301589757204056,-0.12386054545640945,0.14997859299182892
1761505824067826700,6.46982666015625,0.1402922123670578,-0.16680464148521423,0.18995045125484467
1761505824087982600,6.489982666015625,0.14976733922958374,-0.200844869017601,0.2331838607788086
1761505824108139800,6.510139892578125,0.1639367640018463,-0.2012302726507187,0.2636377811431885
1761505824128295700,6.530295654296875,0.15569694340229034,-0.169636532664299,0.2494717538356781
1761505824148452900,6.550452880859375,0.17745329439640045,-0.10285919159650803,0.2265981286764145
1761505824168608800,6.57060888671875,0.22278587520122528,-0.016055967658758163,0.1978537142276764
1761505824188765400,6.590765380859375,0.252664178609848,0.0432053878903389,0.1917179375886917
1761505824208921600,6.610921630859375,0.30113184452056885,0.10414360463619232,0.19592389464378357
1761505824229078500,6.63107861328125,0.37246015667915344,0.19829913973808289,0.21442268788814545
1761505824249234700,6.651234619140625,0.4776831865310669,0.2676421105861664,0.18706074357032776
1761505824269391600,6.6713916015625,0.5454117655754089,0.30402594804763794,0.08496938645839691
1761505824289547800,6.6915478515625,0.5018412470817566,0.2349376678466797,-0.09390147775411606
1761505824309704400,6.711704345703125,0.2625025808811188,0.11125791072845459,-0.26078474521636963
1761505824329860600,6.731860595703125,0.14212387800216675,0.12867653369903564,-0.2705042064189911
1761505824350017500,6.752017578125,0.26716893911361694,0.24606403708457947,-0.14640024304389954
1761505824370173700,6.772173583984375,0.5067188143730164,0.2599312365055084,0.0033767507411539555
1761505824390330600,6.79233056640625,0.6956833600997925,0.1920536607503891,0.14058227837085724
1761505824410486800,6.81248681640625,0.7922747135162354,0.21770015358924866,0.26130908727645874
1761505824430643500,6.8326435546875,0.844512403011322,0.2870398759841919,0.29261451959609985
1761505824450799600,6.852799560546875,0.9008726477622986,0.2974104881286621,0.28681710362434387
1761505824470956500,6.87295654296875,0.9006247520446777,0.19515055418014526,0.2408236712217331
1761505824491112700,6.89311279296875,0.8844443559646606,0.02041732147336006,0.23032811284065247
1761505824511269600,6.91326953125,0.8451226353645325,-0.04442564398050308,0.2696325480937958
1761505824531425800,6.93342578125,0.8227991461753845,-0.009676864370703697,0.2594791650772095
1761505824551582500,6.95358251953125,0.7813704609870911,0.10478909313678741,0.17872852087020874
1761505824571738600,6.973738525390625,0.7988114356994629,0.2372460514307022,0.10160242766141891
1761505824591895600,6.9938955078125,0.8825470805168152,0.3343144655227661,0.06854220479726791
1761505824612051700,7.0140517578125,0.9908144474029541,0.3897569179534912,0.04937084764242172
1761505824632208600,7.034208740234375,1.0430724620819092,0.47351229190826416,0.027735713869333267
1761505824652364800,7.05436474609375,1.0326266288757324,0.5888252854347229,-0.006347898859530687
1761505824672521500,7.074521484375,1.0859808921813965,0.7006363868713379,-0.04960831627249718
1761505824692677600,7.094677734375,1.0816088914871216,0.6702770590782166,-0.14228489995002747
1761505824712834600,7.11483447265625,1.055561900138855,0.5046792030334473,-0.2564179003238678
1761505824732990700,7.13499072265625,1.0267616510391235,0.4162910580635071,-0.3405871093273163
1761505824753147600,7.155147705078125,1.0097850561141968,0.37462565302848816,-0.4350068271160126
1761505824773303800,7.1753037109375,0.9804069995880127,0.40009501576423645,-0.580061137676239
1761505824793460500,7.19546044921875,0.9982538819313049,0.44291752576828003,-0.6796060800552368
1761505824813616600,7.21561669921875,1.0347867012023926,0.49336087703704834,-0.689834713935852
1761505824833773600,7.235773681640625,1.104146122932434,0.5047863125801086,-0.5897319316864014
1761505824853929700,7.2559296875,1.1627671718597412,0.4205333888530731,-0.38842907547950745
1761505824874086700,7.276086669921875,1.2452564239501953,0.3592536151409149,-0.14714041352272034
1761505824894242600,7.29624267578125,1.3096712827682495,0.3485334813594818,-0.010980817489326
1761505824914399500,7.3163994140625,1.323311448097229,0.45357009768486023,-0.01987447403371334
1761505824934555400,7.336555419921875,1.3358616828918457,0.5525438785552979,-0.10115062445402145
1761505824954712000,7.356712158203125,1.350816011428833,0.5543045401573181,-0.20419922471046448
1761505824974868200,7.3768681640625,1.3670754432678223,0.5721664428710938,-0.2895875871181488
1761505824995025200,7.397025146484375,1.3833513259887695,0.6114967465400696,-0.3721393644809723
1761505825015181300,7.417181396484375,1.415980339050293,0.6373679637908936,-0.4206160008907318
1761505825035338200,7.437338134765625,1.517366886138916,0.6753191351890564,-0.4017808735370636
1761505825055494400,7.457494384765625,1.6512373685836792,0.6858959197998047,-0.3104621171951294
1761505825075651000,7.477651123046875,1.7728031873703003,0.6871677041053772,-0.2153203934431076
1761505825095807200,7.49780712890625,1.8693532943725586,0.7086101770401001,-0.17383532226085663
1761505825115964200,7.517964111328125,1.8997819423675537,0.7253921031951904,-0.19095031917095184
1761505825136120300,7.538120361328125,1.8956210613250732,0.6874740719795227,-0.1915159672498703
1761505825156277200,7.55827734375,1.8938229084014893,0.6027902960777283,-0.154610276222229
1761505825176433400,7.578433349609375,1.8663444519042969,0.520643949508667,-0.11436882615089417
1761505825196590000,7.598590087890625,1.8602635860443115,0.5282442569732666,-0.1191272959113121
1761505825216746200,7.618746337890625,1.8588787317276,0.5834038257598877,-0.19538496434688568
1761505825236903200,7.638903076171875,1.7974568605422974,0.7315824031829834,-0.3218129277229309
1761505825257059300,7.659059326171875,1.687605619430542,0.8850963115692139,-0.44307252764701843
1761505825277216300,7.67921630859375,1.556309461593628,0.9826433658599854,-0.49021750688552856
1761505825297372400,7.699372314453125,1.4994200468063354,0.9175389409065247,-0.4226631224155426
1761505825317529000,7.719529052734375,1.492828607559204,0.7869938611984253,-0.25776591897010803
1761505825337685200,7.739685302734375,1.449654221534729,0.6412876844406128,-0.07330600917339325
1761505825357842200,7.75984228515625,1.3664910793304443,0.4995097815990448,0.0320933535695076
1761505825377998300,7.779998291015625,1.2419333457946777,0.39942723512649536,0.027325943112373352
1761505825398155300,7.8001552734375,1.1414498090744019,0.37086087465286255,-0.015026158653199673
1761505825418311400,7.8203115234375,1.1265875101089478,0.38015493750572205,-0.05897935852408409
1761505825438468000,7.840468017578125,1.131601095199585,0.3473178744316101,-0.08327288925647736
1761505825458624300,7.860624267578125,1.0763580799102783,0.27588969469070435,-0.06171548366546631
1761505825478781200,7.88078125,0.9592199921607971,0.239898219704628,-0.019047299399971962
1761505825498937300,7.900937255859375,0.862703263759613,0.26454633474349976,-0.00214572180993855
1761505825519094300,7.92109423828125,0.8367993235588074,0.2722990810871124,0.006372546777129173
1761505825539250400,7.94125048828125,0.8947334885597229,0.17485901713371277,0.055742714554071426
1761505825559406300,7.96140625,0.9158334732055664,-0.014609571546316147,0.12077987939119339
1761505825579563300,7.981563232421875,0.7183421850204468,-0.1805342435836792,0.1786845624446869
1761505825599718400,8.001718505859374,0.4676585793495178,-0.36803680658340454,0.3185780346393585
1761505825619874300,8.021874267578125,0.3975107669830322,-0.5641423463821411,0.4455934464931488
1761505825640031200,8.04203125,0.4675552248954773,-0.713223934173584,0.43222740292549133
1761505825660187100,8.062187255859374,0.4623665511608124,-0.6408163905143738,0.2815228998661041
1761505825680344300,8.08234423828125,0.3503437638282776,-0.425907164812088,0.07827220857143402
1761505825700500200,8.102500244140625,0.16357934474945068,-0.11874207109212875,-0.07218734920024872
1761505825720657400,8.122657470703125,-0.005852757021784782,0.1438787281513214,-0.18140171468257904
1761505825740813300,8.142813232421876,-0.11267559230327606,0.24019375443458557,-0.27682793140411377
1761505825760970200,8.16297021484375,-0.18321190774440765,0.3473014235496521,-0.36321717500686646
1761505825781126100,8.183126220703125,-0.19699177145957947,0.4557002782821655,-0.45582103729248047
1761505825801283300,8.203283447265624,-0.14959536492824554,0.527803897857666,-0.5521332025527954
1761505825821439200,8.223439208984376,-0.024862663820385933,0.47097599506378174,-0.6328809261322021
1761505825841596400,8.243596435546875,0.11943943053483963,0.39846834540367126,-0.6601330041885376
1761505825861752300,8.26375244140625,0.2724306583404541,0.340496689081192,-0.6437370181083679
1761505825881909200,8.2839091796875,0.4318214952945709,0.3669393062591553,-0.5989610552787781
1761505825902065200,8.304065185546875,0.5320885181427002,0.3653324842453003,-0.5804733037948608
1761505825922222300,8.324222412109375,0.588487982749939,0.4154430329799652,-0.5870546698570251
1761505825942378500,8.34437841796875,0.6276123523712158,0.4275997579097748,-0.6129058599472046
1761505825962535400,8.364535400390626,0.6042433381080627,0.37057259678840637,-0.5551002025604248
1761505825982693400,8.384693359375,0.5841326117515564,0.2284812033176422,-0.379506379365921
1761505826002849300,8.404849365234375,0.5946272015571594,0.15405945479869843,-0.14832551777362823
1761505826023006500,8.42500634765625,0.6051990985870361,0.16360396146774292,-0.015608164481818676
1761505826043162400,8.445162353515625,0.6470234990119934,0.19743728637695312,-0.008605366572737694
1761505826063319600,8.465319580078125,0.6690451502799988,0.2249247431755066,-0.081451416015625
1761505826083475500,8.485475341796874,0.6937968730926514,0.2355506420135498,-0.14289043843746185
1761505826103632400,8.50563232421875,0.7403331398963928,0.2400774508714676,-0.1679925173521042
1761505826123788300,8.525788330078125,0.7697789669036865,0.22600162029266357,-0.20726430416107178
1761505826143945500,8.545945556640625,0.7338173389434814,0.21049673855304718,-0.22374959290027618
1761505826164101400,8.566101318359374,0.6580705642700195,0.18890072405338287,-0.19595058262348175
1761505826184258600,8.586258544921876,0.5976426005363464,0.07503273338079453,-0.15791921317577362
1761505826204414500,8.60641455078125,0.5870488882064819,0.022730406373739243,-0.12167369574308395
1761505826224571400,8.6265712890625,0.6286867260932922,0.06006103381514549,-0.12340563535690308
1761505826244727300,8.646727294921876,0.6889639496803284,0.17521610856056213,-0.16857551038265228
1761505826264884500,8.666884521484375,0.7325456142425537,0.2926267087459564,-0.21377445757389069
1761505826285040400,8.687040283203125,0.7630871534347534,0.31913357973098755,-0.2250896394252777
1761505826305197600,8.707197509765624,0.7877033948898315,0.31166279315948486,-0.20877164602279663
1761505826325353500,8.727353515625,0.7836229801177979,0.2428153157234192,-0.17738105356693268
1761505826345510400,8.747510498046875,0.7821424007415771,0.16392184793949127,-0.13044844567775726
1761505826365666300,8.767666259765624,0.7885214686393738,0.13524658977985382,-0.048747699707746506
1761505826385823500,8.787823486328126,0.7826569080352783,0.17481252551078796,0.026682794094085693
1761505826405979400,8.8079794921875,0.7662491202354431,0.15012092888355255,0.05683799833059311
1761505826426135600,8.828135498046874,0.7584723234176636,0.11514899879693985,0.06571026146411896
1761505826446292500,8.84829248046875,0.7615426778793335,0.10500925034284592,0.02066478133201599
1761505826466448600,8.86844873046875,0.7308986783027649,0.159080371260643,-0.022842805832624435
1761505826486605300,8.888605224609375,0.635283887386322,0.23254083096981049,-0.03208324313163757
1761505826506761500,8.908761474609374,0.5336524844169617,0.25402340292930603,-0.018974104896187782
1761505826526918400,8.92891845703125,0.47987332940101624,0.2689233720302582,-0.010329232551157475
1761505826547074300,8.94907421875,0.458595335483551,0.3240438997745514,-0.03138454258441925
1761505826567231500,8.9692314453125,0.4460166394710541,0.3850787281990051,-0.04107123985886574
1761505826587387400,8.989387451171876,0.42949506640434265,0.4191364347934723,0.0029492005705833435
1761505826607544300,9.00954443359375,0.4255036413669586,0.4106626510620117,0.03304799646139145
1761505826627700200,9.0297001953125,0.4406731128692627,0.37369856238365173,0.019916120916604996
1761505826647857400,9.049857421875,0.4537017345428467,0.335581511259079,-0.03305962309241295
1761505826668013300,9.070013427734375,0.4868224561214447,0.2999332547187805,-0.09167136996984482
1761505826688170500,9.09017041015625,0.5000236630439758,0.25878092646598816,-0.11643286794424057
1761505826708326400,9.110326416015624,0.5049729943275452,0.2161090224981308,-0.11392597109079361
1761505826728483300,9.1304833984375,0.5273812413215637,0.16047997772693634,-0.0878714993596077
1761505826748639200,9.15063916015625,0.5660691261291504,0.15181849896907806,-0.07651039212942123
1761505826768796400,9.17079638671875,0.6122832298278809,0.16219407320022583,-0.11178675293922424
1761505826788952300,9.190952392578126,0.6295027732849121,0.13898497819900513,-0.18946528434753418
1761505826809109500,9.211109619140625,0.6272865533828735,0.10372896492481232,-0.2703535854816437
1761505826829265400,9.231265380859375,0.612861156463623,0.11467105895280838,-0.30153486132621765
1761505826849422300,9.25142236328125,0.5801398754119873,0.14791202545166016,-0.2931021749973297
1761505826869578200,9.271578125,0.5668696165084839,0.1758173704147339,-0.2611967921257019
1761505826889735400,9.2917353515625,0.5851273536682129,0.20722681283950806,-0.2037026286125183
1761505826909891300,9.311891357421874,0.6054884195327759,0.23997852206230164,-0.1846378892660141
1761505826930049000,9.332049072265624,0.6094920635223389,0.2279202789068222,-0.2018939107656479
1761505826950205200,9.352205078125,0.5998772978782654,0.23170050978660583,-0.19876353442668915
1761505826970361000,9.372361083984375,0.599345862865448,0.2222248613834381,-0.1807706505060196
1761505826990518000,9.39251806640625,0.6066617369651794,0.19926151633262634,-0.18596208095550537
1761505827010674000,9.412673828125,0.6396505832672119,0.13835559785366058,-0.21115955710411072
1761505827030831000,9.4328310546875,0.6466851830482483,0.05824848636984825,-0.24595952033996582
1761505827050987000,9.452987060546874,0.6657012104988098,-0.007695646025240421,-0.2464442104101181
1761505827071144200,9.473144287109376,0.6566112041473389,-0.02275458350777626,-0.23431909084320068
1761505827091300000,9.493300048828125,0.5928142666816711,-0.06707072257995605,-0.28654924035072327
1761505827111457000,9.51345703125,0.5892475247383118,-0.09855403006076813,-0.32652297616004944
1761505827131613000,9.533613037109374,0.6270788311958313,-0.021362952888011932,-0.2782434821128845
1761505827151770000,9.55377001953125,0.6768823266029358,0.16860996186733246,-0.16962029039859772
1761505827171926000,9.573926025390625,0.6939571499824524,0.34349825978279114,-0.08687867224216461
1761505827192083200,9.594083251953125,0.6841708421707153,0.3415526747703552,-0.055034089833498
1761505827212239000,9.614239013671876,0.6749711036682129,0.30103474855422974,-0.03413619473576546
1761505827232396000,9.63439599609375,0.6582308411598206,0.3159182071685791,-0.010966398753225803
1761505827252552000,9.654552001953125,0.666201114654541,0.35650041699409485,0.019493192434310913
1761505827272709000,9.674709228515624,0.7095327377319336,0.3731743395328522,0.07080831378698349
1761505827292865000,9.694864990234375,0.7706559300422668,0.3920806646347046,0.1464490443468094
1761505827313022200,9.715022216796875,0.8319165706634521,0.4004724621772766,0.22958441078662872
1761505827333178000,9.73517822265625,0.9338803291320801,0.34439051151275635,0.2843282222747803
1761505827353334800,9.755334716796876,0.9575321078300476,0.22081901133060455,0.27215301990509033
1761505827373491000,9.775490966796875,0.8271117210388184,0.0473204031586647,0.21696487069129944
1761505827393647900,9.79564794921875,0.5826460719108582,-0.037644825875759125,0.20028626918792725
1761505827413804000,9.815803955078126,0.38737305998802185,0.10436588525772095,0.2508130967617035
1761505827433961000,9.8359609375,0.38742417097091675,0.40908536314964294,0.30609557032585144
1761505827454117000,9.8561171875,0.46221303939819336,0.5142279267311096,0.2508552670478821
1761505827474273000,9.87627294921875,0.5283116698265076,0.5426622629165649,0.13459205627441406
1761505827494430000,9.896429931640625,0.5186658501625061,0.5501790642738342,0.037920545786619186
1761505827514585900,9.9165859375,0.46704787015914917,0.5627800226211548,0.013530222699046135
1761505827534743000,9.936742919921874,0.43620917201042175,0.551906168460846,0.06346198171377182
1761505827554899000,9.95689892578125,0.4514297842979431,0.5340688228607178,0.1351485699415207
1761505827575056100,9.97705615234375,0.4981684684753418,0.48141878843307495,0.17124104499816895
1761505827595212000,9.9972119140625,0.5586157441139221,0.3802500069141388,0.16780047118663788
1761505827615369000,10.017368896484374,0.5871210098266602,0.30101728439331055,0.13028927147388458
1761505827635524900,10.03752490234375,0.5838466286659241,0.294098436832428,0.07899601757526398
1761505827655682000,10.05768212890625,0.5878037810325623,0.3369060158729553,0.052899111062288284
1761505827675838000,10.077837890625,0.5674332976341248,0.3735416531562805,0.0330573171377182
1761505827695995100,10.0979951171875,0.5437633395195007,0.3642650246620178,0.02628149464726448
1761505827716151000,10.118151123046875,0.4896363615989685,0.2932114899158478,-0.03208092972636223
1761505827736308200,10.13830810546875,0.43326735496520996,0.23087316751480103,-0.14750246703624725
1761505827756464000,10.158464111328126,0.3882157802581787,0.19389238953590393,-0.23874546587467194
1761505827776621000,10.17862109375,0.3660464584827423,0.16021957993507385,-0.2562119960784912
1761505827796777000,10.19877685546875,0.3441298007965088,0.11807331442832947,-0.2553294003009796
1761505827816934100,10.21893408203125,0.30681291222572327,0.03855204954743385,-0.2485039085149765
1761505827837090000,10.239090087890625,0.20910972356796265,-0.017306195572018623,-0.2630876302719116
1761505827857247200,10.259247314453125,0.07374206185340881,-0.022410787642002106,-0.3358115255832672
1761505827877403100,10.279403076171874,0.04361673817038536,0.0948537141084671,-0.4031262695789337
1761505827897559000,10.29955908203125,0.12822023034095764,0.2805248498916626,-0.4001699984073639
1761505827917715500,10.319715576171875,0.27668747305870056,0.41706234216690063,-0.32987576723098755
1761505827937871600,10.33987158203125,0.36598387360572815,0.3888961374759674,-0.2714492678642273
1761505827958028500,10.360028564453126,0.3643033802509308,0.23909351229667664,-0.2383423149585724
1761505827978184700,10.380184814453125,0.27581116557121277,0.03011779673397541,-0.24154840409755707
1761505827998341600,10.400341552734375,0.178099125623703,-0.12559854984283447,-0.2572135329246521
1761505828018497800,10.420497802734374,0.12470339983701706,-0.17548158764839172,-0.2503601610660553
1761505828038654500,10.440654541015626,0.1351008415222168,-0.14651133120059967,-0.2046595960855484
1761505828058810600,10.460810546875,0.17076802253723145,-0.07482022047042847,-0.16710622608661652
1761505828078967600,10.480967529296874,0.2235538363456726,0.048808444291353226,-0.1401277482509613
1761505828099123700,10.501123779296876,0.2711046636104584,0.16542024910449982,-0.11196120828390121
1761505828119280600,10.52128076171875,0.28377124667167664,0.19162456691265106,-0.11466609686613083
1761505828139436800,10.541436767578125,0.2165132611989975,0.07854417711496353,-0.09395555406808853
1761505828159593500,10.561593505859374,0.1543024331331253,-0.039541736245155334,-0.036012984812259674
1761505828179749600,10.58174951171875,0.1022953987121582,-0.08519911766052246,0.05747050419449806
1761505828199905500,10.601905517578125,0.056089725345373154,-0.16209499537944794,0.13003262877464294
1761505828220062700,10.622062744140624,0.003123064059764147,-0.2034667581319809,0.12436120957136154
1761505828240218600,10.642218505859375,-0.03901474177837372,-0.0442190058529377,0.10578963905572891
1761505828260375800,10.662375732421875,-0.28626343607902527,-0.23408934473991394,0.2516406178474426
1761505828280531700,10.68253173828125,-0.4235253632068634,-0.5670427680015564,0.15081918239593506
1761505828300688600,10.702688720703126,-0.40449514985084534,-0.7534117698669434,-0.0839664489030838
1761505828320844500,10.722844482421875,-0.35929229855537415,-0.7637124061584473,-0.1741245985031128
1761505828341001700,10.743001708984375,-0.28532546758651733,-0.5430288314819336,-0.07636794447898865
