time,seconds_elapsed,z,y,x
1761481475705563000,0.07456298828125,-2.5339596749365327,-5.422611908710002,2.431121231752634
1761481475725505800,0.094505859375,-0.9007052696481347,-7.430498960319161,0.05989347381815314
1761481475745447700,0.11444775390625,-0.20292963348627088,-8.307940551018714,0.7538539356060325
1761481475765390600,0.134390625,0.38329818333536386,-8.953194849565625,1.7536659145638345
1761481475785332700,0.154332763671875,0.6905214272499084,-8.208017703020571,-0.13694797146138735
1761481475805275600,0.174275634765625,-1.1931234508797526,-6.810898742988705,-2.4248680165767666
1761481475825217800,0.1942177734375,-1.6839771690487861,-3.100487058249116,-2.8906358088061213
1761481475845160700,0.21416064453125,-0.41912995969504113,-0.16143150192797184,0.5740378320079297
1761481475865102800,0.234102783203125,0.36517829701602456,1.4583154792726039,1.135722378399223
1761481475885045800,0.254045654296875,-0.4411068137034774,3.389255484801531,-2.417475714368373
1761481475904988000,0.27398779296875,-0.7077057862848043,5.648802590796351,-3.2578812674850224
1761481475924930800,0.293930908203125,-0.052425183764100075,7.273128131958842,-1.945870740418136
1761481475944872700,0.313872802734375,1.2435384638652205,8.207586325865984,-0.24823183350265024
1761481475964815600,0.333815673828125,3.5606834800869223,8.79919262085557,-0.1793573087136261
1761481475984757800,0.3537578125,4.78407552024126,8.892571746298671,-0.947888314975053
1761481476004700700,0.37370068359375,4.151306901519001,8.751925842767953,-1.7966672902919352
1761481476024642800,0.393642822265625,2.438390930494666,8.466929920491575,-1.736178773190081
1761481476044585700,0.413585693359375,0.7805377982616424,8.20776168243289,-1.7378111966975032
1761481476064528000,0.43352783203125,0.5999173194780946,7.955887693035602,-1.8409893932297825
1761481476084470800,0.453470703125,0.9349322411596774,7.3184461140662425,-0.7624361051861196
1761481476104412700,0.47341259765625,0.6856964913114905,5.161074018910527,0.7874556148260832
1761481476124355800,0.49335595703125,1.6879641928583382,1.220821897405386,0.6153214440327137
1761481476144297700,0.513297607421875,1.6830071549728511,-2.328210307854414,-0.2754390624452382
1761481476164241200,0.5332412109375,-0.18266835122406483,-5.326114943507314,1.1023102304019032
1761481476184182800,0.553182861328125,-0.6752768041059375,-7.7537600235819815,0.7416690653588622
1761481476204126000,0.5731259765625,-0.2829144398272037,-8.603152746883033,1.3817188540652394
1761481476224067800,0.59306787109375,-1.732955719490349,-9.335316682597995,4.527633492276072
1761481476244011000,0.613010986328125,-3.0065336400493976,-9.508659571593999,5.5115539284884925
1761481476263953000,0.632952880859375,-2.242033368875086,-10.33744965184927,1.6237731679767369
1761481476283896000,0.65289599609375,-1.1740168916106224,-12.009991234648227,2.5318603645697233
1761481476303838000,0.672837890625,-4.245227001971006,-8.955231908351182,2.5523808822900054
1761481476323781000,0.692781005859375,-5.794811482664943,-6.042535366645455,1.0775602584183215
1761481476343723000,0.712722900390625,-2.1895330740481613,-4.424959884265065,-1.1142429525189101
1761481476363666200,0.732666259765625,2.13293265042603,-3.27060455545783,-2.462411857551336
1761481476383607800,0.75260791015625,3.460113566356897,-0.9629396075040102,-1.6802818216621875
1761481476403551000,0.772551025390625,1.5391928505390882,2.5418045432180163,-0.4054544124986976
1761481476423492900,0.792492919921875,-0.22087211741209029,4.1134056254088875,-1.1073286430858076
1761481476443436000,0.81243603515625,-0.5927928744256497,4.423709591943025,-1.497990340926498
1761481476463378000,0.8323779296875,0.8618784031257033,4.405452635240555,-1.0865180563777685
1761481476483320800,0.85232080078125,1.073653898629546,6.263395209097862,-0.9105432114429771
1761481476503263000,0.872262939453125,1.4903011015981436,8.06480925552547,1.1526910488568245
1761481476523206000,0.892205810546875,1.9404151053607464,8.846546492704748,1.778633767081797
1761481476543148000,0.91214794921875,3.9015591104954477,7.914733260348439,0.1365556750750169
1761481476563091000,0.932091064453125,4.425734668029844,6.612516689804196,-2.4101615919627246
1761481476583033000,0.952033203125,0.7781538257345557,6.440604710394144,-2.879329986415803
1761481476602976000,0.97197607421875,-1.3782795272663235,7.376212074336409,-1.1585996883787215
1761481476622918000,0.99191796875,-0.9618512277454138,6.953135130581259,0.8558471601374447
1761481476642860800,1.01186083984375,-0.3478624205559492,4.8613060594379895,0.4086148492909968
1761481476662803000,1.031802978515625,-0.07989449770897626,1.1445447134107352,-0.9994291171200573
1761481476682745900,1.051745849609375,-0.8664546250000595,-3.1038433829396963,0.3851758868407458
1761481476702688000,1.07168798828125,-2.297278870756924,-4.401101454293728,0.057849071976356206
1761481476722631000,1.091630859375,-4.035314962251484,-3.7006168514341113,-1.452994284249842
1761481476742573000,1.111572998046875,-5.510457365423441,-4.915488900524378,1.4629182968929408
1761481476762516000,1.131515869140625,-2.563620653706789,-5.567622437191009,3.3720492061957716
1761481476782458000,1.1514580078125,0.7023682246491313,-7.433463655343651,2.940824904081225
1761481476802401000,1.171401123046875,1.534801045320928,-9.192757054400444,1.4553504919871687
1761481476822343000,1.191343017578125,-0.9629290861099958,-8.956234947913885,0.9249602977216244
1761481476842285800,1.211285888671875,-1.8694813282206653,-9.524166352805494,3.033191637611389
1761481476862228000,1.23122802734375,1.3176070318996906,-7.513079628372192,3.2221064820095893
1761481476882171000,1.2511708984375,2.748502004805207,-6.257034441894293,-0.19554096627337858
1761481476902113000,1.271113037109375,2.4920813118889926,-4.410059836775064,-3.4996105872258543
1761481476922056000,1.291055908203125,2.3739348249360916,-0.6080506493121385,-2.610224876232445
1761481476941998000,1.310998046875,1.4048235430598257,3.0391958464622495,-0.4666464016947895
1761481476961941000,1.33094091796875,-0.35547698721289633,4.192752133846283,0.3164888657141477
1761481476981883100,1.350883056640625,-1.4581144037425517,4.124028726232051,-1.1789372507475315
1761481477001826000,1.370825927734375,-1.7579159732237457,4.723353048253059,-1.6673618420735001
1761481477021768200,1.390768310546875,0.2757385568484664,6.077477500689029,-0.9452847814131528
1761481477041711000,1.410711181640625,3.207854669295251,6.6161278660386795,0.09055858812965452
1761481477061653000,1.430653076171875,4.456505069346726,7.659175029480457,0.20553711257092652
1761481477081596000,1.450595947265625,3.135263480336964,7.440645091280341,0.031135800563171504
1761481477101538000,1.4705380859375,1.8402920586153864,8.118461935257912,0.02216770040541887
1761481477121481000,1.49048095703125,1.8125389592930674,8.024857184365391,-0.9887277634289116
1761481477141423000,1.510423095703125,1.7317372836112974,7.074312363532185,-1.3917086254209279
1761481477161365800,1.53036572265625,1.6225713909715413,6.713128104588389,-2.7036908031761646
1761481477181308000,1.550307861328125,0.5484703330963849,6.549535040712356,-1.600399014391005
1761481477201250800,1.570250732421875,-0.6576584375679493,6.327673912262916,1.2708841514304279
1761481477221193000,1.59019287109375,0.050258653379976745,1.9995465087652204,2.774609675008058
1761481477241135900,1.610135986328125,0.0415901937559247,-1.8688000679582357,0.42392450049519537
1761481477261077800,1.630077880859375,-2.022159030328691,-3.8996167442560195,-0.643104061710462
1761481477281020700,1.650020751953125,-4.575853625565767,-5.887331945452094,2.247983947842568
1761481477300962600,1.669962646484375,-3.2425188631802797,-7.936630619379877,3.0657723032206294
1761481477320905700,1.68990576171875,-2.9617028569370505,-9.427187741565703,1.2371177831679583
1761481477340847600,1.70984765625,-4.082028198109567,-10.109518848097323,0.04293587274383753
1761481477360790800,1.729790771484375,-3.3475217909216877,-9.953845471304655,0.3973001494744792
1761481477380732700,1.749732666015625,-2.3090829980581997,-9.798310626199841,2.2356167798310516
1761481477400675800,1.76967578125,-1.222738836942613,-9.757484694814682,2.5163398470938203
1761481477420617700,1.78961767578125,-1.5996598864614961,-8.94467836563289,-0.22535859691007062
1761481477440561000,1.809560791015625,-0.3619122809574008,-6.774091399595141,-1.370809337516129
1761481477460502500,1.82950244140625,1.1676648922353983,-3.3148470172882076,0.33773386178407816
1761481477480445700,1.84944580078125,1.5431357429459691,-0.13525953431725501,1.8530230915032326
1761481477500387600,1.8693876953125,0.9148241036325693,1.1073767200112343,0.005419636728824116
1761481477520330800,1.889330810546875,1.0326724844217299,1.8515122485488653,-3.150006875960529
1761481477540272600,1.909272705078125,1.9992244372040031,2.924368274798989,-3.884854059410095
1761481477560215800,1.9292158203125,2.3090587403997778,4.4909699412673705,-2.3584655992560086
1761481477580157700,1.94915771484375,1.1991288287743926,6.115940794596075,-0.3849896435536444
1761481477600100900,1.969100830078125,0.6693199415281414,7.423148597556352,0.8077689926017075
1761481477620042800,1.989042724609375,1.4774080100163816,8.02332865962386,0.7105556227579712
1761481477639986000,2.00898583984375,2.7567110302239657,8.171213282236456,-0.15267364698741584
1761481477659927600,2.028927490234375,3.143363492423296,7.916864427158236,-0.7601145303707569
1761481477679870700,2.04887060546875,2.2798627487927674,7.530828635552525,-1.0489423589602112
1761481477699812600,2.0688125,1.0556614380821585,7.602358917281031,-0.7979729171872139
1761481477719755800,2.088755859375,-0.6095929103180766,7.442265385958552,-0.8680044847905636
1761481477739697700,2.10869775390625,-1.1730939315468072,6.5587728246569625,-1.0018877623185516
1761481477759640600,2.128640625,0.11211188296377658,4.057869031625986,-0.8740589625239372
1761481477779582700,2.148582763671875,2.1356673360869287,1.8037363518953322,0.7216193069554865
1761481477799525600,2.168525634765625,1.865425623089075,0.17820728016197682,2.9852947449266907
1761481477819467800,2.1884677734375,-0.061466860614717005,-2.0205553945243357,2.3133904859937724
1761481477839410700,2.20841064453125,-3.9425568913161753,-5.916722875109315,-1.4277806402772664
1761481477859352800,2.228352783203125,-5.012883691349625,-8.598537946563958,-2.2767706279963256
1761481477879295700,2.248295654296875,-2.629531049726903,-9.411667516350745,0.1655000300085172
1761481477899237600,2.268237548828125,0.08282704402953386,-8.693364932727814,1.3375751764342187
1761481477919180500,2.2881806640625,-1.0840975512325763,-9.261873260724544,1.2760475255429744
1761481477939122700,2.308122802734375,-3.8191657817080613,-10.740240178900956,1.4012367706142366
1761481477959065600,2.328065673828125,-3.216950414420664,-10.988024853157997,1.5494278288275003
1761481477979007700,2.3480078125,-1.8453873359277844,-8.859650888949632,-0.11700118937529623
1761481477998950000,2.367949951171875,0.6274985693648457,-6.728815503063798,-2.613641698938608
1761481478018892800,2.387892822265625,3.6338194434463977,-4.616158163425326,-2.144367067632079
1761481478038834700,2.407834716796875,3.62938555265218,-1.3637357458680868,0.17373597996681928
1761481478058777900,2.42777783203125,1.4198752739802003,1.9622925906479358,0.9818603618774563
1761481478078719500,2.447719482421875,-1.4650830737113951,3.896400120297074,0.40144532298780977
1761481478098662700,2.46766259765625,-2.0008169670924545,4.7962061030179255,-0.6876108005002141
1761481478118604500,2.4876044921875,0.16140256809443235,5.812034420144558,-0.4805655118560418
1761481478138547700,2.507547607421875,1.9651628853872418,7.362269473701715,-0.10264557835976593
1761481478158489900,2.52748974609375,3.0809260332107544,8.286748709908128,0.2916673628643155
1761481478178433000,2.54743310546875,2.437463586516678,8.296843402943015,0.027396129977656527
1761481478198375000,2.567375,1.038496952791512,7.7819842475473875,-0.7697600183334201
1761481478218318000,2.587318115234375,0.9351122739017009,7.249224109280109,-1.170939529991895
1761481478238260000,2.607260009765625,1.8755045340329408,7.519968803364038,-1.2415424677424132
1761481478258203100,2.627203125,2.1852993820011615,7.742937016272545,-0.8856710013192146
1761481478278145000,2.64714501953125,1.5201508809387683,7.19312228282988,-0.16023180728200823
1761481478298088200,2.667088134765625,-0.1667044738948345,6.198371825045347,0.3711996031321585
1761481478318029800,2.68702978515625,-1.460426187816262,3.9229818377524612,-0.04188376987501979
1761481478337973000,2.706972900390625,-0.32895182225033637,0.4690671260356903,0.887989361264184
1761481478357915000,2.726914794921875,2.569664610046148,-2.3893027821987864,1.8236989434719084
1761481478377858000,2.746858154296875,2.138444837976247,-3.1063626722842455,1.30743912749812
1761481478397800000,2.766800048828125,-2.913798073206842,-4.465261499515176,1.4631050516366957
1761481478417742800,2.786742919921875,-4.818823008495569,-7.543217577004432,2.2268078888230023
1761481478437685000,2.80668505859375,-0.9494802603416145,-9.31516353688538,2.5578777261406183
1761481478457628000,2.8266279296875,2.7749486977040765,-9.45302711622119,1.7655270327493546
1761481478477570000,2.846570068359375,2.923880199021101,-9.35811771247089,1.397105516028404
1761481478497513000,2.866512939453125,-0.03818447696566581,-9.985632940709591,1.753685496047139
1761481478517454800,2.886454833984375,-3.2075667922645805,-9.892429756355286,1.07682156888023
1761481478537397800,2.906397705078125,-4.127283928635716,-7.903227531471848,-0.8556658852864056
1761481478557340000,2.92633984375,-1.022232046689093,-4.7103211327224965,-0.6488226585529744
1761481478577282800,2.94628271484375,1.6699556579589843,-2.697035436940193,-0.166060020245146
1761481478597225000,2.966224853515625,3.1052824758321047,-1.4276596442461014,-2.9898499240130185
1761481478617168000,2.98616796875,3.991510015055537,0.15757073484659195,-4.994170223051309
1761481478637110000,3.006110107421875,2.269016360607743,2.509740594959259,-4.264866060681641
1761481478657053000,3.026052978515625,-1.2455194085493684,4.7067122945755715,-1.747023992331326
1761481478676995000,3.0459951171875,-3.5965453593239185,6.451220796954631,0.2711165961362421
1761481478696938000,3.06593798828125,-2.255816687294841,7.498831907311081,1.0507808994989842
1761481478716880100,3.085880126953125,1.3544880250513553,7.554756039106845,0.5186934363288804
1761481478736823000,3.105822998046875,3.5217101908311244,7.704364416772127,-0.49844475781992076
1761481478756765000,3.125764892578125,2.704714301005006,7.905031366023421,-1.0288973497971892
1761481478776707800,3.145707763671875,0.29973727207332845,8.230156469592451,-0.6767170660421252
1761481478796650000,3.16564990234375,-0.8133388286232948,8.786085302001238,-0.017871665445622055
1761481478816593000,3.185593017578125,-0.41573505655974147,8.578869954019785,-0.15828080107839776
1761481478836535000,3.20553515625,1.097596061361581,7.725496636649966,-0.6799423116989434
1761481478856478000,3.22547802734375,2.345471823778748,6.174128195148706,0.042138950212486086
1761481478876420000,3.245420166015625,1.5444573469385503,3.3810891294807193,2.299853105159104
1761481478896363000,3.265363037109375,1.3984165986269712,-0.7577712551802396,3.2231413780152796
1761481478916305200,3.28530517578125,2.5003157640099523,-4.385714500069618,0.1524860702597536
1761481478936248000,3.305248046875,-0.9270913184009492,-6.637542409989237,-1.6406081290520727
1761481478956190000,3.32518994140625,-5.8241147340387105,-7.980642779585718,2.1120842159256337
1761481478976132900,3.3451328125,-5.14430116328597,-8.265590771067142,3.5570199891433116
1761481478996075000,3.365074951171875,-1.1058370893537997,-8.304823295781016,2.1273612800344823
1761481479016018000,3.385017822265625,2.0996255702383815,-8.937470041689275,-0.23167981755454092
1761481479035960000,3.4049599609375,0.4794827215880155,-9.36132147694826,-1.3303827807120978
1761481479055903000,3.424903076171875,-1.2887374957680702,-8.239326448997854,-0.16560217520873993
1761481479075845000,3.44484521484375,0.35337044338770207,-7.4999804928243154,1.0296003835000098
1761481479095787000,3.464787109375,1.6355846018016338,-6.0526908499568695,-0.5146393020998686
1761481479115730000,3.48472998046875,2.7967975414186714,-4.382742206260562,-2.1440300907626746
1761481479135672000,3.504672119140625,3.5238638617336746,-2.0863246285080908,-2.4319362013973294
1761481479155614500,3.524614501953125,2.423971213867515,1.1735557038396596,-1.081749745997414
1761481479175556000,3.54455615234375,1.3177020167067646,4.488523132637143,0.7968838798414916
1761481479195499300,3.564499267578125,0.5752737304784358,6.156169929131865,1.45389810122177
1761481479215441200,3.584441162109375,1.3828399670496583,6.564937192505598,-0.17511654760502277
1761481479235384300,3.60438427734375,2.0492285313010217,6.693747696813941,-1.5058688192166387
1761481479255326200,3.624326171875,0.9487059149682521,8.137681599512696,0.3505674417309463
1761481479275269400,3.644269287109375,0.2952130726471543,9.678438046106695,1.8358888552203774
1761481479295211300,3.664211181640625,0.2561751937225461,9.33969124442041,1.6263912415206432
1761481479315154400,3.684154541015625,1.141708028680086,7.054826157295704,-1.019186322317645
1761481479335096300,3.704096435546875,1.3261290687903762,5.688376476293802,-3.108405868549645
1761481479355039200,3.724039306640625,1.8291960795834659,5.529378338992595,-1.9718328646704553
1761481479374981000,3.743981201171875,0.9234440479397773,5.198620782494545,-0.39797808526866135
1761481479394924300,3.76392431640625,-1.4098206206947563,3.85000603339076,0.022233678313717246
1761481479414866200,3.7838662109375,-3.4891713185369966,1.0261796152710914,-0.02707059695087373
1761481479434809000,3.80380908203125,-2.9098899598523973,-1.638898256394267,-0.08588171889241784
1761481479454751200,3.823751220703125,1.0913532214492558,-2.5290754100263118,-0.4831154885997995
1761481479474694100,3.843694091796875,2.314274136960506,-4.691079841157793,0.2336293807197362
1761481479494636300,3.86363623046875,-1.2041390581518412,-7.546260013440251,0.5065262113362551
1761481479514579200,3.8835791015625,-4.191306318952143,-9.461744675683974,1.624025827563554
1761481479534521300,3.903521240234375,-2.9505110163152217,-10.424414818596839,3.0405852549940344
1761481479554464300,3.92346435546875,2.207969478970766,-10.737559561514853,3.4808278530836105
1761481479574406400,3.943406494140625,2.512709381636977,-11.375761603462696,2.040134247480333
1761481479594349300,3.963349365234375,-2.803780824434757,-11.264155331933498,0.35177349305246025
1761481479614291200,3.983291259765625,-6.4765668351352215,-9.353829659888147,-0.8177290264062583
1761481479634234000,4.003234130859375,-3.7434114525437354,-6.359564257520437,0.219879781906493
1761481479654176300,4.02317626953125,0.5546797091305256,-2.732306656807661,1.524990283793956
1761481479674119200,4.043119140625,2.486535660460591,1.3844903646051883,1.4689911870658396
1761481479694061300,4.063061279296875,2.647766086858511,3.7506653691947456,-1.1843383060734718
1761481479714004200,4.083004150390625,1.4417548050940037,3.862804140165448,-4.455046394971013
1761481479733946400,4.1029462890625,0.7605208461493254,4.282540541321039,-5.585038851416111
1761481479753889300,4.12288916015625,1.3022469656825064,6.313543680101633,-3.3244837374225256
1761481479773831400,4.14283154296875,1.9540316889114677,8.177519104382394,-1.1262535621777177
1761481479793774300,4.1627744140625,1.9476497327893971,8.898209459924697,-0.022502330054109915
1761481479813716200,4.18271630859375,1.6803521104194223,8.746232015040516,-0.7442025293592364
1761481479833659100,4.2026591796875,1.7228620493687687,8.294878824871779,-1.5083657505989074
1761481479853601300,4.222601318359375,1.4843753648109732,7.758422754696011,-1.869843731792271
1761481479873544200,4.242544189453125,0.6181906427934766,7.8281357578694815,-0.8296940433576703
1761481479893486300,4.262486328125,-0.34111060820817946,8.155691303455828,0.1309861678469926
1761481479913428200,4.28242822265625,-0.14541311793252826,7.23174690477848,0.674794938873127
1761481479933371400,4.302371337890625,0.7343687522828578,4.152512477916479,-0.22384002730697392
1761481479953313300,4.322313232421875,1.1520090579420328,1.0147527968496084,-0.9020839375901967
1761481479973256400,4.34225634765625,-0.322355054333806,-1.047750811088085,1.635047864576429
1761481479993198000,4.362197998046875,-0.7187550035655498,-1.3775070815891026,3.2042785643741487
1761481480013141200,4.382141357421875,0.013488427126407623,-2.065223388290405,1.7340362082034348
1761481480033083100,4.402083251953125,-2.3416059421308337,-5.4674003139853475,-2.380875730115175
1761481480053026300,4.4220263671875,-3.614733634704351,-9.268903305491804,-0.7242819502934813
1761481480072968200,4.44196826171875,-0.46427696914970873,-9.113076199442148,3.378443291147053
1761481480092911400,4.461911376953125,2.5165391690582037,-7.839298372396827,5.5189130590796465
1761481480112853200,4.481853271484375,3.004216887539625,-7.268999653851986,4.159109099702537
1761481480132796200,4.501796142578125,0.08080547507405281,-8.654654386061429,2.057982331120968
1761481480152738300,4.52173828125,-1.0687632039785384,-10.053008440846204,2.0082693289250133
1761481480172681500,4.541681396484375,-0.06834814456105232,-8.051116830259561,1.3801929596722124
1761481480192623400,4.561623291015625,-0.13122808684408663,-5.553291129499674,0.27914423710610714
1761481480212566300,4.581566162109375,-1.168667785667628,-2.6415467739522454,-0.39881471875589336
1761481480232508400,4.60150830078125,-0.32765082265436646,0.33069618169963355,0.2420402123209089
1761481480252451300,4.621451416015625,0.20641338394880293,2.310147996941209,0.1452163532514125
1761481480272393500,4.6413935546875,-1.083294418156147,2.683962020355463,-1.9578169065386055
1761481480292336400,4.66133642578125,-2.3763825103491545,3.978459979346394,-3.193152774725854
1761481480312278500,4.681278564453125,-0.12661679365634917,5.562083507764339,-2.0934131254643202
1761481480332221400,4.701221435546875,2.911972026823461,7.282704354077577,-0.12995010279752314
1761481480352163600,4.72116357421875,3.154103789885342,8.52553993037045,1.1366718611437827
1761481480372106500,4.7411064453125,1.711409658114612,8.871468167993426,0.10507138986773788
1761481480392048400,4.76104833984375,0.709325204180181,8.38857125404775,-0.8911288283336907
1761481480411991300,4.7809912109375,1.629135717923194,8.078604556643963,-1.063117087850347
1761481480431933400,4.800933349609375,1.115498943929374,7.579388960582017,-1.226739012494683
1761481480451876400,4.82087646484375,-0.6544586186133324,7.376460496139526,-1.7982243104755877
1761481480471818500,4.840818603515625,-0.9189337309084832,6.8845748045742505,-2.141687327028811
1761481480491761400,4.860761474609375,0.2320173424132168,5.983228022152185,-1.5098568659394977
1761481480511703600,4.88070361328125,0.39201004370972514,4.330000211632251,-0.7154250554252416
1761481480531646500,4.900646484375,0.48092809809073805,1.7257143700599669,-1.062009784195572
1761481480551588600,4.920588623046875,1.6834003920741378,-0.15883914734721183,-1.7595559955157338
1761481480571531500,4.940531494140625,2.1701732706703245,-1.202059913790226,-1.7501693046197295
1761481480591473700,4.9604736328125,-1.2799002554483712,-2.8752631753683087,-0.1107975854948163
1761481480611416600,4.98041650390625,-4.120741375124454,-4.780802197659016,1.5082275111719965
1761481480631358500,5.0003583984375,-0.5483049134016037,-6.564176729527116,2.7946628674775362
1761481480651300400,5.02030029296875,3.2108062125772237,-7.779581862580776,3.47124227861464
1761481480671243500,5.040243408203125,2.359142183343321,-9.332406348109245,4.7878988779217
1761481480691185400,5.060185302734375,-2.0756126803576946,-10.641104097366332,3.3978602315396067
1761481480711128600,5.080128662109375,-3.9860090795516965,-10.721600944882631,1.666902992390096
1761481480731070500,5.100070556640625,-3.9683191090822216,-9.199186210665106,-0.41568197466563434
1761481480751013600,5.120013671875,-1.0699144198402761,-7.58399090141952,-2.280085451632738
1761481480770955500,5.13995556640625,3.006918839974701,-5.772708371928334,-1.5893369376286863
1761481480790898700,5.159898681640625,3.060174337083101,-3.41700741508007,-0.503773003637977
1761481480810840300,5.17984033203125,-1.0297489981904626,-1.3685142123162746,-1.2003136546447872
1761481480830783500,5.199783447265625,-1.5821397196009754,0.5687731164127587,-2.080227772937715
1761481480850725400,5.219725341796875,1.4077014365836977,1.958817608013749,-2.1447019986748694
1761481480870668300,5.239668212890625,3.0349773519843817,3.3816824191987513,-1.6268287561550736
1761481480890610400,5.2596103515625,0.7772749970734119,5.245885222494602,0.4326865566868335
1761481480910553300,5.27955322265625,-0.9609165772438049,6.753942345535755,1.2122048026423902
1761481480930495500,5.29949560546875,-0.11304828703105449,7.3532678366005415,1.1297899196103214
1761481480950438400,5.3194384765625,1.8645991091370582,6.93629271685183,0.32416184802744535
1761481480970380500,5.339380615234375,4.171287613274157,6.027806584069133,-1.7484816437937318
1761481480990323500,5.359323486328125,3.353461702364683,5.568177148464322,-2.5003251163601874
1761481481010265600,5.379265625,-0.0780173056602478,5.781290322312712,-1.5594731297627091
1761481481030208500,5.39920849609375,-1.5313482745185494,5.829443235585093,-0.541566983448714
1761481481050150400,5.419150390625,-1.9986703104525803,5.43874938904047,-0.6573606236651539
1761481481070093300,5.43909326171875,-1.7875693532094359,3.36434023925364,-1.2707444506987928
1761481481090035500,5.459035400390625,-0.3275213510558009,0.2641325824677944,0.41181934442073104
1761481481109978400,5.478978271484375,1.5637860245257615,-2.362020807519555,1.163216242263466
1761481481129920500,5.49892041015625,-0.8381684417143463,-4.812346505957842,0.17358181231841444
1761481481149863400,5.518863525390625,-5.90235181992948,-7.303837742999195,-1.0282108288377523
1761481481169806000,5.53880615234375,-6.537354189053177,-7.756511368116736,1.2275023980826139
1761481481189749000,5.5587490234375,-0.4758014027267694,-7.799002017843723,4.274566201440989
1761481481209691100,5.578691162109375,4.721911032751202,-8.416247781002522,3.7429271761581298
1761481481229634000,5.598634033203125,3.035442631408572,-10.099524692827462,1.613887587647885
1761481481249576200,5.618576171875,-1.8644497637942432,-9.941887322485446,1.328954647605121
1761481481269519000,5.63851904296875,-3.4163390142992136,-8.294002042037247,2.5854052000135184
1761481481289461200,5.658461181640625,-2.190539620742202,-6.129353818398713,1.3680131309263408
1761481481309404200,5.678404052734375,1.2343987334676085,-3.993474008604884,-0.24751349263284353
1761481481329346300,5.69834619140625,3.0732112210497258,-1.1203297250866888,-1.644921023815125
1761481481349289200,5.718289306640625,2.5623914041727778,1.9511071797668933,-1.5525284251913427
1761481481369231000,5.738231201171875,1.7453405692890285,4.541936742916703,-0.23950349691752343
1761481481389174000,5.758174072265625,1.0869377430945635,5.515439245489239,0.24828535378817468
1761481481409116000,5.778115966796875,1.719294858406484,6.072166534799337,-0.9924503641486168
1761481481429058000,5.79805810546875,1.8889801016777752,7.393158532962203,-0.20403253496056423
1761481481449001000,5.8180009765625,1.5944389369428156,8.980147738420962,0.926896818742156
1761481481468943000,5.837943115234375,2.3704583809971806,9.813942495095729,0.8903138586889952
1761481481488886000,5.857885986328125,2.9554315215826032,9.086237876877188,-0.6494319495577365
1761481481508828200,5.877828125,2.7024147918909787,7.880038963586092,-2.7528581541880963
1761481481528771000,5.89777099609375,2.3132237511247395,7.540862538310885,-2.6943895986065267
1761481481548713200,5.917713134765625,1.8388439056336878,8.30863963919878,-1.0720293661676346
1761481481568656100,5.93765625,0.7419333423182368,7.653423918607831,0.15808252029363065
1761481481588598000,5.957597900390625,-0.9108543232187628,5.786929789504408,-0.22063275569826363
1761481481608541000,5.977541015625,-1.3516028250038623,2.9403865126639603,-0.416939573511295
1761481481628483000,5.997483154296875,-0.6452759258568287,-0.9235860867589711,0.21321904537566005
1761481481648426000,6.017426025390625,-0.733268097564578,-4.0593016947776075,-0.8361943651624023
1761481481668368100,6.0373681640625,-2.851363244342804,-5.599463098087907,-3.113295978678763
1761481481688311000,6.05731103515625,-5.230624524998665,-6.152667473968863,-0.24477730913460252
1761481481708253200,6.077253173828125,-3.924017318280041,-6.3713908889144655,4.7699008644163605
1761481481728196000,6.097196044921875,-2.241694346179068,-7.231386839294434,4.477037862026691
1761481481748138200,6.11713818359375,-0.49067222412228584,-7.856880206316709,2.0519487500451503
1761481481768081200,6.1370810546875,0.7976692580655217,-9.928866512870789,1.287086075299233
1761481481788023000,6.15702294921875,0.11374532938450574,-10.832353814452887,0.5599665269596502
1761481481807966000,6.176966064453125,-2.207458314578235,-8.861874994739889,-0.9307095088981091
1761481481827908000,6.196908203125,-3.3712022339776158,-5.611211403548717,-0.5933848489694297
1761481481847851000,6.21685107421875,-0.9836661691904067,-3.336502968779206,1.5021582742609083
1761481481867793200,6.236793212890625,1.4836732078909873,-1.4437673139601945,0.9161487763650715
1761481481887736000,6.256736083984375,2.5261305887460708,0.009803016611933708,-1.0104822799235582
1761481481907678200,6.27667822265625,2.7348662781625985,1.9802093556106088,-1.6946826874583958
1761481481927621000,6.29662109375,1.4326777646690607,3.4971278304994105,-1.3680692450277507
1761481481947563300,6.316563232421875,-1.0739341768756507,4.419330353945494,-1.3754188771381974
1761481481967506200,6.336506103515625,-1.446455530130863,4.921660867157578,-1.3166742810942231
1761481481987448300,6.3564482421875,1.3917220694243908,5.692006357228756,-0.9945379110123962
1761481482007391200,6.37639111328125,3.9217672012656926,6.397830567550659,-0.24884258581213653
1761481482027333000,6.3963330078125,3.673285776916146,7.433758838897943,-0.258778946480155
1761481482047276000,6.416276123046875,1.748297373268008,7.2852744968265295,-1.1266025217458606
1761481482067218200,6.43621826171875,0.40317426567226644,6.057360595333575,-1.9557848161891103
1761481482087161000,6.4561611328125,2.0055945567578077,6.4551160508275025,-3.1623034629538656
1761481482107103200,6.476103271484375,2.45846019731611,5.786677860569953,-1.6652360820911825
1761481482127046100,6.496046142578125,0.3890723828226328,4.6771688047051425,-0.9279247004851698
1761481482146988000,6.515988037109375,-1.641528020375967,1.1653244665890932,-0.5892381045535207
1761481482166931200,6.53593115234375,-1.326407301209867,-0.5173585709959269,0.038089492158591746
1761481482186873000,6.555873046875,-0.5214490551799535,-1.1030898364722728,1.1195429586231709
1761481482206816300,6.575816162109375,-1.5259323869496584,-2.770194196653366,1.4239558212921022
1761481482226758000,6.5957578125,-4.16354211371392,-5.002282217836379,-0.36237931394726036
1761481482246700000,6.615699951171875,-5.105217107132077,-6.284550225329399,1.9467865400888025
1761481482266643000,6.635642822265625,-2.9460756642162798,-6.391952615427971,4.5156794351100915
1761481482286585000,6.655585205078125,-0.2366726208731532,-7.370271578371525,3.97540029951483
1761481482306528000,6.675528076171875,-0.1672767208248377,-9.09811360810995,0.6406118795685469
1761481482326470100,6.69547021484375,-1.409903622803092,-9.369626363956927,1.7846034891411662
1761481482346413000,6.7154130859375,-1.0922992701277137,-8.488898006671667,3.834416542331874
1761481482366355200,6.735355224609375,0.6024366088226437,-6.548344369623065,1.8125106099814174
1761481482386298000,6.755298095703125,0.13299743460416794,-3.6068928580760953,0.4031336414009332
1761481482406240000,6.775239990234375,0.36837680079638957,-0.3319406288027763,0.44453437699936327
1761481482426183000,6.795182861328125,2.076629748445749,1.8035989892512558,0.39610600778646765
1761481482446125000,6.815125,4.520507585918903,2.4650275930076835,-1.1619349702812731
1761481482466068000,6.83506787109375,4.205089052850008,3.7168127839535474,-1.5992565663576126
1761481482486010000,6.855010009765625,0.988067034497857,5.564557204401493,-0.3193284730542451
1761481482505953000,6.874953125,-1.3958499630093573,6.50370560195148,0.23265216971803454
1761481482525895200,6.894895263671875,-0.7550742711812257,6.614946547299623,-0.10796559520559385
1761481482545838000,6.914838134765625,1.5386796403199434,6.681708299452066,-0.23318907134002073
1761481482565780200,6.9347802734375,3.466003208917379,6.184848326605558,-0.6866804608475416
1761481482585723100,6.95472314453125,4.163599104598164,5.899668864455819,-0.5191651454938575
1761481482605665300,6.974665283203125,3.919705008038878,5.587614839383959,-0.546146931650117
1761481482625608200,6.994608154296875,2.693434197577834,5.386394932425022,-0.5548575499154627
1761481482645550000,7.014550048828125,0.8818266739159822,4.889320440044999,-0.869078689893335
1761481482665493000,7.034492919921875,-0.5786845618352293,3.8431010763078928,-1.1958195580959319
1761481482685435100,7.05443505859375,-0.7429249837040901,2.649491010954976,-0.23147315253391862
1761481482705378000,7.0743779296875,-0.7492012874945998,0.4116588931620121,0.5059608325384557
1761481482725320200,7.0943203125,-1.0026783281743525,-1.6881453946441412,-1.6221172174632548
1761481482745263000,7.11426318359375,-0.2555634915649891,-2.363479189634323,-2.69407541809082
1761481482765205200,7.134205322265625,-1.4962208470359444,-2.168931015524268,-1.165187834597379
1761481482785148200,7.154148193359375,-3.5672426924720404,-2.2801012337237596,1.6562166170723736
1761481482805090300,7.17409033203125,-3.2899498919188974,-4.682525947824121,2.0469158704444763
1761481482825033200,7.194033203125,-1.0764099193394183,-7.667817185619473,1.4805772877022623
1761481482844975000,7.21397509765625,0.44074002621769903,-8.941792581063508,0.41251930938363074
1761481482864918000,7.23391796875,-0.2571460845813155,-7.4921204269737,1.0215103082858026
1761481482884860200,7.253860107421875,-2.222478773577511,-6.048706748756766,4.222573271614313
1761481482904803000,7.273802978515625,-2.7568045537263153,-6.380920349282026,4.150717995715141
1761481482924745000,7.293744873046875,-2.8273797266870737,-7.282973234146833,1.5952162049256264
1761481482944688000,7.313688232421875,-3.028154520227015,-7.511957346343993,-2.3651100057065486
1761481482964630000,7.333630126953125,-1.5707716456294059,-5.396328297418355,-3.7162887600794434
1761481482984572200,7.353572265625,-0.17915566692799328,-0.8974187953233719,-1.213140549122542
1761481483004515000,7.37351513671875,0.8309387827217578,3.08186652893126,0.8386706190828234
1761481483024457200,7.393457275390625,1.2719503193572164,5.184941216710209,0.43077940789125857
1761481483044400000,7.413400146484375,1.0679144781947136,5.74125349547863,-0.9219337895072997
1761481483064342000,7.433342041015625,0.3455649572685361,5.811290323778986,-2.319498593610525
1761481483084285000,7.453284912109375,0.6497972026735543,6.328185368916392,-1.9089041148096322
1761481483104227000,7.47322705078125,1.3496031756192446,7.4248495562553405,-0.7020802014879882
1761481483124170000,7.493169921875,1.9306717099815607,8.275811136308311,-0.433621791710332
1761481483144112000,7.513112060546875,2.4325752299532293,7.780792991936206,-0.8329941078163683
1761481483164054300,7.53305419921875,3.298940423104167,6.81454499053657,-1.550864291371405
1761481483183996200,7.55299609375,3.557118188820779,6.479200690770149,-1.3344739955484866
1761481483203939000,7.57293896484375,2.5709829991683364,6.763745946669578,-0.9777556299723684
1761481483223881200,7.592881103515625,0.51008857999295,6.102854518529773,-0.7498896350849419
1761481483243824000,7.61282421875,-0.5796639282613992,4.047859678786993,0.3345497883878648
1761481483263766300,7.632766357421875,-0.3424982631742954,1.941398271179199,2.27422503516674
1761481483283709200,7.652709228515625,1.4086106603831052,1.2420879727959633,1.8090622230932116
1761481483303651300,7.6726513671875,2.1029051764309403,-2.0306249531179663,0.10316562931165099
1761481483323594200,7.69259423828125,0.8781658133208751,-5.548198190274834,-1.9158574410788713
1761481483343536000,7.7125361328125,-1.9785852615401147,-6.081864337471127,0.16018296317160127
1761481483363479000,7.73247900390625,-3.3903096700295805,-5.902258296427131,4.100387446142733
1761481483383421200,7.752421142578125,-2.4516630845218894,-7.645558592060208,4.524100641974806
1761481483403364000,7.772364013671875,0.035415596774220466,-10.299666156899928,-0.48690351923853153
1761481483423306200,7.79230615234375,1.6164683979213237,-10.988719265162944,-2.03316864625141
1761481483443249200,7.812249267578125,0.7662459457978605,-9.719436411449312,1.1693476576905697
1761481483463191300,7.83219140625,-0.5483604429811239,-7.20112497202158,1.732905742868781
1761481483483134200,7.85213427734375,-2.2597376601308583,-5.607167096593976,-0.6683613986942917
1761481483503076400,7.872076416015625,-1.5795003110080956,-3.1309312963515517,-1.1475632575143129
1761481483523019300,7.892019287109375,0.2928828761339187,-0.08596504979431628,1.7837898346707224
1761481483542961200,7.911961181640625,1.6856775432258844,2.4750766933351755,2.5544120958566663
1761481483562904000,7.931904052734375,1.1677838424399494,3.312185689124465,0.683642189130187
1761481483582846200,7.95184619140625,-0.18939298330396412,3.0500059942901134,-2.6066113619104025
1761481483602789000,7.9717890625,-1.0325123254239559,3.5701392906963823,-4.30039505470246
1761481483622731300,7.991731201171875,-0.6168161395698786,4.711259290355444,-3.1017163077831267
1761481483642674200,8.011674072265626,0.29954876376390455,6.327422567850351,-1.5304507411569357
1761481483662616300,8.0316162109375,1.2152499424919485,7.407326759046316,-0.9967610669545829
1761481483682559200,8.051559326171875,2.854234415864944,7.564586528247594,-0.8097080709055066
1761481483702501400,8.07150146484375,4.214004180711507,7.457975580787658,-0.10534713806919753
1761481483722444300,8.0914443359375,4.224250264915824,7.39010499061048,0.20599552386291323
1761481483742386400,8.111386474609375,2.7653455875784156,7.006102750658989,-0.4236760056268424
1761481483762328000,8.131328125,1.3587839686796068,6.395309524640441,-1.5512259642906485
1761481483782271200,8.151271240234376,0.6722030957490205,5.6985296215176575,-1.2916519219100475
1761481483802213000,8.171213134765624,0.6255792917400598,5.2669063832134,-0.692929949696362
1761481483822156300,8.19115625,-0.8434884676933289,3.7741298314124343,0.09615553135387599
1761481483842098200,8.21109814453125,-2.6274080662235617,0.987127123299241,-0.10355170601978897
1761481483862041300,8.231041259765625,-2.9010788768872615,-3.3145132552891967,-0.579415725653991
1761481483881983200,8.250983154296875,-3.0153283564016222,-5.341029019522667,1.2826155057564377
1761481483901926400,8.270926513671874,-2.912370963013172,-5.253177717590332,2.7956825659140945
1761481483921868300,8.290868408203124,-2.5070968024522067,-8.617235048249363,4.684193588775396
1761481483941811200,8.310811279296875,-1.386740189358592,-11.703944925558567,3.176474027125537
1761481483961753000,8.330753173828125,-0.16154402239173649,-13.313927468591928,2.617054722252488
1761481483981696300,8.3506962890625,-0.6634773529797792,-12.33800270730853,4.495415814760327
1761481484001638100,8.37063818359375,-2.532350486174226,-10.203657267475128,4.79466939496994
1761481484021581000,8.3905810546875,-3.7198844464838503,-7.947659962916374,2.980193622395396
1761481484041523200,8.410523193359374,-3.448414652995765,-6.282206877073645,0.16866905196607113
1761481484061466000,8.430466064453125,-1.7008154911249875,-4.68743184004426,-1.4525878954060374
1761481484081408300,8.450408203125,0.010099076949059963,-1.9585972432613372,-2.097402487361431
1761481484101351200,8.47035107421875,0.7468851195067167,0.6322001711845397,-2.1253158918119968
1761481484121293300,8.490293212890625,1.45928315526098,3.026168022584915,-2.117390359509736
1761481484141236200,8.510236328125,1.4559402745738625,4.4808805089294905,-2.0178357603020967
1761481484161179000,8.530178955078124,1.5475623272165655,5.944376605710387,-2.141290582796186
1761481484181121800,8.550121826171875,2.2437810893252492,6.994578901603817,-1.2468562101110816
1761481484201064000,8.57006396484375,3.620459903396666,7.754932574492693,-1.102112223611772
1761481484221006800,8.5900068359375,4.849174892139435,7.603401704332232,-1.1455342359047382
1761481484240949000,8.609948974609376,4.933751117923856,7.630020246666669,-1.2477142882451415
1761481484260892000,8.629891845703124,3.9458945113062858,8.347973286199569,-0.8912344076000154
1761481484280834000,8.649833984375,3.092199999158084,8.49409557531476,-1.1411321284882723
1761481484300777000,8.66977685546875,2.458883098903298,7.869961806207895,-1.6966493113562464
1761481484320719000,8.689718994140625,1.4401570145085454,6.458809644648432,-2.163796867506206
1761481484340662000,8.709662109375,0.19891805975735186,5.724478886288404,-2.4459948296271263
1761481484360604000,8.72960400390625,0.023536358410120008,5.281621137264371,-2.142675169022381
1761481484380546800,8.749546875,-0.18554449118226765,2.436658407613635,-1.6234630791142581
1761481484400489000,8.769489013671874,-1.792194382661581,-2.854680990588665,-2.2181204322375354
1761481484420432000,8.789431884765625,-3.336818026077747,-5.4609249804913995,-2.4985008235424755
1761481484440374000,8.8093740234375,-4.092013877812028,-3.626813364076614,0.09293839593827724
1761481484460316000,8.82931591796875,-2.9967969666719436,-3.9386411791771647,6.886455211493373
1761481484480258800,8.8492587890625,-0.8210708841800689,-6.539428072717786,5.606845025032758
1761481484500201000,8.869200927734376,-0.3883955064743757,-9.172765236729383,1.5433879641413688
1761481484520144000,8.889143798828124,-0.8858031763315201,-12.105353642863035,1.7737001100718974
1761481484540085800,8.909085693359375,-1.7692355318784714,-12.646769381272792,3.1925255827382206
1761481484560028700,8.929028564453125,-2.923272003994882,-9.900354704135657,1.4123893021389842
1761481484579970800,8.948970703125,-3.943873819133639,-6.8962482912331815,-0.14688830505162476
1761481484599913700,8.968913818359376,-2.203838662776351,-4.511541604653001,0.7931727503638714
1761481484619856000,8.98885595703125,0.14483575643599034,-1.8120254568129777,0.4769246346030384
1761481484639798800,9.008798828125,1.0079448704004288,0.20985914048850535,-1.0512748204957694
1761481484659741000,9.028740966796875,0.39194530791044235,1.3749416150152682,-2.637776607763767
1761481484679683800,9.048683837890625,-0.09409165762662887,1.8053887952774763,-2.933730561906099
1761481484699626000,9.0686259765625,-0.07181202127933502,3.739930040168762,-1.7950522563107312
1761481484719569000,9.08856884765625,-0.11379764409363269,6.20989158244729,0.0013381167359650134
1761481484739510800,9.1085107421875,1.4782023752644657,7.534601139828562,1.3568714130565522
1761481484759453700,9.12845361328125,4.413996591702103,6.209572433495521,-0.24592984017059205
1761481484779395800,9.148395751953124,5.548060827630758,5.192105116990208,-1.8153627845421432
1761481484799338800,9.1683388671875,4.89155740531683,5.893880344182253,-1.5062741851471364
1761481484819281000,9.188281005859375,4.218725364014506,6.984843689531087,-1.2554529196731745
1761481484839223800,9.208223876953125,2.925754176199436,6.95346889258027,-0.9132187142625451
1761481484859166000,9.228166015625,2.313448499791324,5.961931551623344,-1.7691637818165122
1761481484879108900,9.24810888671875,1.3182368542358278,5.26886628510952,-1.1733723100967706
1761481484899051000,9.268051025390625,0.6692793172568082,2.771607570582628,1.845908875583857
