time,seconds_elapsed,z,y,x
1761432078363737300,0.0677373046875,-0.0992009634643793,0.19172697920948265,1.2562309183083473
1761432078383679500,0.087679443359375,0.2012783591479063,0.5012058930963278,0.6243534032069147
1761432078403621400,0.107621337890625,0.7019739646345377,0.5957721824973822,0.18243888984974474
1761432078423563500,0.1275634765625,0.8485258773386478,0.5486112028717994,0.1436199052396696
1761432078443505400,0.14750537109375,0.2639817758202553,0.058901978562772274,0.4541708048727363
1761432078463448300,0.1674482421875,-0.19161504326760767,-0.22160276977419852,0.4200316577751189
1761432078483390200,0.18739013671875,0.09096154290735721,-0.3793056065678596,0.25021073236018415
1761432078503332400,0.207332275390625,0.5989490589678287,-0.3345318143397569,0.2894075281735509
1761432078523274500,0.2272744140625,1.0276157855540513,-0.4215224077895283,0.28433822555262595
1761432078543216400,0.24721630859375,1.2249831087380647,-0.7016033777564764,0.33540804918501527
1761432078563159600,0.26715966796875,1.355749423289299,-0.8694196122854948,0.4579364044839516
1761432078583101200,0.28710107421875,1.5824322728067635,-0.9053302991002797,0.4206934096194804
1761432078603043300,0.307043212890625,1.3278770815014838,-1.0723121286317705,0.39187034297809004
1761432078622985500,0.3269853515625,0.638427082875371,-1.193329787106812,0.32438586604166775
1761432078642927600,0.346927734375,0.2467576692968607,-1.2344982483193279,-0.04580610355106182
1761432078662869500,0.366869384765625,0.20557517955899238,-0.9892854703769087,-0.6446711648967117
1761432078682812400,0.3868125,0.394782577162981,-0.7182944003164767,-0.5517458111030981
1761432078702754600,0.406754638671875,0.21789456290602682,-0.7207368250325322,-0.23159321698332205
1761432078722696400,0.426696533203125,-0.10145078821778297,-0.7292392804399133,0.12118517879536375
1761432078742638600,0.446638671875,-0.8162246131926775,-0.5213384344123304,-0.03154396123895421
1761432078762580700,0.466580810546875,-1.431520411327481,-0.2021789612494409,-0.7141877687152475
1761432078782523600,0.486523681640625,-2.1383511683434246,-0.04993614342734217,-0.8174958021722734
1761432078802465500,0.506465576171875,-2.4308628730773925,-0.20199366781041025,-0.058925788696622475
1761432078822407400,0.526407470703125,-1.9041595506310462,0.22358912128582595,-0.012117029175348579
1761432078842349600,0.546349609375,-1.4044026872992514,0.21159692406654357,0.07236981042572296
1761432078862291500,0.56629150390625,-1.2793144183844327,-0.02084492736905813,0.2963802532630041
1761432078882234600,0.586234619140625,-1.5397686046004295,-0.08398615093678236,-0.35802031502015885
1761432078902176500,0.606176513671875,-0.9997983888238667,0.8633768249899149,-1.0215480830129235
1761432078922118700,0.62611865234375,-1.0037187771379947,1.458967805701494,-1.1971659312035887
1761432078942060500,0.646060546875,-1.5935586469769476,1.5501961828514932,-0.39108211520984765
1761432078962002400,0.66600244140625,-1.3665595711171625,1.0968740306973457,0.3135118957299739
1761432078981944600,0.685944580078125,-0.09454466209113598,0.7136600185140967,-0.017926427840162067
1761432079001887500,0.705887451171875,0.8428361412644386,0.3087503073513508,-0.6526117486376315
1761432079021829600,0.72582958984375,1.1001607972830534,-0.09682400519996881,-0.7291811205118894
1761432079041771800,0.745771728515625,1.1017039350718258,-0.04016016095280647,-0.4146418910281732
1761432079061713400,0.76571337890625,1.087550322034955,0.20894319468736647,0.07454035026468336
1761432079081655600,0.785655517578125,1.1686217545688151,0.3513505549326539,0.1336093924900517
1761432079101598500,0.805598388671875,1.4554752874106167,0.17524930713921785,-0.2230081065274775
1761432079121540600,0.82554052734375,1.451028829395771,-0.33192133958041664,-0.6395666082993149
1761432079141482500,0.845482421875,0.9513584753036498,-0.8235434117734431,-0.5595083713959902
1761432079161424600,0.865424560546875,0.2492231826275587,-0.794518685080111,-0.47083910414427516
1761432079181366500,0.885366455078125,0.15980010133385658,-0.6345625164017081,-0.07501629721336066
1761432079201309400,0.905309326171875,0.5913152030885219,-0.47572541488111014,0.08051949773952365
1761432079221251600,0.92525146484375,1.0496990225464105,-0.5012281049281359,-0.15927052450180051
1761432079241193500,0.945193359375,0.8187690369784831,-0.6553665272384882,-0.3305997355878353
1761432079261135600,0.965135498046875,0.12805471750497818,-0.7055269809409975,-0.2872219277627766
1761432079281077500,0.985077392578125,-0.14244330834150312,-0.4633502096936106,-0.48424905920699235
1761432079301019400,1.005019287109375,-0.20617314545214174,-0.18911679671108722,-0.7072986667886376
1761432079320962300,1.02496240234375,-0.6461416027754545,0.12350099972337483,-0.6073772070299833
1761432079340904400,1.044904541015625,-1.3277397188574076,-0.02638970201462507,0.24727467890828847
1761432079360846600,1.0648466796875,-1.0942460202813147,-0.6981625896528363,1.3986119750685988
1761432079380788500,1.08478857421875,-0.00884089358150959,-0.9423308269783854,0.7495909443993121
1761432079400730600,1.104730712890625,0.36373394342660903,-1.2432318821340798,0.08153539678379892
1761432079420673500,1.124673583984375,-0.6025602352023124,-1.3384022749081252,-0.7138051991384476
1761432079440615700,1.14461572265625,-1.362829152417183,-0.620754355801642,-1.3936809484072028
1761432079460557600,1.1645576171875,-1.445739490815997,0.47375586837381123,-0.8468543639298528
1761432079480499500,1.18449951171875,-1.278168755480647,0.5161845587804913,0.37331703367754815
1761432079500441600,1.204441650390625,-0.3622054186850786,0.3229085965633392,0.16319142427258193
1761432079520383500,1.224383544921875,0.17364684037864206,-0.1458981249704957,-0.47323389032632107
1761432079540326700,1.24432666015625,0.3170277218312025,-0.33168928439021106,-0.4369396475540474
1761432079560268500,1.2642685546875,0.010241408029198646,-0.04685264432877302,-0.1609087566955015
1761432079580210400,1.28421044921875,-0.4969651867866516,0.10729016189575195,0.1708744895884767
1761432079600152600,1.304152587890625,-0.4108195197284221,0.453660882589221,0.25223653909936544
1761432079620094500,1.324094482421875,0.3797854990392923,0.7237824763387442,-0.057213440953940146
1761432079640037600,1.34403759765625,0.9739683665186166,0.7782815437674522,-0.37436961147040126
1761432079659980000,1.36397998046875,1.257661389502883,0.5477376349076628,-0.18702957864087075
1761432079679922200,1.383922119140625,1.2787445095419883,0.16481500688642262,0.33686902511566874
1761432079699863800,1.40386376953125,1.3872668435811997,-0.126068804384768,0.32230810991954056
1761432079719806000,1.423805908203125,1.1757844858050346,-0.35872166822254653,-0.10663860265184193
1761432079739748000,1.443748046875,1.0392302355021237,-0.22017098340541122,0.0886918444097042
1761432079759691000,1.46369091796875,0.7815040129452944,-0.26011691708564755,0.6291179872602224
1761432079779633200,1.483633056640625,1.042652026644349,-0.03822480897605419,0.7145013647090643
1761432079799575000,1.503574951171875,1.0724842703282833,0.046424189783632754,0.5780446199638769
1761432079819517000,1.523516845703125,0.6504366696208715,0.0014446458503603935,0.22835801618807017
1761432079839458800,1.543458740234375,-0.0014104513198137283,-0.16838029815256594,0.25137305413782596
1761432079859402000,1.563402099609375,-0.4088444202631712,-0.20574936708211897,0.1522906390191987
1761432079879343900,1.58334375,-0.6840203747928142,-0.06299976927042007,-0.10501363179851322
1761432079899286000,1.6032861328125,-1.1539672062724828,0.06322393341511487,0.27600509883016344
1761432079919228200,1.623228271484375,-1.348486738809943,0.39520430970638987,0.5291936048921198
1761432079939170000,1.643170166015625,-1.3476502879858017,0.5724395299658179,0.335772900442034
1761432079959112000,1.66311181640625,-1.5522510695546865,0.4076028957694769,0.15904175724722444
1761432079979054800,1.683054931640625,-1.694460569140315,-0.23380524874329567,0.9965525387704371
1761432079998997000,1.7029970703125,-0.8526941029340028,-0.6488116987675429,1.8396077296130358
1761432080018939100,1.722939208984375,0.6980489001452922,-0.3788254218354821,1.4131648165561257
1761432080038881000,1.742881103515625,2.291057512024045,-0.584229921002686,0.7398745100922882
1761432080058823200,1.7628232421875,2.5630712031304834,-0.07158814939558505,-1.2891606896162033
1761432080078766000,1.78276611328125,1.4086276115179062,0.7973957018211484,-2.522804659193754
1761432080098708000,1.8027080078125,-0.5410650252759456,1.0504603623077273,-1.309670685942471
1761432080118649900,1.82264990234375,-1.416445591792464,1.060231522476673,-0.23288391438098624
1761432080138592000,1.842592041015625,-0.8292150276690721,0.7448682267263531,0.0312171039047651
1761432080158534100,1.8625341796875,0.749407915982604,0.09042465955168008,-0.4677261232228949
1761432080178476000,1.88247607421875,1.436759481024742,-0.45618367906510826,-0.4439863146625459
1761432080198419200,1.902419189453125,1.2873784823745489,-0.4152943270549178,-0.35900267712101336
1761432080218360800,1.92236083984375,0.7385942610234022,0.2410939444467425,0.04774479826237075
1761432080238303000,1.942302978515625,0.1495557706952095,0.7230521162375807,0.2541774805666879
1761432080258244900,1.962244873046875,-0.12471359038352965,0.5202203901678324,0.2326506901470013
1761432080278187000,1.98218701171875,0.4667962584942579,0.2397179799184203,-0.12738534860974177
1761432080298129200,2.002129150390625,1.2084580903947353,-0.3137921009108424,-0.6152027130238712
1761432080318072000,2.022072021484375,1.712308945041895,-0.6197893101617693,-0.9044855188392102
1761432080338014000,2.042013916015625,1.6697592586040495,-0.6953475322321057,-1.3910042765438555
1761432080357955800,2.061955810546875,0.8837439057141542,-0.6540256340235472,-1.3510602425597606
1761432080377898000,2.08189794921875,-0.33679391405284403,-0.3365396470308304,-0.6772234081290662
1761432080397840100,2.101840087890625,-0.6751438253760338,-0.13525836527347565,-0.06955548365735449
1761432080417782000,2.121781982421875,-0.5343582211136818,-0.21638445060402153,-0.08857031865557655
1761432080437725200,2.14172509765625,-0.45355683769285676,-0.5321899371638894,-0.2754709188882261
1761432080457667000,2.1616669921875,-0.9144500096231698,-0.44083413424193857,-0.5875614400455728
1761432080477609000,2.18160888671875,-1.9400784207522868,-0.07314736153632402,-0.8512521604973823
1761432080497550800,2.20155078125,-2.8535084396779538,0.004350011903047561,-0.6151998634796589
1761432080517493000,2.221492919921875,-3.3986458289593457,-0.33058190767019985,0.2977284164689481
1761432080537436000,2.241435791015625,-2.5024849247425793,-0.9926002940133214,1.1446632982891052
1761432080557378000,2.2613779296875,-1.1223410649091006,-0.7397352477520703,-0.09282351912064478
1761432080577320200,2.2813203125,-0.8753823200821876,-0.8396364684402943,-0.11839837022158317
1761432080597261800,2.30126171875,-1.278364570313692,-0.010005845707654953,0.19243994978442788
1761432080617204000,2.321203857421875,-1.5880904446989297,0.8074041778773069,0.33906437973547726
1761432080637146000,2.34114599609375,-1.3956798671394586,0.8211404422849417,0.1149531160053797
1761432080657088500,2.361088623046875,-0.5384633183449506,0.5499041652917862,-0.09922399728009476
1761432080677030700,2.38103076171875,0.7005144134759903,0.4576306630030274,-0.5984683627787977
1761432080696972500,2.40097265625,0.9215648100644349,0.4458765123233199,-0.16269131099702788
1761432080716914400,2.42091455078125,0.5441290890216827,0.37912878869622946,0.3629716538172215
1761432080736856600,2.440856689453125,0.5648229174822569,0.3420096028745174,1.0340567783869803
1761432080756798500,2.460798583984375,1.172325869783759,0.4137155334308743,1.230188714557141
1761432080776741600,2.48074169921875,1.926843676126003,0.6412877330034971,0.7821300358891486
1761432080796683500,2.50068359375,2.1605524787575003,0.8993462562546134,0.46206009681783616
1761432080816625700,2.520625732421875,1.4468787239789962,0.8086229060173035,0.3246324977464974
1761432080836567300,2.5405673828125,0.9593751930207014,0.3553317335233092,0.17154327396182342
1761432080856509400,2.560509521484375,0.9170581462949514,-0.030721301478147504,-0.046058352145925165
1761432080876452400,2.580452392578125,1.232748482042551,-0.2116200126811862,-0.2519347979401238
1761432080896394500,2.60039453125,1.335385265174508,-0.14255173715204,-0.1729260152908042
1761432080916336600,2.620336669921875,1.0476368293195961,0.05301701217740774,0.08994270298732444
1761432080936278500,2.640278564453125,0.48037119486033913,0.13145868072956798,0.2733747137939557
1761432080956220400,2.660220458984375,0.5721808790296316,-0.06481675556451082,0.29108565398622305
1761432080976162600,2.68016259765625,0.8578075004249811,-0.5106731018826365,0.2911089983291924
1761432080996105500,2.70010546875,0.9929711731523275,-0.6723913117974997,0.004929885017080232
1761432081016047400,2.72004736328125,0.7338678170233964,-0.6999515188962221,-0.003638799460348673
1761432081035989500,2.739989501953125,0.3318412600815296,-0.5592936326667666,0.023006183356442486
1761432081055931600,2.759931640625,0.17352467530369758,-0.4171905160650611,0.13160248224758542
1761432081075873500,2.77987353515625,-0.043324177941679955,-0.38228842177093025,0.035597629677085206
1761432081095815400,2.7998154296875,-0.28623335511684417,-0.06993190662115811,-0.44488143687136467
1761432081115758300,2.81975830078125,-0.2515817284524441,-0.16208938131481407,0.5093364464513958
1761432081135700500,2.839700439453125,-1.6146353372752666,-0.41039574135839935,0.7241957333147525
1761432081155642600,2.859642578125,-2.3025258314996955,0.09689677817523479,0.2314023523200303
1761432081175584500,2.87958447265625,-2.7427625843703747,0.15386048215180634,0.24384795586261898
1761432081195526700,2.899526611328125,-2.357057632154226,0.4887672672837972,-0.3170862836180255
1761432081215468300,2.91946826171875,-1.3173504267901182,0.932428441645205,-1.0723192890249191
1761432081235411500,2.939411376953125,-0.6998147407740354,0.4637228423982858,-0.7983794521614909
1761432081255353300,2.959353271484375,-0.5296925673902034,0.09282412190884351,-0.08323560656411573
1761432081275295500,2.97929541015625,-0.17930676583647726,0.04791764321178198,-0.03367777666356414
1761432081295237600,2.999237548828125,0.6451409013003111,-0.2232666113331914,0.18151572885653003
1761432081315179500,3.019179443359375,1.2833429432481527,-0.05155512293130159,-0.26946875586397945
1761432081335121400,3.039121337890625,1.5492647472202776,0.3306915055245161,-0.7587002796586603
1761432081355064300,3.059064208984375,0.9990490317612886,0.6075538057059049,-0.34025326072648165
1761432081375006500,3.07900634765625,0.3031517566919327,0.8629410639211534,0.00042986105093732475
1761432081394948600,3.098948486328125,0.05240881715118885,0.8214166288778185,-0.007630403546895832
1761432081414890500,3.118890380859375,0.22236031014323232,0.3261524007901549,-0.23701628321167081
1761432081434832600,3.13883251953125,1.010743561208248,-0.13405425018072128,-0.7044310754630714
1761432081454775600,3.158775634765625,1.692659072676301,-0.42660716370791196,-0.9276911839902401
1761432081474717700,3.1787177734375,1.4466332247853277,-0.6188768714919686,-0.6445630283471196
1761432081494659300,3.198659423828125,0.8633405846327543,-0.4939493460968136,-0.3133255428450182
1761432081514601500,3.2186015625,0.5223135630548,-0.3780038763195276,-0.030784548573242497
1761432081534543600,3.238543701171875,0.711492319086194,-0.302101078595221,-0.3512155303761363
1761432081554485500,3.258485595703125,0.42363223955035206,-0.5800222401797771,-0.7279454412370919
1761432081574428700,3.2784287109375,-0.2681611073315143,-0.5263426724404097,-1.2471285973116755
1761432081594370600,3.29837060546875,-0.7505074016571045,-0.5597098122522235,-1.000987890869379
1761432081614312400,3.3183125,-1.2744342451274395,-0.3947831616848707,-0.9280142784647643
1761432081634254300,3.33825439453125,-1.526248028770089,-0.11605945154577493,-0.6922744083970784
1761432081654199600,3.358199462890625,-2.0357161387771368,0.18214052795767782,-0.12789879629090428
1761432081674141700,3.3781416015625,-2.3312825549066067,-0.13351064482331276,0.9667986940849572
1761432081694084600,3.398084716796875,-2.101155117893219,-0.3385889807760715,1.0485706030383706
1761432081714026800,3.41802685546875,-0.9085024993956089,-0.6238447230324149,0.622404388030991
1761432081733968600,3.43796875,-0.6122668057024478,-1.0890133803248405,0.2562272161707282
1761432081753910500,3.45791064453125,-0.8254600590497255,-1.0484715265780686,0.4155551334155723
1761432081773852700,3.477852783203125,-0.8336492107242345,-0.11589841576516628,0.5009597728481516
1761432081793794600,3.497794677734375,-0.4278051413208246,0.688166680817306,0.6483878473322838
1761432081813737700,3.51773779296875,-0.028888825353980064,0.8231088197484612,0.8814389897726476
1761432081833679600,3.5376796875,0.7925865479737519,0.552528668576479,0.9029510027483105
1761432081853621800,3.557621826171875,1.4078653949737547,0.5152610141947865,0.9273655322324484
1761432081873563600,3.577563720703125,1.5014619625598191,0.6501140135377645,1.2300006446391343
1761432081893505500,3.597505615234375,1.443947346702218,0.916853855894506,1.5230366655081509
1761432081913447700,3.61744775390625,1.363368081599474,1.0954732239887117,1.2770681007623672
1761432081933390600,3.637390625,1.2280132702142,0.9494739767313003,0.9782376413356513
1761432081953332700,3.657332763671875,1.1962468435972928,0.7541781991243361,0.7463264627106487
1761432081973274600,3.677274658203125,1.2990291726797818,0.6972501509830356,0.5494422834010795
1761432081993216500,3.697216552734375,1.4234429033339022,0.5731093920513988,0.3242546774100512
1761432082013158700,3.71715869140625,1.2282821502834558,0.40522184585183857,0.34623796115927397
1761432082033100500,3.7371005859375,1.0115595537662505,0.26337007366269827,0.5347398043097927
1761432082053043700,3.757043701171875,0.7127770981997251,0.008357786239683628,0.6446807364426553
1761432082072985600,3.776985595703125,0.6366770243376493,-0.1775011777192354,0.4856670727787539
1761432082092927700,3.796927734375,0.6521539949327707,-0.14741203666478395,0.2567443171137012
1761432082112869600,3.81686962890625,0.6182528943747282,-0.28329671714305876,0.49262291979864237
1761432082132811500,3.8368115234375,0.6734095489293337,-0.3622682547882199,0.3611692075051367
1761432082152753700,3.856753662109375,0.48013563253879543,-0.37796559013575315,0.2537659040911123
1761432082172696600,3.876696533203125,-0.13661387153565882,-0.6074278412386774,0.5008381922950967
1761432082192638700,3.896638671875,-0.489640542986989,-0.8042477596729993,0.5290049869848414
1761432082212580600,3.91658056640625,-0.34193770668208595,-0.6763520321220159,-0.01862659373246133
1761432082232522800,3.936522705078125,-0.018811667975783347,-0.29614158566892146,-0.3438641812326386
1761432082252464600,3.956464599609375,-0.8220376833856106,-0.22631430846601724,0.108716322241351
1761432082272406500,3.976406494140625,-2.0264228252530097,-0.6402002300277352,0.9846453894861041
1761432082292347600,3.99634765625,-2.281299503597617,-1.0127239213705062,1.3659782640978693
1761432082312290600,4.01629052734375,-1.4027052357316017,-1.3072902205467223,0.790890776906535
1761432082332232700,4.036232666015625,0.19476678529679775,-1.3099457034915685,-0.6927200332727282
1761432082352174600,4.056174560546875,0.2370265488773584,-0.48038989956080913,-1.9271540572494268
1761432082372116500,4.076116455078125,-1.6137304973900317,1.011963166131079,-1.8944189317308364
1761432082392058600,4.09605859375,-2.662894682407379,1.900034579655528,-1.135181403390318
1761432082412000800,4.116000732421875,-2.713293328779936,1.587636563451588,-0.05092091668099165
1761432082431943700,4.135943603515625,-1.2614034986406564,0.8244517587900161,-0.10237067954167724
1761432082451885800,4.1558857421875,0.5029559516340494,0.2582031924188137,-0.5444247475000098
1761432082471827700,4.17582763671875,1.2200105810225008,-0.04260170888602734,-0.19591328845079986
1761432082491769600,4.19576953125,1.0853373221606015,0.050638300347328184,0.28230719464905557
1761432082511711500,4.21571142578125,0.5434849458992481,0.3834957517340779,0.69394541034922
1761432082531653600,4.235653564453125,0.5725573111265897,0.5878098253160715,0.826348824582994
1761432082551596500,4.255596435546875,1.0488619872003793,0.68190206746459,0.4426103501342237
1761432082571538700,4.27553857421875,1.3388158241450785,0.6082815354585647,0.20048428616076708
1761432082591480800,4.295480712890625,1.3074427807599305,0.3723328449457884,-0.07399908299483358
1761432082611422500,4.31542236328125,0.9806278244078159,-0.000618131898343563,-0.14334807516150175
1761432082631364600,4.335364501953125,0.7781061872005463,-0.5250488332375883,-0.08907233162727206
1761432082651303400,4.355303466796875,0.6860615252315998,-0.8119472281344234,-0.261925482611265
1761432082671247400,4.375247314453125,0.2267278577029705,-0.6328368616528809,-0.17632239799713714
1761432082691189500,4.395189453125,-0.31768297086954117,-0.28801804657652974,0.2127666436993517
1761432082711131400,4.41513134765625,-0.28647826978862284,-0.06550137682780623,0.4081573147818446
1761432082731073300,4.4350732421875,0.28839783967435356,-0.037299803085625166,-0.0601659340839833
1761432082751015400,4.455015380859375,0.937092634063959,-0.39979134523570536,-0.6384727486480027
1761432082770958300,4.474958251953125,0.8212526704877614,-0.7147010519996285,-0.8592027541756629
1761432082790900500,4.494900390625,-0.1360784494847059,-0.64869567117244,-1.0040565577249974
1761432082810842600,4.514842529296875,-0.9534504791468381,-0.09470160621851682,-0.9705720751438289
1761432082830784300,4.5347841796875,-1.2462252187311649,0.4678893144279718,-0.350510158585757
1761432082850726400,4.554726318359375,-1.3426976340144872,-0.33683395380228753,1.095042139095068
1761432082870668300,4.574668212890625,-0.8304828556478023,-1.3179559914678334,1.4803599916897714
1761432082890611500,4.594611572265625,0.03215162654221058,-1.1300421408057213,0.11552278738580643
1761432082910553300,4.61455322265625,-0.6670172175437211,-1.2885814284235237,-0.28160405134838074
1761432082930495500,4.63449560546875,-1.6912100429117678,-0.9400234268188477,-0.2266212189907208
1761432082950437400,4.654437255859375,-1.714091736805439,-0.009781681562960148,0.31454956821464003
1761432082970379300,4.674379150390625,-0.7482581614255904,0.4357029088333249,0.9818739520113915
1761432082990321400,4.6943212890625,0.4469266058981418,0.5514768214359879,1.1528014504287392
1761432083010264300,4.714264404296875,0.8716840500861406,0.7513198870837688,0.8462699151054024
1761432083030206500,4.73420654296875,0.47318157561719415,0.7672124527424573,0.9263184343323111
1761432083050148600,4.754148681640625,-0.18931611867547035,0.6200000303030013,1.004737452661246
1761432083070090500,4.774090576171875,-0.5924819087803364,0.5740466729015111,1.1329973373495041
1761432083090032400,4.794032470703125,-0.21070845079421996,0.562901594030857,1.2614856239661574
1761432083109974300,4.813974365234375,0.5024485866338014,0.6907698490530252,0.6790393715098499
1761432083129917400,4.83391748046875,0.9776327342450618,1.1387404110461472,0.4501133461754769
1761432083149859300,4.853859375,1.2014011576205492,1.0531421487376094,0.6154020349882543
1761432083169801500,4.873801513671875,0.9907792160660028,0.5812342463180422,0.6869472220249474
1761432083189743600,4.89374365234375,0.9341612567871809,0.19181115036159752,0.36594234019108113
1761432083209685200,4.913685302734375,0.9963386037588119,0.04615940136760473,0.047116227168403566
1761432083229627400,4.93362744140625,1.1120049643337726,0.004257657444477081,-0.006305895211175084
1761432083249570300,4.9535703125,0.9028916737765074,-0.05619330412596464,0.2581416349573061
1761432083269512400,4.973512451171875,0.9169844965368509,0.03496697622388601,0.6649697834946214
1761432083289454300,4.993454345703125,1.2493611786693335,0.13455576996207236,0.7077551783844828
1761432083309396500,5.013396484375,1.9221137249946594,0.15835194835215807,0.6253733939044177
1761432083329338400,5.03333837890625,1.7418986121416091,0.06906739874631167,0.21998937976080923
1761432083349280300,5.0532802734375,0.7234463762521743,-0.25191695175617934,0.01458535551764071
1761432083369223400,5.073223388671875,-0.39485038170218467,-0.5302060698702931,0.3395178591240197
1761432083389165300,5.093165283203125,-0.3097019089877605,-0.3861427591115236,0.674196023131907
1761432083409107500,5.113107421875,0.11251754115521907,-0.24547698183655736,0.9837032132651656
1761432083429049600,5.133049560546875,-0.12105506787598132,-0.17228753472417593,0.7071766478441656
1761432083448991500,5.152991455078125,-0.9777993229836225,-0.5385676555022597,0.45528965283483264
1761432083468933400,5.172933349609375,-1.878747461476922,-0.7375374454468488,-0.09043832275085151
1761432083488876300,5.192876220703125,-2.016261496722698,-0.9172431474730371,-0.042451998217031356
1761432083508818400,5.212818359375,-1.3878010965883731,-0.7736983076304197,-0.4503613295871764
1761432083528760300,5.23276025390625,-0.8132289385080337,-0.5792281671926379,-1.0519031815271824
1761432083548702500,5.252702392578125,-0.6212865629822015,0.19284750767201184,-1.791967734298855
1761432083568644600,5.27264453125,-1.2121966924011707,0.7408645440429449,-1.5860428645193576
1761432083588586200,5.292586181640625,-1.9924749629437921,0.780413587360084,-0.5162107161350548
1761432083608529400,5.312529296875,-1.4541045835793018,0.6968100060001016,0.028478052596002817
1761432083628471300,5.33247119140625,0.13724983135163782,0.30833208193928,-0.1638502535074949
1761432083648413200,5.3524130859375,1.204995382720232,0.14041530964523552,-0.6599735826425254
1761432083668355300,5.372355224609375,1.6113807193934917,0.23455519032776354,-1.0169484071977435
1761432083688297200,5.392297119140625,0.49199441263675686,0.4126533110268414,-0.4820594402082264
1761432083708239000,5.412239013671875,-0.19006898286938667,0.44991380501538514,0.28520196624249217
1761432083728182000,5.43218212890625,0.3047574383229017,0.35875863923206924,0.3676459292385727
1761432083748124200,5.452124267578125,1.0732686987042426,0.15706526954248545,0.022444471520185468
1761432083768066000,5.472066162109375,1.7303852844804524,-0.10962810332402587,-0.3830073836952448
1761432083788008200,5.49200830078125,1.8973259052187204,-0.3329150267928839,-0.6175833976153284
1761432083807950300,5.511950439453125,1.8310183265745639,-0.4949984167583287,-0.515428223987855
1761432083827892000,5.53189208984375,1.1744734032064676,-0.7040878880485892,-0.16796729690488427
1761432083847835100,5.551835205078125,0.7926485072940588,-0.9066909199289978,0.09498374762814492
1761432083867777000,5.571777099609375,0.7851865008503198,-0.9366162487238645,-0.01381535752583295
1761432083887719200,5.59171923828125,0.5146083955049514,-0.6255715468250215,-0.41088484004959464
1761432083907661300,5.611661376953125,-0.3142302000671625,-0.4770709842711687,-0.23691232964685185
1761432083927603200,5.631603271484375,-1.0150018031746149,-0.40087081103548405,0.16881050626337527
1761432083947545000,5.651545166015625,-0.9063204791814088,-0.29744316978678104,0.08947775235669687
1761432083967488300,5.67148828125,-0.42639001382589337,-0.0916331585586071,-0.5892470915775746
1761432083987430100,5.69143017578125,-0.7822808425366878,0.2708436244137585,-1.0822133449211715
1761432084007372000,5.7113720703125,-1.6940256848543882,0.2834254580892622,-0.2612970667809248
1761432084027314200,5.731314208984375,-1.7123884400188922,-0.7570049469828605,1.7081807591959832
1761432084047256300,5.75125634765625,-0.1831780543118715,-0.8330930381461977,0.9636627341467887
1761432084067198200,5.7711982421875,0.43951837546825406,-1.586407898439467,0.7636748532008379
1761432084087140000,5.79114013671875,-0.6441495521754026,-1.5681015496373176,0.010711030268366449
1761432084107083000,5.8110830078125,-1.9183558337658642,-0.8339902792468666,-0.7034535356678068
1761432084127025200,5.831025146484375,-1.794741729056835,-0.013087152849137782,-0.9307137466818094
1761432084146967300,5.85096728515625,-0.7125561489254236,0.4027241838172078,0.35780959487892683
1761432084166909200,5.8709091796875,0.6250643279552459,0.6196113232463598,1.2022642772559076
1761432084186851300,5.890851318359375,1.4153408454209566,0.5991311375364661,0.6676734894953668
1761432084206793000,5.91079296875,0.5780483097583056,0.16389409264922142,0.5065754573054612
1761432084226736000,5.930736083984375,-0.4204366583794355,0.21499796468168494,0.6653055913202465
1761432084246678000,5.950677978515625,-0.8905635226011276,0.4516095030173659,0.9282910495795309
1761432084266620200,5.9706201171875,-0.9866121595144272,0.641545214895904,1.0326011727511881
1761432084286562300,5.990562255859375,-0.28981062908172606,0.8914534571781754,0.898982245247811
1761432084306504200,6.010504150390625,0.6970774247646332,1.1025438930273055,0.6843515795085579
1761432084326446000,6.030446044921875,0.9720394442826509,0.9417039272516965,0.7093999499168246
1761432084346389000,6.050388916015625,1.3763339461565016,0.5838385835975408,1.130390077460557
1761432084366331100,6.0703310546875,1.6090619210571049,0.13669687364399433,1.2092305360719562
1761432084386273000,6.09027294921875,2.113732275393605,-0.06322217984944582,0.0929874592443928
1761432084406215200,6.110215087890625,2.0692051514029504,-0.266857185126096,-0.5288700720261782
1761432084426157300,6.1301572265625,1.1818570837169884,-0.4199970979183912,0.19639920880421996
1761432084446099200,6.15009912109375,0.3808662800133228,-0.1938517162784934,1.1498743840008974
1761432084466042400,6.17004248046875,0.7632517324179411,-0.4333610218822956,1.5531934649713337
1761432084485984000,6.18998388671875,1.164604920142889,-0.6795347538113594,0.833171802470833
1761432084505926100,6.209926025390625,0.6700105541408061,-0.9498011628590524,0.2670105125242844
1761432084525868300,6.229868408203125,-0.8809849623948335,-0.6846291543409228,0.3705394221903756
1761432084545810200,6.24981005859375,-2.0526900699317454,-0.277453251811862,0.6199319335028529
1761432084565752300,6.26975244140625,-2.4411124644130466,-0.1278586104109883,1.0137925004500896
1761432084585695200,6.2896953125,-2.0078776992589233,0.13281477151364088,0.4622361475044861
1761432084605637000,6.30963720703125,-1.2848627001613377,-0.5975128886848687,0.5522296856299043
1761432084625579000,6.3295791015625,-0.9250508986145257,-0.9193293060973287,0.8997373744640499
1761432084645521200,6.349521240234375,-0.9092851742058992,0.1980547209262848,0.07168079611510038
1761432084665463800,6.3694638671875,-1.4722452204257248,0.5227165908977389,0.5856794987564906
1761432084685405700,6.38940576171875,-2.2945494457930327,0.3829954009965062,0.7586512528851628
1761432084705348600,6.4093486328125,-2.396735562548041,0.7437821850553155,-0.027096973501145837
1761432084725290800,6.429290771484375,-1.819829993084073,0.4746265137284994,-0.4649031747566536
1761432084745233000,6.44923291015625,-0.5214660063147545,0.17377309710681438,-0.625558248952031
1761432084765174800,6.4691748046875,0.668675506144762,0.5072153626441955,-0.8891809091363102
1761432084785117000,6.489116943359375,1.27163555431962,0.5114762349590659,-0.5410526407184079
1761432084805058800,6.509058837890625,0.997418215689063,0.43060383212864395,-0.1430741170583293
1761432084825001700,6.529001708984375,0.4613847548395395,0.4199155571147799,-0.27415461212527004
1761432084844944000,6.54894384765625,0.18203472949564456,0.7362789698183536,-0.6579902268055826
1761432084864885800,6.5688857421875,0.45455870821177957,1.0528419967472553,-0.9008612639274448
1761432084884828000,6.588827880859375,0.9816109902262687,1.260395490641892,-0.9426408427756279
1761432084904769800,6.608769775390625,1.125995495763421,1.016170554693043,-0.8542303725905716
1761432084924711700,6.628711669921875,0.7454010184288025,0.7691282232359051,-1.1896000990591942
1761432084944653800,6.64865380859375,0.3650590545505285,0.5971028465792536,-1.18037422474809
1761432084964596700,6.6685966796875,0.4866963062286377,0.3485419272527098,-1.0852642569243907
1761432084984539000,6.688538818359375,0.9175573279887437,-0.13251929569840432,-0.9924215764455496
1761432085004480800,6.708480712890625,1.3973843329697846,-0.4112847991526127,-0.9896056422419846
1761432085024423000,6.7284228515625,1.6043202794879674,-0.5984796878904104,-1.031531936084479
1761432085044364800,6.74836474609375,1.284554657125473,-0.4187333615928888,-0.762756130920723
1761432085064306700,6.768306640625,0.8064251037120819,-0.19287176533043385,-0.495678507976979
1761432085084249900,6.788249755859375,-0.008579612296819687,-0.14939064326137302,-0.11088242336721159
1761432085104191700,6.808191650390625,-0.4512888927608728,-0.19248598088324068,-0.12319282882334663
1761432085124134000,6.8281337890625,-0.5261217231661081,-0.019629121838510035,-0.3600347966477275
1761432085144075800,6.84807568359375,-0.6698077250450849,0.08809826243072748,-0.3833391729328781
1761432085164017700,6.868017578125,-1.1350398029625415,0.2038748053818941,-0.4586768475877121
1761432085183959800,6.887959716796875,-1.8533985006868838,-0.13465426190048455,0.6018081381933763
1761432085203901700,6.907901611328125,-1.2582009032070636,-0.4661597141563892,1.282207363346964
1761432085223844900,6.927844970703125,0.13766425737142562,-0.29378946958482266,0.7635806721113622
1761432085243786800,6.947786865234375,0.2901742016971111,-0.7478130480065941,0.965293477153778
1761432085263729000,6.96772900390625,-0.35589784297347066,-0.7132949845939874,0.8708267026044428
1761432085283670800,6.9876708984375,-1.0387596953809262,-0.059869362290203565,0.38736163338199253
1761432085303612700,7.00761279296875,-0.9583025953531265,0.09970803620368242,0.49203627901710567
1761432085323554800,7.027554931640625,0.17471125473976135,-0.07437222715616226,0.868460704125464
1761432085343497700,7.047497802734375,1.2182757200539112,-0.08892506864368915,0.6394337026346475
1761432085363439900,7.06743994140625,1.2762860104739666,-0.0949593803718686,0.494648507342115
1761432085383381800,7.0873818359375,0.25079730007648465,-0.10448299552053213,0.733822297381237
1761432085403324000,7.107323974609375,-0.34687340951859946,0.10223287850618362,0.9525331451062112
1761432085423265800,7.127265869140625,-0.18621464552879333,0.35219752715080976,1.0751546585813163
1761432085443207700,7.147207763671875,0.5940110180437564,0.5832897175431251,0.9640002955380826
1761432085463150800,7.16715087890625,0.9473562539249658,0.8487114630386233,0.7088108249172568
1761432085483092700,7.1870927734375,0.6339461380690335,0.908423881201446,0.6466052747644484
1761432085503035000,7.207034912109375,0.5359750086605548,0.6061152973353863,0.6082664840199052
1761432085522976800,7.226976806640625,0.7363520350545645,-0.1281257369145751,0.33458836683258414
1761432085542918700,7.246918701171875,0.988428853547573,-0.7007657578885554,-0.05808730117902159
1761432085562860800,7.26686083984375,0.8729454483240843,-0.7309633277535438,-0.13661474831849335
1761432085582802700,7.286802734375,0.288732770717144,-0.28814795656651254,0.3837964151810854
1761432085602745900,7.306745849609375,0.13388064717948436,0.15256430486142633,0.9312493148632347
1761432085622687700,7.326687744140625,0.49637832680940625,0.0983583751603961,1.2350986984305083
1761432085642630000,7.3466298828125,1.2095119833618402,-0.4438426684081554,1.141972378704697
1761432085662571800,7.36657177734375,1.588576766911149,-0.8858271417289971,0.41277262655757363
1761432085682513700,7.386513671875,0.9287427388697862,-1.058323935289681,-0.21324175039781257
1761432085702455600,7.40645556640625,-0.3755553141236305,-0.6351663275137543,-0.07818694487242028
1761432085722398500,7.4263984375,-1.1715741746336221,-0.44529754339158534,0.5837165646530688
1761432085742340600,7.446340576171875,-1.4950772299587727,-0.40973961553722615,0.9643468439534306
1761432085762282500,7.466282470703125,-1.2066232761830091,0.04164250846505165,0.5019350110884756
1761432085782224600,7.486224609375,-1.0292793348520994,0.4281269206210971,0.2105910532259382
1761432085802166800,7.506166748046875,-1.4436030633091925,0.36262218279242514,0.5017536266395822
1761432085822108700,7.526108642578125,-1.425008252954483,-0.3983706647828221,1.1149559961590916
1761432085842051800,7.5460517578125,-0.2955851208299398,-0.9397381801366805,0.9554822772353887
1761432085861993500,7.565993408203125,0.8047516175419092,-0.648138037289679,-0.5678537730781361
1761432085881935600,7.585935546875,0.6937082405924797,0.33531770402044053,-2.0281275833442804
1761432085901877800,7.605877685546875,-0.9410083462029695,1.684689701232314,-2.008691645990312
1761432085921819600,7.625819580078125,-1.7505127112299204,1.893588764517009,-1.05274452772215
1761432085941761800,7.64576171875,-0.9471452415227889,1.5244731280520558,-0.8209117480956017
1761432085961703400,7.665703369140625,0.8431605509132146,0.7723091913595795,-0.752945734719932
1761432085981646600,7.685646484375,1.768587297102809,0.09214987590909003,-0.9127490509241819
1761432086001588500,7.70558837890625,1.4544839382857084,-0.1508674378156662,-0.8473109485909343
1761432086021530600,7.725530517578125,0.671228697758913,0.19607991372197867,-0.6870880187351256
1761432086041472800,7.74547265625,-0.13828443509638308,0.7162810146674513,-0.6822964005444199
1761432086061414700,7.76541455078125,-0.608807020637393,0.7392486332789063,-0.7047497129581868
1761432086081356500,7.7853564453125,-0.41318098816275595,0.3393395068824291,-0.659742623430863
1761432086101299500,7.805299560546875,0.44111704283654685,0.011726678150892258,-0.7329813895776868
1761432086121241600,7.82524169921875,1.2707839059263466,-0.27623978436887264,-0.9805402922548353
1761432086141183500,7.84518359375,1.472157542142272,-0.39994127510040994,-0.93158453816697
1761432086161125600,7.865125732421875,1.0405208598345517,-0.4968400991022586,-0.420970911386609
1761432086181067800,7.88506787109375,0.39911505340933795,-0.6971101579904556,0.021256083719525486
1761432086201009400,7.905009521484375,0.36800679844021794,-0.9059156977728009,0.058165280052367596
1761432086220951600,7.92495166015625,0.6416185723930596,-0.6421034333005547,-0.3826727083807811
1761432086240894500,7.94489453125,0.46625674479007717,-0.4842229018524289,-0.41772615731172263
1761432086260836600,7.964836669921875,-0.35439036101996896,-0.5504314040362834,0.23130424397410823
1761432086280777700,7.98477783203125,-0.6572182925850153,-0.47206513880789275,0.4494396116323769
1761432086300719600,8.0047197265625,-0.8743389485090971,-0.17551584912091492,0.3382176997782662
1761432086320661500,8.02466162109375,-1.179998304107785,0.18799714503139256,-0.05996892280769534
1761432086340603600,8.044603759765625,-2.1583330491423607,0.5647448838099837,-0.22256025316212324
1761432086360545500,8.064545654296875,-2.847356931310892,0.29923136837780473,0.7572178590811789
1761432086380488700,8.08448876953125,-2.163582640233636,-1.1116700332909821,2.5363416016370057
1761432086400430600,8.1044306640625,0.16189327422082422,-0.15743015733212232,0.4688689365824684
1761432086420372700,8.124372802734374,0.955862216463685,-0.8393854162886738,-0.14496918269046583
1761432086440314600,8.144314697265624,-0.20865736348330974,-0.24494535917788743,-0.5502248486135155
1761432086460256500,8.164256591796875,-1.6149954027593134,0.44071109238415956,0.4801210194915533
1761432086480198700,8.18419873046875,-1.2201917828083038,0.7843412821978331,0.9708731769822537
1761432086500140500,8.204140625,0.36975977958738804,0.8178840708374977,0.6581694558300077
1761432086520083700,8.224083740234375,1.309310912719369,0.7111725856125354,0.3080228333270177
1761432086540025600,8.244025634765626,1.31620944006145,0.38370004213452336,0.6264868350390345
1761432086559967500,8.263967529296876,0.537623360389471,0.12499299184679984,1.081255240478739
1761432086579909600,8.28390966796875,0.22343933755159376,0.220516435842216,1.0296402040537447
1761432086599851500,8.3038515625,0.41682372857928274,0.6804533299610018,0.4999848999340087
1761432086619793700,8.323793701171875,0.5753010568767786,1.053258468593657,0.3457603337101638
1761432086639736600,8.343736572265625,0.49970951705873007,1.2230565245896576,0.2329052494299598
1761432086659678500,8.363678466796875,0.4687310259491205,0.6815975315600633,0.032037005452904846
1761432086679620400,8.383620361328125,0.5651806448787451,0.07778086655586958,-0.18445355414040385
1761432086699562200,8.403562255859375,1.0956734227359295,-0.3110936556071043,-0.47932128394860773
1761432086719504400,8.42350439453125,1.5243693754166363,-0.1027653779476881,-0.6339272872380912
1761432086739447300,8.443447265625,1.3181032909840344,-0.10751987899839878,-0.4630639400981366
1761432086759389400,8.463389404296874,1.1040759249001741,-0.07423077285885811,0.08810770611250772
1761432086779331300,8.483331298828125,0.49223114400207996,-0.011391747108101844,0.9317186128754168
1761432086799273500,8.5032734375,0.5029840086847543,0.14078881913274527,1.0924405782945454
1761432086819215400,8.52321533203125,0.7650584895789623,0.2553632928177714,0.651977323191613
1761432086839157200,8.5431572265625,0.7153501635581254,0.0074032619938254355,-0.21583963967021552
1761432086859099400,8.563099365234375,0.4666203174054622,-0.4183241962701082,-0.5526733377441764
1761432086879042300,8.583042236328126,0.06544599337875842,-0.5221788307592272,-0.3069536331929266
1761432086898984400,8.602984375,-0.8498129945397377,-0.2074839357897639,-0.36572033147085453
1761432086918926600,8.622926513671874,-1.726255052807927,0.02577361594289541,-0.5250798859629779
1761432086938868200,8.6428681640625,-2.2196043871849773,0.3783838155478239,-0.2802076650865376
1761432086958810400,8.662810302734375,-2.507875970131159,0.1539762174859643,0.864699744156748
1761432086978752300,8.682752197265625,-2.06008544088006,-0.21110417211353777,1.6055959985122084
1761432086998695400,8.7026953125,-0.005433130964636802,-0.3987582027956843,0.9030603814069181
1761432087018637300,8.72263720703125,1.3114958555430174,-0.5414379502415657,-0.08722007309040054
1761432087038579500,8.742579345703126,0.4714367777764797,0.29035335765630005,-1.139747834523022
1761432087058521300,8.762521240234374,-1.0767921966552734,1.2765750565484166,-1.550499695842713
1761432087078463200,8.782463134765624,-2.238277523472905,1.0470622443020343,-0.7107713113352656
1761432087098405400,8.8024052734375,-1.9080805234670637,0.4116153462812304,-0.1395381614845246
1761432087118347500,8.822347412109375,-0.3430161495685577,0.09788198982030152,-0.5937430147573352
1761432087138290400,8.84229052734375,0.966339771336317,-0.26980010671019555,-0.40111601796820756
1761432087158232600,8.862232666015625,1.215310440507531,-0.10455752206146716,-0.38808991112392394
1761432087178174500,8.882174560546876,0.4014356053113937,0.40805765379965303,-0.15087478087190537
1761432087198116400,8.902116455078126,-0.7362023974508046,0.6767959764972329,0.3319194764168933
1761432087218058200,8.922058349609374,-0.794192229604721,0.7699111903071403,0.3107617567716166
1761432087238000400,8.94200048828125,0.11753390801250933,0.7267766897186636,-0.11092546792449429
1761432087257942500,8.961942626953125,0.7950082221627235,0.6583323913067579,-0.18142282640868798
1761432087277885400,8.981885498046875,1.2438029600203035,0.41197979567945003,-0.04073096484439447
1761432087297827600,9.00182763671875,1.3624807773709295,0.08451689681261777,0.009896065190248191
1761432087317769200,9.021769287109375,0.982557915687561,-0.15444120464920996,-0.23919633066449314
1761432087337711400,9.04171142578125,0.19033552485108374,-0.4299941757977009,-0.3817946834372356
1761432087357653500,9.061653564453126,-0.014973112726211548,-0.4707058331534266,-0.27417017502058294
1761432087377595400,9.081595458984374,0.4675543833851814,-0.3186979931309819,0.055850883896462616
1761432087397538300,9.101538330078125,1.0291115770697592,-0.1535690979897976,0.024086685769259927
1761432087417480400,9.12148046875,0.9786053786695003,-0.1511442089304328,-0.37807778180595486
1761432087437422300,9.14142236328125,0.21119535752832888,-0.703888566084206,-0.3052058031449094
1761432087457364200,9.1613642578125,-0.1771393586695194,-0.9925231371238827,-0.5013293002802879
1761432087477306400,9.181306396484375,0.0022550854504108427,-0.8867316893532872,-0.7679056957036257
1761432087497248500,9.20124853515625,-0.45245033775568005,-0.1839481619015336,-0.8709099969737232
1761432087517190400,9.2211904296875,-1.6236708766460417,0.526397909758985,-0.3759961532263085
1761432087537133600,9.241133544921874,-2.4562357992649075,0.055557344309985636,1.349893829128891
1761432087557075200,9.2610751953125,-1.7034768192887306,-0.23118629841655491,1.318474023992568
1761432087577017300,9.281017333984375,-0.34348435160219665,-0.5346899372860789,-0.10705090064662508
1761432087596959200,9.300959228515625,-0.1269195759952068,-1.04266897777915,-0.1692184294771403
1761432087616901400,9.3209013671875,-0.4245148676037788,-0.6978463633105159,-0.2697331424212083
1761432087636843500,9.340843505859375,-0.7608809116333722,-0.1475184196487069,-0.15563171134172007
1761432087656788500,9.36078857421875,-0.3861123639732599,0.5130398310139775,-0.32206414509583264
1761432087676731600,9.380731689453125,0.22340894241333006,0.8856655214264988,0.024234560674196107
1761432087696673500,9.400673583984375,0.6464338637202978,0.8815782521128654,0.21213179812822489
1761432087716615700,9.42061572265625,0.7155974163174629,0.7223495209261774,-0.051620260589383536
1761432087736557800,9.440557861328125,0.4283674513787031,0.43796822341680525,0.012548095802683382
1761432087756499700,9.460499755859376,-0.026429157242178914,0.4332295044571161,0.39453375350106507
1761432087776441600,9.480441650390626,-0.6715846715897321,0.5076102071806788,0.8610491857599466
1761432087796383700,9.5003837890625,-0.6048743573635816,0.9643164488151669,0.4947879523454234
1761432087816326700,9.52032666015625,-0.07231704819202422,1.1017881062239407,0.11393071415508166
1761432087836268500,9.5402685546875,0.633811113512516,1.1022568927794694,-0.024008853026386348
1761432087856210700,9.560210693359375,0.7503887437134981,0.7614636799573898,0.2770970039864071
1761432087876152800,9.58015283203125,0.6216489665538072,0.4239937663391232,0.4467797447733581
1761432087896094500,9.600094482421875,0.4531973567306995,0.24193653275072574,0.3175340639181435
1761432087916036600,9.62003662109375,0.27476269755363464,0.32665245926678177,0.11650031804791651
1761432087935978800,9.639978759765626,0.5533943454951048,0.4605234618350863,0.10859043997251427
1761432087955921700,9.659921630859374,1.047508234503865,0.5527200994953513,0.2989445325267501
1761432087975863800,9.67986376953125,1.089320254316926,0.3772694245651364,0.40544593693129716
1761432087995805700,9.6998056640625,0.8493693424254656,0.1400479376375675,0.19601629216754807
1761432088015747800,9.719747802734375,0.3676566698282957,0.0976630863726139,-0.08874874396240338
1761432088035689500,9.739689453125,0.2608218504846096,0.11195318527072667,-0.34978896817173805
1761432088055631600,9.759631591796875,0.42503275399804114,0.003641571372747421,-0.23575229115784166
1761432088075573800,9.77957373046875,0.5768284125745297,0.19812340224832295,-0.015225827111955732
1761432088095516700,9.7995166015625,0.3890612769067287,0.4221303105548024,-0.023004680952522904
1761432088115458800,9.819458740234374,0.27438743450045583,0.45749856105595826,-0.17736770579898728
1761432088135400700,9.839400634765624,0.20178046345114706,0.36241087812930345,-0.200795489268098
1761432088155342600,9.859342529296875,0.13119184648692608,0.12000146716982125,-0.0005392031769268214
1761432088175284700,9.87928466796875,-0.12326222253143787,-0.1976166217699647,0.2070352969731204
1761432088195226600,9.8992265625,-0.7785445786178111,-0.5344207649558782,0.24758052998706698
1761432088215168800,9.919168701171875,-1.3085463580876588,-0.14425883333086967,-0.3945886620260775
