time,seconds_elapsed,z,y,x
1761505801356278500,0.089278564453125,-0.111605687007308,0.009676175361871719,0.4301004126511514
1761505801376434400,0.109434326171875,-0.057610477447509766,-0.01620470034778118,0.23578714327551423
1761505801396591400,0.12959130859375,-0.030609657797217367,-0.07000906351059674,0.08710238326117396
1761505801416747300,0.149747314453125,0.03861000890135765,-0.09963614001125097,-0.02648907073587179
1761505801436904400,0.169904541015625,-0.02415069091618061,-0.12039631170630455,-0.012611863487586378
1761505801457061400,0.190061279296875,-0.05210661933422088,-0.20988120618984102,0.05153313029520213
1761505801477217500,0.210217529296875,-0.07987199361622332,-0.21181290490478277,0.19886048435121773
1761505801497374200,0.230374267578125,-0.07273030516803264,-0.15073548199906944,0.26403708620406685
1761505801517530400,0.2505302734375,-0.0036801498174667355,-0.05922331947162747,0.15183065682463348
1761505801537687300,0.270687255859375,-0.04304010030329227,-0.01714768028631806,0.1542092225242406
1761505801557844500,0.290844482421875,0.03235445563793182,0.05664426276385784,-0.0032100480876863
1761505801578000400,0.31100048828125,0.11898586038649081,0.08604059924855828,-0.043178851186856625
1761505801598157300,0.3311572265625,0.16827917586565017,0.09859510652571916,0.0981545231513679
1761505801618313200,0.351313232421875,0.2669575767606497,0.0017791385017335414,0.16945983701758086
1761505801638470400,0.371470458984375,0.34776948157548904,-0.12195230897665023,0.22523761914521453
1761505801658627300,0.39162744140625,0.3134066087245941,-0.2887690110743046,0.2997234627436846
1761505801678783500,0.411783447265625,0.18696575615704059,-0.34172201810479164,0.4173196223374456
1761505801698940200,0.431940185546875,0.08497954588830471,-0.4354594554662704,0.45648185829408466
1761505801719096300,0.452096435546875,-0.1487888779759407,-0.5437731151908636,0.4594244876172393
1761505801739253200,0.472253173828125,-0.3879816649764776,-0.45342780448570846,0.42312516681104895
1761505801759410400,0.492410400390625,-0.6206582019507885,-0.3734793846324086,0.3160805041089654
1761505801779566300,0.51256640625,-0.641256168821454,-0.3216479289777577,0.05395232026614248
1761505801799723300,0.53272314453125,-0.6001578502357006,-0.21461378766968844,-0.2555163644876331
1761505801819880200,0.552880126953125,-0.4428010504007339,-0.25351488847211,-0.36635486651472743
1761505801840036400,0.573036376953125,-0.33368601116538044,-0.4009839160211384,-0.2195807624273002
1761505801860193300,0.593193359375,-0.6862117473572492,-0.4152431813895702,0.12780191178768874
1761505801880349400,0.613349365234375,-0.11877309441864489,-0.7074012503802776,-0.20575148597396908
1761505801900502500,0.63350244140625,-0.27490239828526974,-0.5595137051582336,-0.3614487550988793
1761505801920658400,0.653658447265625,-0.10373802237212658,-0.5276946715712547,-0.4019632093820721
1761505801940815400,0.6738154296875,-0.00573474425971508,-0.48306262590140103,-0.465312961133942
1761505801960972300,0.69397216796875,0.048208442851901054,-0.4948138539716601,-0.5032803612828255
1761505801981128400,0.71412841796875,0.10895780284702777,-0.5291466239452361,-0.3899204510193318
1761505802001285400,0.734285400390625,0.1705003590464592,-0.5325206304229796,-0.3716013158008456
1761505802021441500,0.754441650390625,0.20381518414914607,-0.5183752006925643,-0.36231582025699316
1761505802041598200,0.77459814453125,0.28316110806465145,-0.5126861952707171,-0.3454354856699705
1761505802061755400,0.79475537109375,0.42571606008708474,-0.5428308659046888,-0.4021405387103557
1761505802081911300,0.814911376953125,0.40084056202769275,-0.5547086429640651,-0.3237998463146388
1761505802102068500,0.835068359375,0.4881219551175833,-0.5981267827995121,-0.28958310393616554
1761505802122224400,0.855224365234375,0.4574678736567497,-0.692045860338211,-0.19031470125876365
1761505802142381300,0.87538134765625,0.35967268533706664,-0.8197216615281998,-0.1454383985042572
1761505802162538200,0.895538330078125,0.2814998968541622,-0.9564410392649472,-0.13364537711888552
1761505802182694400,0.9156943359375,0.11325754586756229,-0.9276302475832402,-0.04937273739092052
1761505802202851300,0.935851318359375,0.10709785419404506,-0.9570406125932931,-0.0859489754423499
1761505802223007500,0.956007568359375,-0.0732160428583622,-0.911090031670779,-0.19552695601433515
1761505802243164400,0.976164306640625,-0.25956045224666596,-0.9105272832214831,-0.20489779175408182
1761505802263321300,0.9963212890625,-0.424971379199624,-0.910371946529299,-0.1499135711569339
1761505802283477200,1.016477294921875,-0.5524626176029444,-0.9298336028464138,-0.06368534038178622
1761505802303634400,1.036634521484375,-0.7172709024876356,-0.8265121984511613,-0.03707154728770256
1761505802323790300,1.056790283203125,-0.8898901533842086,-0.641365328284353,-0.10645049620121717
1761505802343947500,1.076947509765625,-0.8797346700727939,-0.4595294823616743,-0.18479155392311514
1761505802364104400,1.0971044921875,-0.7745189763635396,-0.2706215060956776,-0.2843419153470546
1761505802384260400,1.11726025390625,-0.6316431218236684,0.022867373107373714,-0.29613420608006413
1761505802404417500,1.13741748046875,-0.4020253878980875,0.10309271020591258,-0.20791158661730585
1761505802424573400,1.157573486328125,-0.2079752264380455,0.1284073303349316,-0.1199828355345875
1761505802444730600,1.177730712890625,0.06906301483213902,0.13983078775554894,-0.154283529869467
1761505802464887300,1.19788720703125,0.044480362239480015,0.11318228867426514,0.25465404856987295
1761505802485043200,1.218043212890625,0.0832324099600315,0.0733639268964529,0.39281478422135113
1761505802505200400,1.238200439453125,0.03256312995254993,0.015339900211989879,0.42078225694671273
1761505802525356300,1.258356201171875,-0.0865051480203867,-0.011615765122324227,0.39116950123235583
1761505802545513500,1.278513427734375,-0.2570645437777042,0.17703560603410004,0.3107712917849421
1761505802565670400,1.29867041015625,-0.2859972082734108,0.4052588168613612,0.13027706972956657
1761505802585826300,1.318826416015625,-0.2537631641447544,0.5327260898672044,0.07002776821106672
1761505802605983500,1.3389833984375,-0.1399579212665558,0.618830255871266,-0.022342180189490315
1761505802626139400,1.359139404296875,-0.06373100615441799,0.597880699083954,-0.08006737005785107
1761505802646296600,1.379296630859375,0.03423310899138451,0.5996028467014431,-0.03109203448668122
1761505802666453200,1.399453369140625,0.0560053803384304,0.4912121762178838,0.06642696724012494
1761505802686609400,1.419609375,0.10408639741837977,0.38407325936108827,0.1655108801960945
1761505802706766300,1.439766357421875,0.1446539701282978,0.3403204807437956,0.19560265159904955
1761505802726922500,1.459922607421875,0.2475882749021053,0.3169792065143585,0.1300714641548693
1761505802747079400,1.480079345703125,0.34431612625122066,0.2964329698309302,0.051642216692864895
1761505802767235600,1.500235595703125,0.4050491196334362,0.3146015175975859,-0.021694676066190004
1761505802787392300,1.520392333984375,0.3503858015537262,0.3245373668089509,0.018773966313898563
1761505802807549400,1.540549560546875,0.22846447223722932,0.24511750087440012,0.19966800134181975
1761505802827705300,1.560705322265625,0.5433621963024139,0.10742182545140384,0.3044862201660871
1761505802847862500,1.580862548828125,0.5559048670113086,-0.14421367901489138,0.4039334134764969
1761505802868018400,1.601018310546875,0.6188485221803188,-0.18225231776908038,0.70298124198094
1761505802888175400,1.62117529296875,0.606596943372488,-0.30094241007938977,0.9012970980614423
1761505802908332800,1.641332763671875,0.6332184083163738,-0.2600562729395926,1.039687477750331
1761505802928488700,1.66148876953125,0.737473732560873,-0.21418021855801342,1.0674740409508348
1761505802948646000,1.68164599609375,0.5354816721856593,-0.3208716839082539,1.0536544821739195
1761505802968801800,1.7018017578125,0.2752384983718395,-0.39582258773520584,1.0869827512800694
1761505802988958700,1.721958740234375,0.027243396234512326,-0.2461015434756875,0.9738849260188639
1761505803009115600,1.74211572265625,-0.16302549312114714,0.020705665028840303,0.8357011748179793
1761505803029271800,1.762271728515625,-0.08420680795013905,0.16214856415614484,0.6952936100877821
1761505803049428700,1.7824287109375,-0.09743687640130519,0.15757336519509552,0.5723518516823649
1761505803069585000,1.8025849609375,-0.04905307698249817,0.09910013343840837,0.32608094298914075
1761505803089741800,1.822741943359375,-0.0331570041924715,0.06868336786478757,0.235332019919157
1761505803109898800,1.842898681640625,0.039779052680730814,-0.011549714148789643,0.19018880985677242
1761505803130054700,1.8630546875,-0.06336684901714325,-0.17458163701072335,0.27664222768992186
1761505803150211800,1.8832119140625,-0.09668927290439605,-0.2849146737337112,0.28300211811065673
1761505803170367700,1.90336767578125,-0.033171617239713666,-0.3772014738954603,0.3188305334694683
1761505803190525000,1.92352490234375,0.10190846885740756,-0.3543906532809138,0.3714842652924359
1761505803210680800,1.943680908203125,0.18253098857998848,-0.34989144216552376,0.36112419931963086
1761505803230837800,1.963837646484375,0.22718320025503633,-0.3990989790573716,0.4299126349940896
1761505803250994700,1.98399462890625,0.31898528563976286,-0.45106297505050896,0.4578163948334753
1761505803271150800,2.00415087890625,0.353226577937603,-0.49160146779641506,0.5203403632856906
1761505803291307800,2.024307861328125,0.343953722679615,-0.5361496345750987,0.5527024177081883
1761505803311464000,2.0444638671875,0.35760172428190706,-0.5920565229751169,0.5774417221672833
1761505803331620600,2.06462060546875,0.2645207050025463,-0.5965846679240465,0.6281865516290068
1761505803351777800,2.08477783203125,0.08402385259866714,-0.6814410258240997,0.7217278818964957
1761505803371933700,2.10493359375,-0.15799802034795282,-0.790218065276742,0.8960836011968553
1761505803392091000,2.1250908203125,-0.5416653292566538,-0.9779648888088762,0.9963730905503034
1761505803412246800,2.145246826171875,-0.8551081783384085,-0.7378472420483827,0.7752050589315593
1761505803432403700,2.16540380859375,-0.9401508525907992,-0.44437078393548723,0.36871027053445576
1761505803452560600,2.185560546875,-0.8392419161647557,-0.11442001377567648,0.006613426790386438
1761505803472716800,2.205716796875,-0.6417857456535101,0.13457652048915625,-0.1451514713216573
1761505803492873700,2.225873779296875,-0.6265443373799323,0.3549652382984757,-0.2991954933468252
1761505803513030000,2.24602978515625,-0.7433283038079738,0.40657852115780113,-0.145160385280475
1761505803533186600,2.2661865234375,-0.7374778242141008,0.47945320323258633,0.03150624131076038
1761505803553343700,2.28634375,-0.5648889684557914,0.5776645711377263,-0.019364625683426857
1761505803573499600,2.306499755859375,-0.25161153906881806,0.7555946417935192,-0.2533986416812986
1761505803593656800,2.32665673828125,0.10375380446314811,0.9751277656868099,-0.43538259083777664
1761505803613812700,2.346812744140625,0.38859424391686914,1.0884607148781418,-0.4784098316594958
1761505803633969700,2.3669697265625,0.6049164429396391,1.1357423982739447,-0.4232164983563125
1761505803654126800,2.387126953125,0.6832961521714925,1.0593237599819898,-0.33026516987122595
1761505803674282800,2.40728271484375,0.6045587155431509,0.9494427048102021,-0.27789456583857536
1761505803694440000,2.42743994140625,0.5035176771700381,0.747673347274959,-0.1692534277252853
1761505803714595800,2.447595947265625,0.3286000862032175,0.4695008412778377,-0.03376147289164364
1761505803734752800,2.467752685546875,0.11801906118094921,0.2070768162935972,0.05027567758001387
1761505803754909000,2.487908935546875,-0.1086953525185585,-0.044563072086870666,0.002568681444227695
1761505803775065900,2.50806591796875,-0.38104280562400816,-0.04609159682840109,-0.13225107321627438
1761505803795222800,2.528222900390625,-0.7552198171317577,0.2389732990309596,-0.29341259909644724
1761505803815378700,2.548378662109375,-0.663473845848441,0.5242433620736002,-0.6473928449455648
1761505803835536000,2.568535888671875,-0.34045769725739955,0.7448467455469071,-0.788629042519629
1761505803855691800,2.58869189453125,0.24158523509502408,0.5928741229683161,-0.9651616674676537
1761505803875848700,2.6088486328125,0.4874941786080599,0.36911885133534666,-0.9371335505962372
1761505803896005600,2.629005615234375,0.4475631502360105,0.034525077675282956,-0.38435134565010665
1761505803916161500,2.64916162109375,0.23950609073340892,-0.3300876944124698,-0.08387947569191455
1761505803936318700,2.669318603515625,0.2620505154967308,-0.6118780986458062,0.053820948971435426
1761505803956474600,2.689474609375,0.08251929325461387,-0.6919045521713793,0.22898250476196408
1761505803976631600,2.709631591796875,-0.01885609163939953,-0.6456123182043433,0.1423127407643944
1761505803996788500,2.72978857421875,-0.14430325699448585,-0.4610290732696652,0.05527808897718787
1761505804016944600,2.749944580078125,-0.04816811084151268,-0.2877344073295593,-0.11205511127524077
1761505804037101600,2.7701015625,-0.17565934924483298,-0.17640914469882846,-0.021853519889712333
1761505804057257700,2.7902578125,-0.11323884116709232,-0.11901464808955788,0.030788813756406304
1761505804077414400,2.810414306640625,-0.11440262424945831,-0.1556416664801538,0.09342340297624468
1761505804097571600,2.830571533203125,-0.1529968510597944,-0.23363310704678295,0.1795034574523568
1761505804117727500,2.8507275390625,-0.020718378379940984,-0.35166780418828125,0.17015432208776474
1761505804137884700,2.870884765625,0.09284604147970676,-0.45680663326904175,0.2037181535154581
1761505804158040600,2.89104052734375,0.17309855884611605,-0.5351265751376748,0.22875169168077408
1761505804178197500,2.911197509765625,0.20959669016003607,-0.6054015961080789,0.15484408636167646
1761505804198354400,2.9313544921875,0.21021160718798637,-0.6702656979456544,0.09825425719879567
1761505804218510600,2.951510498046875,0.14835107108056544,-0.6787466721735894,0.008957067307084798
1761505804238667500,2.97166748046875,0.11296586944460868,-0.5828438734717667,-0.08465893563181161
1761505804258823700,2.99182373046875,-0.02275076099038124,-0.4593940194137394,-0.2019569159965962
1761505804278980600,3.011980712890625,-0.029261750319600103,-0.35084202088862654,-0.33003311468102037
1761505804299137500,3.032137451171875,-0.13809797261357307,-0.3625688451699912,-0.4073685755569488
1761505804319293400,3.05229345703125,-0.24364801284372806,-0.3723573948651552,-0.4883691348116845
1761505804339450600,3.07245068359375,-0.39121816267967224,-0.38354353639855976,-0.4199688947372138
1761505804359606500,3.0926064453125,-0.400672219723463,-0.3601166297122836,-0.3859152339659631
1761505804379763700,3.112763671875,-0.3958464070022106,-0.3978817122220993,-0.35919345045275985
1761505804399920400,3.13292041015625,-0.4064256686836481,-0.4438828542880714,-0.3049200084734708
1761505804420076500,3.15307666015625,-0.4360188429147005,-0.570413138704747,-0.12816519214212893
1761505804440233500,3.1732333984375,-0.6177922911256551,-0.9725691672451794,0.30853016179464754
1761505804460389600,3.1933896484375,-0.9283709829479455,-0.9194510327808558,0.5497067430235445
1761505804480546600,3.213546630859375,-1.1640426100850105,-0.6942099065043031,0.37369704597108067
1761505804500702700,3.23370263671875,-1.0000053095728159,-0.33536548868492244,-0.05013531926125288
1761505804520859400,3.253859375,-0.7269856562942266,0.08809680112600327,-0.4042169065929949
1761505804541016600,3.2740166015625,-0.3212625829219818,0.34378728007152676,-0.6790000624127686
1761505804561172500,3.29417236328125,0.053850832653045654,0.5223587173707783,-0.6853072727981955
1761505804581329700,3.31432958984375,0.24380524923205374,0.44698666552230715,-0.4720971413813531
1761505804601485600,3.334485595703125,0.2797545144915581,0.38440804427340625,-0.16503113385513424
1761505804621642500,3.354642578125,0.34545652845799923,0.31208442021012306,-0.073313365752995
1761505804641799700,3.374799560546875,0.4527583807915449,0.31087329085469245,-0.06558408667519688
1761505804661955600,3.39495556640625,0.4539747708439827,0.2963514290273189,0.03385930724292993
1761505804682112500,3.415112548828125,0.31560499555170535,0.3888923500806093,0.0640909255079925
1761505804702268700,3.4352685546875,0.13276479489207266,0.4986778359234333,0.0031825755588710306
1761505804722425300,3.45542529296875,0.033901100558042525,0.6077186408787966,0.019264087918400764
1761505804742582500,3.47558251953125,0.1859668082475662,0.746895640900731,-0.11995631285384296
1761505804762738400,3.495738525390625,0.2477238839805126,0.7411427764624356,-0.12278802914842962
1761505804782895600,3.5158955078125,0.19623101263046264,0.7887775110796094,0.05511106184720993
1761505804803051500,3.536051513671875,0.2424257775723934,0.78333035158962,0.2723177886195481
1761505804823208400,3.55620849609375,0.30380875929594037,0.7396992996558547,0.36758813463672996
1761505804843365600,3.57636572265625,0.24922084453999996,0.567732082927227,0.48969154252186414
1761505804863521500,3.596521484375,0.17767770332992075,0.4043666903272271,0.5873331477150321
1761505804883678700,3.6166787109375,0.17705635656118393,0.2546130589723587,0.5729258521780372
1761505804903835000,3.6368349609375,0.22426409793794153,0.022554946157336234,0.8800333607584238
1761505804923991800,3.65699169921875,0.1802338175535202,-0.015302490811049937,1.2306401115864514
1761505804944148700,3.677148681640625,0.06150573132038116,-0.1087432833135128,1.0286633949108421
1761505804964304600,3.6973046875,-0.10808394262194633,-0.041055063965916634,0.628039690504223
1761505804984461800,3.7174619140625,-0.34774317809045313,0.13518091612309216,0.41033612012565135
1761505805004617700,3.73761767578125,-0.16219956369102,0.1917500678241253,0.17603168968856334
1761505805024775000,3.75777490234375,-0.01878361092507839,0.21666823598146437,-0.2245603044055402
1761505805044931800,3.777931884765625,0.19631050760746002,0.210592715460062,-0.36224889250062403
1761505805065087700,3.798087646484375,0.17924656008183956,0.14104279389381408,0.09956643577590585
1761505805085245000,3.818244873046875,0.3137468004643917,-0.10964198571890592,0.24352380194216966
1761505805105400800,3.83840087890625,0.35975861005485055,-0.3773129714459181,0.34762846566960215
1761505805125558000,3.85855810546875,0.27134441354274746,-0.522587703821063,0.5389655687786639
1761505805145714000,3.8787138671875,0.19105331773161888,-0.6031026715159415,0.5471252020977437
1761505805165870600,3.89887060546875,0.16743045008182525,-0.6190037127420306,0.5217191042929887
1761505805186026800,3.91902685546875,0.17887655772566793,-0.6795517049461602,0.48661739577352997
1761505805206182700,3.9391826171875,0.09749825119972229,-0.7336497903585434,0.3167018508777022
1761505805226339800,3.95933984375,0.0686409900277853,-0.6982943993389606,0.2305887709148228
1761505805246496800,3.979496826171875,0.07670622306168079,-0.6336562152117491,0.2020000975511968
1761505805266653000,3.99965283203125,0.1447977625131607,-0.5069207636117935,0.2114190832816064
1761505805286809600,4.0198095703125,0.15873276436328887,-0.36612551473826166,0.2459543900899589
1761505805306965800,4.0399658203125,0.14882687189877034,-0.257488322147727,0.2820275739900768
1761505805327122700,4.060122802734375,0.027287819898128507,-0.18770809895694254,0.3849132903818041
1761505805347280000,4.08027978515625,-0.190362997379899,-0.31682255464792247,0.5643643600597977
1761505805367435800,4.100435791015625,-0.4675801023483276,-0.4266305445834994,0.5957414220329373
1761505805387592700,4.1205927734375,-0.9142916041910648,-0.277386031794548,0.4337059628624469
1761505805407748600,4.14074853515625,-0.9395528866976499,0.007719196075201034,0.09703947458155453
1761505805427905800,4.16090576171875,-0.7827069589942693,0.15369184758663176,-0.2985654518149793
1761505805448063000,4.18106298828125,-0.43606794275343413,0.2371459374733269,-0.5076235050536692
1761505805468219000,4.201218994140625,-0.3668669807553291,0.29860344573780895,-0.24428368039876222
1761505805488375600,4.22137548828125,-0.4064472959935665,0.19262801970243454,0.04170819411240518
1761505805508531700,4.24153173828125,-0.4112129029601812,0.07087327912449837,0.25516075598299504
1761505805528688600,4.261688720703125,-0.42967736493349074,0.035223581333458424,0.32505992937833067
1761505805548845800,4.281845703125,-0.34596973867714403,0.2616796363577247,0.1517996771644801
1761505805569003800,4.302003662109375,-0.13525836527347565,0.5105754867270589,-0.05677329597100615
1761505805589159700,4.32215966796875,0.12808277455568312,0.6831459300458431,-0.17203721322491763
1761505805609316900,4.34231689453125,0.3775771753400564,0.7436667419821024,-0.15623093761019408
1761505805629473800,4.362473876953125,0.6442255400210618,0.7302703770533203,-0.11529672354497014
1761505805649630000,4.3826298828125,0.8041191648572683,0.7209598201334476,-0.19272548872753978
1761505805669786600,4.40278662109375,0.9747305830627679,0.7174144026115536,-0.2259455482188612
1761505805689942800,4.42294287109375,1.003102691066265,0.7980737472131848,-0.2709130363881588
1761505805710099700,4.443099609375,0.9667676413595676,0.7445484932526946,-0.27418833173178137
1761505805730257000,4.4632568359375,0.678729867169261,0.5053291105061769,-0.1420016289886087
1761505805750412800,4.483412841796875,0.3820265559643507,0.2868310287490487,-0.08591302734613418
1761505805770569700,4.50356982421875,0.005865092641115188,0.14289777411073445,-0.09437449315600097
1761505805790725600,4.5237255859375,-0.3291653188705444,0.03323562238663435,-0.09585019173175095
1761505805810882800,4.5438828125,-0.6082055476129055,-0.07084346850812434,-0.16783632746897637
1761505805831039700,4.564039794921875,-0.8343722643017768,0.011904080544412136,-0.2440810704987496
1761505805851196000,4.58419580078125,-0.7619324665129185,0.17786723455265163,-0.44375484399423
1761505805871352600,4.6043525390625,-0.5151403104245662,0.26840806782990695,-0.5561333420049399
1761505805891508700,4.6245087890625,-0.24674130268394945,0.1251553428016603,-0.619637772861868
1761505805911666000,4.644666015625,-0.013184475743770598,-0.05943535478711128,-0.6703807026274502
1761505805931823000,4.664822998046875,0.05722177039086818,-0.25748320758119225,-0.3934155996587127
1761505805951979000,4.68497900390625,0.024329554614424705,-0.48443712912499903,-0.224040372184664
1761505805972136000,4.705135986328125,0.035952772390842436,-0.6143475574992596,-0.23159911700114608
1761505805992291800,4.725291748046875,-0.03187923934161663,-0.7507451559357344,-0.2321218257009983
1761505806012448800,4.74544873046875,-0.11023965935111045,-0.7697033927753567,-0.25241131114438176
1761505806032605000,4.76560498046875,-0.19942016406059265,-0.6816805336683989,-0.2941523115478456
1761505806052761900,4.785761962890625,-0.25218787765204903,-0.5543021079897881,-0.38770657436214384
1761505806072918800,4.805918701171875,-0.19571546432375908,-0.44257498655989763,-0.4125900365322828
1761505806093074700,4.82607470703125,-0.16840660163760185,-0.3565934240221977,-0.3621777269605547
1761505806113232000,4.84623193359375,-0.0633861382395029,-0.3187855252839625,-0.31325010298863054
1761505806133387800,4.8663876953125,-0.05187748675346374,-0.339523485147208,-0.25083967791348694
1761505806153545000,4.886544921875,-0.058444005662202834,-0.43478447881415483,-0.183895627996698
1761505806173702000,4.906701904296875,-0.10732114155590533,-0.47216406913772224,-0.056357481711730356
1761505806193857800,4.92685791015625,-0.15286942528784275,-0.5175406495645642,0.030764556097984314
1761505806214015000,4.947014892578125,-0.2501262689471245,-0.427112482881546,0.002373085806891322
1761505806234171000,4.9671708984375,-0.2997726356476545,-0.36115780932828784,-0.05129040758050978
1761505806254328000,4.987328125,-0.3995329865604639,-0.4026392820127308,0.020434446872025728
1761505806274485000,5.007485107421875,-0.6312123291909695,-0.41376434100866316,0.1531134631767869
1761505806294641000,5.027640869140625,-0.9558160392343997,-0.4101191163741052,0.037383974237740036
1761505806314797800,5.0477978515625,-0.9732914901703595,-0.05069923675432801,-0.30015023678839203
1761505806334954000,5.0679541015625,-1.1962275543749332,0.06844035288915037,-0.5090792568199336
1761505806355111000,5.08811083984375,-0.9422317505180835,0.1436724117450416,-0.763022307576239
1761505806375268000,5.10826806640625,-0.6812450648605823,0.061183221367746586,-0.7691362604118883
1761505806395424000,5.128424072265625,-0.6765472624331712,0.11115385158658027,-0.39920404686704275
1761505806415581000,5.148580810546875,-0.585751723742485,0.06771802996397018,-0.13296229022555053
1761505806435736800,5.16873681640625,-0.4359890322983265,0.08429726271256804,0.08890022646337747
1761505806455894000,5.18889404296875,-0.3338157750248909,0.2336179094776511,0.0433859180662781
1761505806476051000,5.209051025390625,-0.14543664493858813,0.4401153184480965,-0.0872363118391484
1761505806496207000,5.22920703125,0.0468991138190031,0.5678638926133514,-0.14161591760665176
1761505806516363800,5.24936376953125,0.27428981934487817,0.5965180324286222,-0.18374789008907974
1761505806536520000,5.26952001953125,0.3883347161978483,0.5657698429435492,-0.17058767200373112
1761505806556676900,5.2896767578125,0.5071908127248287,0.5093193491861224,0.008561784379184246
1761505806576833000,5.3098330078125,0.6883107654631138,0.40225086721703407,0.09994381772093475
1761505806596990000,5.329989990234375,0.6888146233320236,0.3254068431198597,0.17340981675237416
1761505806617147000,5.35014697265625,0.6935726315140723,0.30928952879458665,0.18698109985664485
1761505806637302800,5.370302734375,0.6658680475085973,0.23110154274255035,0.19375351660102605
1761505806657460000,5.3904599609375,0.568455721026659,0.23421996702402828,0.24656784581318497
1761505806677615900,5.410615966796875,0.4477092807084322,0.2666130011066794,0.2524508394371718
1761505806697773000,5.43077294921875,0.35046646557450295,0.4371241738080978,0.2191485815551132
1761505806717929700,5.4509296875,0.3139519676476717,0.5695128288641572,0.15610833414383232
1761505806738086000,5.4710859375,0.298055894857645,0.6028856677643954,0.11801672309339045
1761505806758242800,5.491242919921875,0.33774785377681255,0.5509079355068505,0.21053528618440032
1761505806778399000,5.51139892578125,0.2848819405078888,0.4446447785712778,0.4256703212492168
1761505806798556000,5.531555908203125,0.2203442941457033,0.29077669763490555,0.6850158155709505
1761505806818712800,5.551712890625,0.11727321124970912,-0.01015212231054902,0.9467411177013069
1761505806838868700,5.57186865234375,-0.029442952105402945,-0.13655395804196596,1.0641961883239448
1761505806859026000,5.59202587890625,-0.13835750033259392,-0.1400141814984381,0.9463060872849076
1761505806879181800,5.612181884765625,-0.1627525213986635,0.03065978054925799,0.7644625695124269
1761505806899339000,5.632339111328125,-0.13057692945897578,0.2595575296372175,0.5189272816173732
1761505806919496000,5.652495849609375,0.0675426733970642,0.3760669169075787,0.31605463901534675
1761505806939651800,5.67265185546875,0.29771336503028867,0.3992405794851482,0.31326866155862804
1761505806959809000,5.69280908203125,0.43836277569234366,0.24039997083321213,0.44822504821084436
1761505806979965000,5.71296484375,0.5783031613022088,0.06825549784153699,0.5329499617509543
1761505807000121900,5.733121826171875,0.4075719161093235,-0.14881839633136987,0.720436965303123
1761505807020279000,5.753279052734375,0.27405425702333447,-0.18942133261561392,0.6829584446497261
1761505807040435000,5.77343505859375,0.07462240252494812,-0.3057186845704913,0.8299173307195306
1761505807060591900,5.793591796875,-0.05654489404261112,-0.2948775570824742,0.7479118322059511
1761505807080747800,5.813747802734375,-0.25542963605225083,-0.33802301745638247,0.6168684542790055
1761505807100905000,5.833905029296875,-0.40308395704030986,-0.4121776563391089,0.5010502641431988
1761505807121060900,5.854060791015625,-0.5190057536810636,-0.4662311719574034,0.38943843965604896
1761505807141218000,5.874218017578125,-0.513126632514596,-0.5273667547911405,0.3610485768001526
1761505807161375000,5.894375,-0.360251946529746,-0.6257660464838147,0.34740685880817473
1761505807181531000,5.91453076171875,-0.245514975759387,-0.7104059851542115,0.39758104877509176
1761505807201688000,5.93468798828125,-0.17503215725719928,-0.6846354379512369,0.48038989956080913
1761505807221844000,5.954843994140625,-0.027440380111336708,-0.6817932002626359,0.4932341835647821
1761505807242001200,5.975001220703125,0.02504384036362171,-0.6425342259332537,0.46962753639742727
1761505807262157800,5.99515771484375,0.01035363623201847,-0.5755694985546171,0.4649743037641048
1761505807282314000,6.01531396484375,-0.0005623100578784942,-0.49418680811449883,0.4010482864942401
1761505807302471000,6.035470947265625,-0.021140987706184385,-0.5161246452867985,0.3999349914900958
1761505807322626800,6.055626708984375,-0.0634434213846922,-0.6323332960449158,0.5331694497205317
1761505807342784000,6.075783935546875,-0.127482470574975,-0.838585936474055,0.7020359239548445
1761505807362941000,6.09594091796875,-0.24071429747939108,-0.8294584810361265,0.6401178124412894
1761505807383096800,6.116096923828125,-0.3193494427770376,-0.5784133436784148,0.5216675933014601
1761505807403254000,6.13625390625,-0.25258359897136684,-0.3191460291594267,0.2953787115376442
1761505807423410000,6.156409912109375,0.0003752630531787872,-0.06662687372639775,0.08889357752688229
1761505807443567000,6.176567138671875,0.05453063161075115,0.1012011973708868,0.1222504151403904
1761505807463723800,6.196723876953125,0.017041151171922682,0.22510347137153147,0.23829708026982843
1761505807483880000,6.2168798828125,0.0026958149552345273,0.20378537353277204,0.4835157034311443
1761505807504036900,6.237036865234375,-0.1005342578947544,0.19631737573966382,0.7245736997816711
1761505807524193000,6.257193115234375,-0.22354864314496517,0.2431529228031635,0.8385709581006318
1761505807544350000,6.277349853515625,-0.25585224537849427,0.33765126153454184,0.6943162164229899
1761505807564507000,6.2975068359375,-0.3414151441127062,0.4559443173512816,0.5518114236852154
1761505807584663000,6.3176630859375,-0.4109066134899854,0.5348018732279539,0.42618035313058644
1761505807604820000,6.337820068359375,-0.37308337105214595,0.6017835517413914,0.334104857631959
1761505807624976000,6.357975830078125,-0.164762107655406,0.7119631514683366,0.24746220083702355
1761505807645133000,6.378133056640625,-0.006875730988383293,0.7859227061703801,0.17270475548924877
1761505807665289000,6.3982890625,0.009310849180817603,0.7754995118334889,0.12190611348105594
1761505807685446100,6.418446044921875,0.11730828256309032,0.7793938889235258,0.062406881411187345
1761505807705602800,6.438602783203125,0.057872927775979036,0.8603064776338636,0.08628847306240349
1761505807725759000,6.458759033203125,0.15314531961977482,0.9424255195245146,0.05099493176527321
1761505807745916000,6.478916015625,0.0505897850304842,0.8744372943170368,-0.06618252749238163
1761505807766072000,6.499072021484375,0.0928752675741911,0.6911800372891128,0.17883399722557514
1761505807786229000,6.51922900390625,0.057337505725026126,0.6930548912502825,0.12140044724754988
1761505807806386000,6.539385986328125,0.10266308661699294,0.6014141339071095,0.13246168375965206
1761505807826541800,6.559541748046875,0.21959201447367666,0.46728462653309105,0.15565288199391214
1761505807846699000,6.579698974609375,0.24818857888281343,0.2648629425689578,0.21433928157724438
1761505807866855000,6.59985498046875,0.18819091403782368,0.08350698911771177,0.32116650213636455
1761505807887012000,6.62001220703125,0.2329138528615236,0.10243921473324298,0.24193762872926888
1761505807907168500,6.64016845703125,0.11285481028556824,0.029299305851012467,0.16169709406159818
1761505807927324700,6.66032470703125,-0.07693827825188636,0.05743132148832082,0.08439838499948382
1761505807947481600,6.680481689453125,-0.05446224254965782,0.17203341383263468,0.035136122245714066
1761505807967637500,6.700637451171875,0.07711012768745422,0.20749314200952648,-0.19065028988867996
1761505807987794700,6.720794677734375,0.16982231365442274,0.21725524208918212,-0.20726678590774536
1761505808007951600,6.74095166015625,0.045478141105175014,0.14935411064326762,-0.16737236321903765
1761505808028107500,6.761107421875,-0.1116793367654085,0.016878069564700126,-0.16756269815936684
1761505808048264700,6.7812646484375,-0.27442250581383704,-0.10854060034826397,-0.13967618171572685
1761505808068420600,6.801420654296875,-0.2773866163164377,-0.18772300426512956,-0.21310659797713158
1761505808088577800,6.821577880859375,-0.2988181114017963,-0.19576281059682368,-0.20723989790081976
1761505808108733700,6.841733642578125,-0.23717326387166976,-0.07802315087914466,-0.20621625394150614
1761505808128891000,6.861890869140625,-0.1424491535604,-0.011437778206914663,-0.21799590438865124
1761505808149047600,6.882047607421875,-0.11739362275898456,-0.020445552787929772,-0.18678053578324616
1761505808169203700,6.90220361328125,-0.1743330690771341,-0.049110506258159874,-0.07534121831879019
1761505808189360600,6.922360595703125,-0.18892858066260815,-0.02984817190542817,0.05224456650018692
1761505808209516800,6.942516845703125,-0.09879121361970901,-0.06112491530925035,0.06965374726690352
1761505808229673700,6.962673828125,-0.10519523544311522,-0.1296641985282302,0.12680917442329226
1761505808249830700,6.98283056640625,-0.17132804204225538,-0.18307050228416918,0.15628880527727304
1761505808269986600,7.002986572265625,-0.19751170009076593,-0.22379355781674384,0.16548735319003463
1761505808290143700,7.023143798828125,-0.27468729422986504,-0.20965075843483208,0.1403227359909564
1761505808310299600,7.043299560546875,-0.25393033740520476,-0.15103841046839953,0.12956943291686474
1761505808330456800,7.063456787109375,-0.328929172027111,-0.0928043942950666,0.1000509313572198
1761505808350613500,7.083613525390625,-0.38010757060050965,0.021565788989514112,0.09702836866565048
1761505808370769700,7.103769775390625,-0.35674481519162654,0.08008315214887261,0.19263035778999327
1761505808390926600,7.123926513671875,-0.37737493076622486,0.030280864234268665,0.30237485403530295
1761505808411082800,7.144082763671875,-0.6704232265949249,-0.03768646431565285,0.6902914178863168
1761505808431239700,7.16423974609375,-1.0941776312202214,0.050002194400876755,0.9217173702776431
1761505808451396600,7.184396728515625,-1.3447218333184718,0.3344460357524454,0.7531758171487599
1761505808471552500,7.204552490234375,-1.2691297089785336,0.6315868615917861,0.4602343426954001
1761505808491709700,7.224709716796875,-0.7544020710080862,0.7666931050434708,0.18594554626382886
1761505808511865600,7.244865478515625,-0.42821372212171555,0.9151227943181991,0.06293167247027158
1761505808532022800,7.265022705078125,-0.2990753010332584,0.8042451293244958,0.22820903617143629
1761505808552179500,7.285179443359375,-0.3129991969674826,0.5662510505892336,0.4614027288876474
1761505808572335600,7.305335693359375,-0.0015969138026237486,0.4188448591433465,0.5369209112085401
1761505808592492500,7.325492431640625,0.03266600580513477,0.4155287203326821,0.7136060963697731
1761505808612648700,7.345648681640625,0.21346564054787157,0.5831437332011759,0.7240441960148513
1761505808632805600,7.3658056640625,0.30581016224622726,0.7636291874282062,0.6681628804475068
1761505808652961800,7.3859619140625,0.3138070062190294,0.9897466581478714,0.5684538213305175
1761505808673118500,7.406118408203125,0.31950434107780457,1.0898305419266223,0.4266081866212189
1761505808693275600,7.426275634765625,0.2047247002094984,1.0845954177521169,0.25892536921352144
1761505808713431600,7.446431640625,0.26061317616999147,1.0605613389529287,0.2773838398374617
1761505808733588700,7.466588623046875,0.3691851945698261,1.0567996483318507,0.3528982227660715
1761505808753744600,7.48674462890625,0.39484219839572904,1.0107423921644687,0.365888929503411
1761505808773901800,7.50690185546875,0.28413492153286934,0.8916133239150047,0.38649727163761854
1761505808794058500,7.52705859375,0.10907996792197226,0.6709075029805303,0.3472475035279989
1761505808814214700,7.547214599609375,-0.3423527172237634,0.06736848587393761,-0.39305151558667417
1761505808834371600,7.56737158203125,0.03655073828399181,-0.08897709109187125,-2.0981851621717214
1761505808854527700,7.58752783203125,1.1833347550541162,1.520171923726797,-1.4272757594950496
1761505808874684700,7.6076845703125,0.6342272930979729,1.0802969899058341,-0.0373081325225532
1761505808894841600,7.627841552734375,-0.5456821636825799,0.18396862016767263,-0.496423627255857
1761505808914997800,7.647997802734375,0.6599766513824462,0.3254591578289866,-1.6814261693917214
1761505808935154700,7.66815478515625,0.6149293029099703,0.17004501649439333,-1.1069162628926337
1761505808955310800,7.688310791015625,0.06942658744752407,-0.04776449847668409,0.367070029046759
1761505808975467800,7.7084677734375,-0.4676549211502075,-0.6097048462599516,1.0752901215292512
1761505808995624700,7.728624755859375,-0.4643126249849796,-0.49748278091996906,1.360683957082033
1761505809015780600,7.748780517578125,-0.5346498975366354,0.19655892941057682,1.3734484538480638
1761505809035937800,7.768937744140625,-0.3007879501700401,0.7608037547439336,1.380344204711169
1761505809056093700,7.78909375,-0.008752046254277229,0.8946706656590103,1.607074692762643
1761505809076251000,7.8092509765625,-0.026639585122466086,0.6305173326641321,1.7040632408745586
1761505809096407800,7.82940771484375,-0.18363865756094455,0.3895508139893412,1.7863775130763648
1761505809116563700,7.849563720703125,-0.45006724201142784,0.23309183977693318,1.9061277819640934
1761505809136721000,7.869720947265625,-0.3081476652830839,0.3044458881556988,1.8620400723040103
1761505809156876800,7.889876708984375,-0.4474181888073683,0.39411534542590376,1.7643933525443076
1761505809177031700,7.91003173828125,-0.49401744289696214,0.3568970831438899,1.5079570236675441
1761505809197188900,7.93018896484375,-0.6124532681852579,0.2911877626538277,1.173397152277082
1761505809217344800,7.9503447265625,-0.83697747836411,0.4182354950733483,1.283286244624853
1761505809237502000,7.970501953125,-0.6719067431509494,0.36291458986774083,1.1212295965358614
1761505809257658600,7.99065869140625,-0.46912148657143116,0.26879516745135185,0.9041413815766572
1761505809277814800,8.010814697265625,-0.397374931743741,0.20368527415916324,0.9089920364782214
1761505809297971700,8.0309716796875,-0.24631869335770606,0.056698769430071114,0.8443821285974233
1761505809318127900,8.0511279296875,-0.08878653695583343,-0.02686740252897143,0.8959622398395091
1761505809338284800,8.071284912109375,0.11985855156779289,-0.17724676456674932,1.0123052575670182
1761505809358441700,8.091441650390625,0.12080430798530578,-0.33775179929956795,1.1760725820314137
1761505809378597600,8.11159765625,0.14658990662693977,-0.41766748592704533,1.2511024693787096
1761505809398754800,8.1317548828125,0.07539280237555504,-0.46017654809355735,1.382172735312581
1761505809418910700,8.15191064453125,0.024726444977521893,-0.31988895648121835,1.3312388130195438
1761505809439068000,8.17206787109375,0.05853636012077331,-0.17325170358121394,1.086702911425382
1761505809459224600,8.192224609375,0.11314414862096309,-0.12179419580549002,0.7555249375581741
1761505809479380700,8.212380615234375,0.07782850508987903,-0.016459259630739687,0.4216545828018337
1761505809499537700,8.23253759765625,-0.016349077254533766,-0.018390812215209006,0.14384711072482168
1761505809519693800,8.25269384765625,-0.10980009889006614,0.10603285531103611,0.04250380146950483
1761505809539850800,8.272850830078125,-0.32524083890318867,0.18986586151272059,-0.06877152107227594
1761505809560008000,8.293008056640625,-0.3753115684956312,0.32798136978298426,-0.20221761275939643
1761505809580163800,8.313163818359374,-0.53262686727643,0.48949382799267765,-0.2549791158057749
1761505809600320800,8.33332080078125,-0.5233662869781256,0.5810884081065655,-0.36612346891164776
1761505809620476700,8.3534765625,-0.4288035047084093,0.63334671087116,-0.42339996516443784
1761505809640633900,8.3736337890625,-0.3173211518198252,0.659115650638938,-0.3278818914638832
1761505809660789800,8.393789794921876,-0.23728198494315145,0.6137620126962662,-0.2572457820961252
1761505809680947000,8.413947021484375,-0.20134148751199243,0.543626984718442,-0.21574315702579913
1761505809701103600,8.434103515625,-0.06304594649970531,0.5780550317600369,-0.20483543057497589
1761505809721259800,8.454259765625,0.06174421625137329,0.6147764504358172,-0.23849998243078588
1761505809741416700,8.474416748046876,0.10522855319082737,0.554031766615808,-0.22787600482478737
1761505809761572900,8.49457275390625,0.11592881090342998,0.45409518235325813,-0.2842417794408276
1761505809781729800,8.514729736328125,0.16630699900984763,0.33526480478942394,-0.3258437732324004
1761505809801886700,8.53488671875,0.18743103558123111,0.23769173478782177,-0.28852785926219077
1761505809822044000,8.5550439453125,0.19925474436581134,0.2774891999080777,-0.24454930906500666
1761505809842199800,8.57519970703125,0.21082184804081916,0.29369565382152796,-0.2587164757031947
1761505809862356700,8.595356689453125,0.1725128679126501,0.31449206587374207,-0.27796536605246364
1761505809882513700,8.615513671875,0.14824293453097342,0.3032911651626229,-0.32785255577154454
1761505809902669000,8.6356689453125,0.1105553011715412,0.3518590889766812,-0.3837454887114465
1761505809922825700,8.65582568359375,0.04642039039134979,0.37282267428934573,-0.41715675992593165
1761505809942982000,8.67598193359375,-0.024424831682443617,0.376867273505032,-0.46052631137929856
1761505809963138800,8.696138916015625,-0.09131108699738978,0.38938130264133214,-0.4379226307094097
1761505809983296000,8.7162958984375,-0.04065758908092976,0.4228007571622729,-0.547631982576102
1761505810003452000,8.736451904296874,-0.09046177669167518,0.47167204783707856,-0.5606724467393011
1761505810023608800,8.75660888671875,-0.19018238011598587,0.4205088468328118,-0.577891804022342
1761505810043764700,8.7767646484375,-0.12339900065362452,0.32911709581464527,-0.6791887168526649
1761505810063922000,8.796921875,-0.14854863947927952,0.22111849338859318,-0.5074903801932931
1761505810084078800,8.817078857421874,-0.03944938233494758,0.035358605889976025,-0.5788025621917099
1761505810104235000,8.837235107421876,-0.05512450585067272,-0.11385200462937355,-0.5320873535722493
1761505810124391700,8.8573916015625,-0.09824877730607987,-0.22798341072201728,-0.5407991408813745
1761505810144547800,8.8775478515625,-0.02196516357064247,-0.24784634131640193,-0.5974102685606106
1761505810164704800,8.897704833984376,0.11376374182403087,-0.22369652718305585,-0.639892040861398
1761505810184862000,8.917862060546875,0.20075228944718837,-0.21780951497107742,-0.64347837491557
1761505810205017900,8.938017822265625,0.292968216329813,-0.2191501159250736,-0.6410330275900662
1761505810225174800,8.9581748046875,0.36866555460989475,-0.25147213059812784,-0.6179442668169737
1761505810245330700,8.97833056640625,0.43022155481278895,-0.3093620095089078,-0.5254397322513162
1761505810265488000,8.99848779296875,0.3403548214048147,-0.34504005661159753,-0.40443643109519034
1761505810285643800,9.018643798828125,0.32666122709512707,-0.41445846075266596,-0.35373142218720166
1761505810305801000,9.038801025390624,0.3024380554646253,-0.42482817133665085,-0.2828006772544235
1761505810325958000,9.0589580078125,0.3060860565781593,-0.42222193436101074,-0.22839012835938483
1761505810346114000,9.079114013671875,0.23835166000127792,-0.49448856754004955,-0.1931327543541789
1761505810366271000,9.09927099609375,0.13255670509934425,-0.5305692040942609,-0.08178060371652245
1761505810386427000,9.119427001953126,0.0828279208123684,-0.6494425440169871,-0.03125423931106925
1761505810406584000,9.139583984375,0.09858780000209807,-0.7529707230307161,0.02664583220016211
1761505810426741000,9.159740966796875,0.09415010981559753,-0.7962789727509021,0.10053929939605295
1761505810446897000,9.17989697265625,0.0368868383705616,-0.84606460179165,0.1819121625619009
1761505810467053800,9.2000537109375,0.014568039056658743,-0.8518886317700147,0.11290639434233307
1761505810487209700,9.220209716796875,-0.06235153449475765,-0.8507128659889102,0.11124627911038697
1761505810507367000,9.240366943359374,-0.16885142279565332,-0.8021890735775232,0.20490750943049788
1761505810527522800,9.260522705078126,-0.2664922973364591,-0.9209878869593143,0.051517348204180594
1761505810547680000,9.280679931640625,-0.47453182118237014,-0.7577035967715084,0.0033390812948346136
1761505810567837000,9.3008369140625,-0.5637772078216076,-0.6885761384010315,-0.03523592935837805
1761505810587992800,9.320992919921874,-0.7066121458292007,-0.638795185535401,-0.18789916454963385
1761505810608150000,9.34114990234375,-0.6918652430742979,-0.6481802689962088,-0.2263160620316863
1761505810628306000,9.361305908203125,-0.8546645262241364,-0.7496645210921764,-0.11170688235945998
1761505810648463000,9.381463134765625,-0.9374380865007639,-0.617120237082988,-0.26455029642321165
1761505810668619800,9.401619873046876,-0.9340776701569556,-0.3992261125683784,-0.21831980258077383
1761505810688776000,9.42177587890625,-0.780956315934658,-0.16049159072935582,-0.2442288814716041
1761505810708932900,9.441932861328125,-0.5157295084893703,-0.029423516752570867,-0.11580262724049388
1761505810729089000,9.462089111328124,-0.31752573448121546,-0.038663054262846705,0.0314564108196646
1761505810749246000,9.482245849609376,-0.3399894952237606,0.1063021737717092,0.06310439868867397
1761505810769401900,9.50240185546875,-0.35535423761606216,0.18874898631200193,0.1761542200896889
1761505810789558800,9.522558837890625,-0.278217806443572,0.18429624468684194,0.1638954078234732
1761505810809716000,9.542716064453124,-0.2922229509204626,0.20930267564952373,0.01970847068503499
1761505810829871900,9.562871826171875,-0.19374737912118434,0.3980030005142092,-0.04730265311859548
1761505810850029000,9.583029052734375,-0.012459668600559234,0.5892199843749404,-0.09335311421900987
1761505810870185000,9.60318505859375,0.15410276647508145,0.7095039217479526,-0.04166808129772544
1761505810890342000,9.623341796875,0.35511575268507,0.7440718156516551,0.05568951932229101
1761505810910498600,9.64349853515625,0.4042530008196831,0.7087624557308853,0.16834164664261042
1761505810930655500,9.663655517578125,0.4246235886752605,0.7401300922885536,0.2152352075036615
1761505810950812700,9.683812744140624,0.4552192179471254,0.7681476877659559,0.23474486768096683
1761505810970968600,9.703968505859375,0.411931280362606,0.7655661468401551,0.1383398185454309
1761505810991125500,9.72412548828125,0.41629648983478545,0.7824933162435889,0.26965974839143453
1761505811011281400,9.744281494140624,0.3950263227909803,0.6793959298625588,0.4208662819683551
1761505811031438600,9.7644384765625,0.3064537208467722,0.5355176202818751,0.4747571543708443
1761505811051595500,9.784595458984375,0.231115279006958,0.36037352708280085,0.551656708047539
1761505811071751700,9.804751708984375,0.0026589900761842724,0.2930176084294915,0.5048474644690751
1761505811091908400,9.824908447265624,-0.15869535496234893,0.40391251681894064,0.4276113723143935
1761505811112064500,9.845064453125,0.044863808599114416,0.6498835657827555,0.3880930163964629
1761505811132221400,9.865221435546875,0.22405016292631624,0.6532517270416021,0.4060605616983026
1761505811152377600,9.885377685546874,0.3979898487716913,0.4490386296160519,0.22760515199415385
1761505811172534500,9.905534423828126,0.42738428556025027,0.34789924543499945,0.37964996302612125
1761505811192691500,9.92569140625,0.2760276029229164,0.0918364260457456,0.5343066370569169
1761505811212847400,9.945847412109375,0.14397943186759948,-0.29038915962204337,0.5038819804377853
1761505811233004500,9.966004638671874,0.12683131318986415,-0.5052465467892587,0.46137964027300477
1761505811253160400,9.986160400390625,0.17435820351839065,-0.49735900840982794,0.6485002947308123
1761505811273317600,10.006317626953125,0.07337386376857757,-0.5141488151691854,0.6383622009456157
1761505811293473500,10.0264736328125,0.045081250742077826,-0.44113779336363074,0.4899006552278995
1761505811313630500,10.04663037109375,-0.030246669703721998,-0.4104210219301283,0.3878763049058616
1761505811333787400,10.066787353515625,-0.1303928050637245,-0.4051924736268818,0.4576753789275884
1761505811353943600,10.086943603515625,-0.0715033937215805,-0.5409311697632074,0.07630078406594694
1761505811374100500,10.1071005859375,0.008058218771219252,-0.516314761031419,0.06119286597892642
1761505811394256600,10.127256591796876,-0.026616204246878623,-0.5692435104034841,0.15185630272254347
1761505811414413600,10.14741357421875,0.3533423132717609,-0.6757277627438306,0.15063954734392462
1761505811434569500,10.167569580078125,0.2954161940038204,-0.8994656448505818,0.2970599426228553
1761505811454726400,10.187726318359376,0.37346272575855255,-0.9183012782238423,0.2217383788526058
1761505811474883600,10.207883544921875,0.08498480658531188,-0.8660064428411424,0.39190548735670744
1761505811495039500,10.22803955078125,-0.08713760070502757,-0.8139677741765976,0.5592872759912163
1761505811515196700,10.24819677734375,0.24746026460826395,-0.7657967407256364,0.3614275661803782
1761505811535352600,10.2683525390625,0.8431582128256558,-0.72907736787647,0.7265821900598705
