time,seconds_elapsed,z,y,x
1761507806569942000,0.07094189453125,0.010898685082793236,0.026715300977230072,-0.08408357203006744
1761507806590098000,0.091097900390625,0.02236306667327881,0.030626751482486725,-0.05538596585392952
1761507806610252800,0.111252685546875,0.03311633691191673,0.04225732013583183,-0.010021237656474113
1761507806630409000,0.131408935546875,0.05156327411532402,0.02617511712014675,-0.0069510601460933685
1761507806650563800,0.151563720703125,0.06442979723215103,-0.026974376291036606,-0.0196148082613945
1761507806670719700,0.1717197265625,0.06898540258407593,-0.018113479018211365,0.012474318966269493
1761507806690876000,0.1918759765625,0.04994991794228554,-0.018008310347795486,0.04126797989010811
1761507806711031000,0.212031005859375,0.03724214807152748,-0.01223807968199253,0.07339201867580414
1761507806731187000,0.23218701171875,0.02821211703121662,-0.014240112155675888,0.0606817752122879
1761507806751341800,0.252341796875,0.030107516795396805,-0.024683229625225067,0.05191813036799431
1761507806771498000,0.272498046875,0.023844826966524124,-0.03348315507173538,0.028516385704278946
1761507806791652900,0.29265283203125,0.01318072248250246,-0.03075055032968521,0.011640549637377262
1761507806811808800,0.312808837890625,0.005175548605620861,-0.00812542624771595,0.019431130960583687
1761507806831965400,0.33296533203125,-0.004454723559319973,-0.012376762926578522,-0.0005514677613973618
1761507806852120300,0.353120361328125,0.0030702962540090084,-0.006334650330245495,-0.017028629779815674
1761507806872276500,0.3732763671875,0.01400443259626627,-0.023636288940906525,-0.031952936202287674
1761507806892431600,0.393431640625,0.019292157143354416,-0.022060975432395935,-0.012006055563688278
1761507806912587500,0.41358740234375,0.016197826713323593,-0.02335435338318348,-0.008420592173933983
1761507806932742400,0.433742431640625,0.00873350165784359,-0.014296277426183224,-0.014741707593202591
1761507806952898600,0.453898681640625,0.00008624489419162273,-0.030108675360679626,-0.015394194982945919
1761507806973053400,0.474053466796875,-0.021457117050886154,-0.002511190250515938,0.020851030945777893
1761507806993209300,0.494209228515625,-0.03188659995794296,0.01396123319864273,0.03516801819205284
1761507807013365500,0.514365478515625,-0.022996438667178154,0.032189853489398956,0.013367146253585815
1761507807033520400,0.534520263671875,0.00037706526927649975,0.017787130549550056,-0.021381812170147896
1761507807053676300,0.55467626953125,0.011994024738669395,0.010273155756294727,-0.041000887751579285
1761507807073831700,0.574831787109375,0.022143293172121048,0.018135149031877518,-0.034751687198877335
1761507807093987600,0.594987548828125,0.02454417012631893,0.03099605068564415,-0.013836364261806011
1761507807114142500,0.615142578125,0.029389256611466408,0.0434112548828125,-0.011281561106443405
1761507807134298600,0.635298583984375,0.03580053523182869,0.026715684682130814,-0.012223921716213226
1761507807154454500,0.65545458984375,0.0503011979162693,0.03995469957590103,-0.010894088074564934
1761507807174609400,0.675609375,0.06992073357105255,0.04491674154996872,0.008383159525692463
1761507807194765600,0.695765625,0.07994136214256287,0.05601993575692177,0.03128740191459656
1761507807214920400,0.71592041015625,0.07579296082258224,0.029339123517274857,0.027955172583460808
1761507807235076400,0.736076416015625,0.06344174593687057,0.013979729264974594,0.0282785315066576
1761507807255231500,0.7562314453125,0.05354839563369751,0.009641292504966259,0.025493383407592773
1761507807275387600,0.7763876953125,0.05102716386318207,-0.003556014969944954,0.022236816585063934
1761507807295543600,0.79654345703125,0.043351415544748306,0.0015331534668803215,0.03034571185708046
1761507807315698400,0.816698486328125,0.028303472325205803,0.020515047013759613,0.04738853871822357
1761507807335854600,0.8368544921875,0.027784697711467743,0.0056857941672205925,0.030796950682997704
1761507807356009500,0.857009521484375,0.04118411988019943,0.006041217595338821,0.04362386465072632
1761507807376165400,0.877165283203125,0.04002057760953903,-0.0008296174928545952,0.026212433353066444
1761507807396320500,0.897320556640625,0.03860856592655182,-0.016466248780488968,0.016480492427945137
1761507807416476400,0.917476318359375,0.030930668115615845,-0.01971442624926567,0.02308729663491249
1761507807436631600,0.937631591796875,0.030638031661510468,-0.022642318159341812,0.014606282114982605
1761507807456787500,0.957787353515625,0.03376561403274536,-0.024827096611261368,0.014023144729435444
1761507807476943600,0.977943603515625,0.040120482444763184,-0.03083815611898899,0.018074000254273415
1761507807497098500,0.998098388671875,0.03113124705851078,-0.020048359408974648,0.03723571076989174
1761507807517254400,1.01825439453125,0.02643955871462822,-0.006495837587863207,0.05032220110297203
1761507807537409500,1.038409423828125,0.025289591401815414,-0.024292318150401115,0.02500128000974655
1761507807557565400,1.0585654296875,0.04026429355144501,-0.030739430338144302,0.015940776094794273
1761507807577720300,1.07872021484375,0.04121369495987892,-0.05928408354520798,-0.007257840130478144
1761507807597876500,1.09887646484375,0.05290096625685692,-0.04018791764974594,-0.004195905290544033
1761507807618031600,1.119031494140625,0.05788775905966759,-0.041255831718444824,0.006252527702599764
1761507807638187500,1.1391875,0.046972524374723434,-0.04627447575330734,0.005124179180711508
1761507807658343700,1.15934375,0.02573644369840622,-0.057903967797756195,-0.002663906430825591
1761507807678498600,1.17949853515625,0.01105124969035387,-0.0388638973236084,0.025300268083810806
1761507807698654500,1.199654541015625,0.002473230008035898,-0.06205233559012413,0.010894732549786568
1761507807718809300,1.219809326171875,0.0038657954428344965,-0.03648994117975235,0.04603942111134529
1761507807738965500,1.239965576171875,-0.00105734181124717,-0.02793596312403679,0.06278102844953537
1761507807759120400,1.260120361328125,-0.005704575218260288,-0.029094839468598366,0.061657875776290894
1761507807779276300,1.2802763671875,-0.003841405501589179,-0.025977592915296555,0.07891068607568741
1761507807799432400,1.300432373046875,-0.009099253453314304,-0.02443642169237137,0.06087835878133774
1761507807819586300,1.32058642578125,-0.004119174554944038,-0.016670605167746544,0.05332810804247856
1761507807839742200,1.3407421875,-0.006707220338284969,-0.01736578345298767,0.012433524243533611
1761507807859897300,1.3608974609375,-0.008417995646595955,-0.01252714078873396,-0.02586931362748146
1761507807880053200,1.38105322265625,-0.004951953887939453,-0.021002303808927536,-0.05249251797795296
1761507807900208000,1.4012080078125,-0.009361080825328827,-0.031450990587472916,-0.07214426249265671
1761507807920364300,1.4213642578125,-0.025608208030462265,-0.02975081279873848,-0.0648261159658432
1761507807940519400,1.44151953125,-0.02823464944958687,-0.0039245449006557465,-0.026875469833612442
1761507807960675300,1.46167529296875,-0.02840345725417137,0.0003694593906402588,0.001164324814453721
1761507807980831500,1.48183154296875,-0.019320489838719368,0.012875370681285858,0.030801143497228622
1761507808000986400,1.501986328125,-0.004907186143100262,0.010926761664450169,0.038827814161777496
1761507808021142300,1.522142333984375,0.0061843134462833405,0.022912584245204926,0.04578405246138573
1761507808041297200,1.542297119140625,0.017141375690698624,0.011535920202732086,0.005929666571319103
1761507808061453300,1.562453369140625,0.02364186756312847,0.0129148093983531,0.0017372334841638803
1761507808081608200,1.582608154296875,0.015787960961461067,0.007278509438037872,-0.02006841078400612
1761507808101764000,1.60276416015625,0.009429129771888256,0.019133878871798515,-0.042881567031145096
1761507808121920300,1.622920166015625,0.005879922769963741,0.011785163544118404,-0.07543966174125671
1761507808142075400,1.643075439453125,0.005241047590970993,0.0003155963495373726,-0.09026617556810379
1761507808162231300,1.663231201171875,-0.004492027685046196,0.0023363474756479263,-0.10277324914932251
1761507808182386400,1.683386474609375,-0.018950844183564186,0.004876337945461273,-0.09187895059585571
1761507808202542300,1.703542236328125,-0.02558235637843609,0.007936163805425167,-0.06386623531579971
1761507808222697200,1.723697265625,-0.03612636402249336,0.034414175897836685,-0.02219950407743454
1761507808242853400,1.743853271484375,-0.04076637700200081,0.02435079775750637,0.0024063580203801394
1761507808263008300,1.76400830078125,-0.0422673374414444,-0.0012311814352869987,0.03875507786870003
1761507808283164200,1.7841640625,-0.0498269721865654,-0.00813426822423935,0.06630876660346985
1761507808303320300,1.8043203125,-0.058877475559711456,-0.007415759842842817,0.0703417956829071
1761507808323475500,1.824475341796875,-0.05507342144846916,-0.015310315415263176,0.05757411941885948
1761507808343631400,1.84463134765625,-0.04696141928434372,-0.0009443322196602821,0.058655716478824615
1761507808363786200,1.8647861328125,-0.04275442659854889,-0.007834343239665031,0.024765176698565483
1761507808383942400,1.8849423828125,-0.04301463067531586,-0.014099827967584133,0.00010340358130633831
1761507808404097300,1.90509716796875,-0.04386020079255104,0.010433529503643513,0.01212131604552269
1761507808424253200,1.925253173828125,-0.051755670458078384,0.042520053684711456,0.0010910183191299438
1761507808444409300,1.945409423828125,-0.04406071826815605,0.03395865857601166,-0.040710918605327606
1761507808464564200,1.965564208984375,-0.01836894080042839,0.020540399476885796,-0.07587366551160812
1761507808484720000,1.98572021484375,0.0024982511531561613,0.024958252906799316,-0.09025278687477112
1761507808504875300,2.005875244140625,0.01647316850721836,0.043029606342315674,-0.07129781693220139
1761507808525031400,2.026031494140625,0.032965339720249176,0.03423823416233063,-0.034619275480508804
1761507808545186300,2.046186279296875,0.039335086941719055,0.030144650489091873,-0.0045668501406908035
1761507808565342200,2.06634228515625,0.03732519969344139,0.00579460896551609,0.0005682730115950108
1761507808585498400,2.086498291015625,0.04804283007979393,-0.014789081178605556,-0.004152229055762291
1761507808605653200,2.1066533203125,0.06713932007551193,-0.023251835256814957,-0.016614455729722977
1761507808625809200,2.12680908203125,0.07752350717782974,-0.049937654286623,-0.04600931331515312
1761507808645964300,2.14696435546875,0.08545681834220886,-0.07087066024541855,-0.07833792269229889
1761507808666120200,2.1671201171875,0.0864458680152893,-0.11055314540863037,-0.10651922971010208
1761507808686275300,2.187275390625,0.07840365171432495,-0.07619407027959824,-0.0592302605509758
1761507808706431500,2.207431396484375,0.06368810683488846,-0.03026266023516655,-0.006789590232074261
1761507808726586400,2.22758642578125,0.06193361058831215,-0.008534873835742474,0.01863938570022583
1761507808746742300,2.2477421875,0.06032454967498779,-0.014941667206585407,0.008479995653033257
1761507808766898400,2.2678984375,0.06824983656406403,-0.0212537981569767,-0.01821218803524971
1761507808787053300,2.28805322265625,0.07277349382638931,-0.023165162652730942,-0.0489337295293808
1761507808807209200,2.308209228515625,0.05671648681163788,-0.037484124302864075,-0.07562565803527832
1761507808827365400,2.328365478515625,0.02134840190410614,-0.013285500928759575,-0.052090536803007126
1761507808847521300,2.348521240234375,-0.02022702991962433,0.021945830434560776,0.0011958484537899494
1761507808867676200,2.36867626953125,-0.04940064251422882,0.015160268172621727,0.021526068449020386
1761507808887832300,2.388832275390625,-0.06571808457374573,-0.006963688880205154,0.01794986054301262
1761507808907988200,2.40898828125,-0.0779944583773613,-0.0012237783521413803,0.022675640881061554
1761507808928143400,2.429143310546875,-0.08244884759187698,0.0015771212056279182,0.016634594649076462
1761507808948299500,2.449299560546875,-0.0720796063542366,-0.004410985857248306,0.002577277133241296
1761507808968454400,2.469454345703125,-0.05788545683026314,-0.005855520721524954,-0.018774162977933884
1761507808988610300,2.4896103515625,-0.046720437705516815,-0.004356442019343376,-0.03129533305764198
1761507809008765200,2.50976513671875,-0.025379154831171036,0.0004049716517329216,-0.036425307393074036
1761507809028921300,2.52992138671875,-0.013891617767512798,0.007287577725946903,-0.02877689339220524
1761507809049077200,2.5500771484375,-0.008391146548092365,0.020894227549433708,-0.007920118980109692
1761507809069232000,2.570232177734375,-0.011443107388913631,0.005143468268215656,-0.00045817065984010696
1761507809089388300,2.59038818359375,-0.020522886887192726,-0.008464034646749496,-0.0010145376436412334
1761507809109543400,2.61054345703125,-0.023035604506731033,-0.034630775451660156,-0.011072752997279167
1761507809129699300,2.63069921875,-0.02351013943552971,-0.015827007591724396,0.01785006746649742
1761507809149854200,2.650854248046875,-0.017387302592396736,-0.01879916340112686,0.024659911170601845
1761507809170010400,2.67101025390625,-0.004089087713509798,-0.0005809580907225609,0.07334689050912857
1761507809190166300,2.691166259765625,0.001876150956377387,-0.023953191936016083,0.05972990021109581
1761507809210321200,2.711321044921875,0.027991117909550667,-0.019149089232087135,0.06253357976675034
1761507809230477300,2.731477294921875,0.03689057007431984,-0.013738651759922504,0.037000566720962524
1761507809250632200,2.751632080078125,0.054879963397979736,-0.016565369442105293,-0.0018863955046981573
1761507809270788000,2.7717880859375,0.06387321650981903,-0.018280670046806335,-0.0028616897761821747
1761507809290943500,2.791943603515625,0.05440434440970421,-0.025361284613609314,-0.01995350979268551
1761507809311099400,2.812099365234375,0.05901746824383736,-0.027085334062576294,-0.004804618190973997
1761507809331254300,2.832254150390625,0.04871558025479317,-0.02375907450914383,0.00960738305002451
1761507809351410400,2.852410400390625,0.03601735085248947,-0.013060796074569225,0.02210201509296894
1761507809371566300,2.87256640625,0.038418740034103394,-0.014866898767650127,0.010118394158780575
1761507809391721200,2.89272119140625,0.05048227682709694,-0.002284848131239414,0.0034945704974234104
1761507809411877400,2.91287744140625,0.06285188347101212,0.008579225279390812,-0.026668887585401535
1761507809432032300,2.9330322265625,0.08403199166059494,-0.024827681481838226,-0.064054474234581
1761507809452188200,2.953188232421875,0.09824157506227493,-0.05168062821030617,-0.06165946274995804
1761507809472344300,2.97334423828125,0.09017139673233032,-0.03754794970154762,-0.019985219463706017
1761507809492499500,2.99349951171875,0.06494806706905365,-0.023404967039823532,0.03036477044224739
1761507809512655400,3.0136552734375,0.04782288521528244,-0.03864039108157158,0.05507080256938934
1761507809532810200,3.033810302734375,0.03503836691379547,-0.033766139298677444,0.07630914449691772
1761507809552966400,3.05396630859375,0.02714477851986885,-0.024901650846004486,0.06919584423303604
1761507809573121300,3.074121337890625,0.017676953226327896,-0.024484572932124138,0.03721390664577484
1761507809593277200,3.094277099609375,0.012834515422582626,-0.040181152522563934,-0.01050739735364914
1761507809613433300,3.114433349609375,-0.0001145360292866826,-0.04502803832292557,-0.05561855807900429
1761507809633588200,3.134588134765625,-0.020627833902835846,-0.011874797753989697,-0.05616654455661774
1761507809653744000,3.154744140625,-0.040733326226472855,-0.0005295202136039734,-0.0430767647922039
1761507809673899500,3.1748994140625,-0.03732401505112648,0.013487429358065128,-0.027974838390946388
1761507809694055400,3.195055419921875,-0.028165873140096664,0.029727037996053696,-0.010273229330778122
1761507809714210300,3.215210205078125,-0.020495451986789703,0.012700027786195278,0.0027367582079023123
1761507809734366500,3.235366455078125,-0.02254929207265377,0.0039006490260362625,0.01950198784470558
1761507809754522400,3.2555224609375,-0.03004555217921734,0.004824341274797916,0.0399898886680603
1761507809774677200,3.27567724609375,-0.0279238224029541,-0.0017658639699220657,0.03172782436013222
1761507809794833200,3.295833251953125,-0.009650280699133873,-0.009725400246679783,0.0051159728318452835
1761507809814988300,3.31598828125,0.016979482024908066,-0.019517485052347183,-0.016734644770622253
1761507809835143400,3.336143310546875,0.04146323353052139,-0.03867974132299423,-0.010872015729546547
1761507809855298600,3.356298583984375,0.041601985692977905,-0.01633155718445778,0.026389336213469505
1761507809875454500,3.376454345703125,0.03572333976626396,0.002273990772664547,0.050273481756448746
1761507809895610400,3.3966103515625,0.021317778155207634,-0.0007272185757756233,0.060790423303842545
1761507809915765500,3.416765625,0.013424928300082684,-0.030187133699655533,0.044107742607593536
1761507809935921400,3.43692138671875,0.023893602192401886,-0.053129080682992935,0.03196845203638077
1761507809956076300,3.457076171875,0.006141716614365578,-0.04410751536488533,0.020480161532759666
1761507809976232400,3.477232421875,-0.01202581450343132,-0.010894154198467731,0.01737843081355095
1761507809996387600,3.4973876953125,-0.021711193025112152,-0.020231623202562332,0.023696450516581535
1761507810016543500,3.51754345703125,-0.019093308597803116,-0.008062988519668579,0.012160217389464378
1761507810036699600,3.53769970703125,-0.0059213279746472836,-0.010359112173318863,-0.009760130196809769
1761507810056854500,3.5578544921875,0.00496302405372262,-0.016477512195706367,-0.012673227116465569
1761507810077010400,3.578010498046875,-0.00429944135248661,-0.010044886730611324,0.006004223600029945
1761507810097165300,3.598165283203125,-0.016622157767415047,0.002390865236520767,0.024476757273077965
1761507810117321500,3.618321533203125,-0.030445002019405365,-0.007695367559790611,0.03390027582645416
1761507810137476400,3.638476318359375,-0.04248812049627304,-0.009246643632650375,0.03223038092255592
1761507810157632300,3.65863232421875,-0.05331172049045563,-0.005481639876961708,0.02273896150290966
1761507810177788400,3.678788330078125,-0.06091662868857384,0.0002466849982738495,0.00494568794965744
1761507810197943600,3.698943603515625,-0.06356304883956909,-0.000731784850358963,-0.015300304628908634
1761507810218099500,3.719099365234375,-0.05726730823516846,0.0214163139462471,-0.02575756423175335
1761507810238254300,3.73925439453125,-0.03605443239212036,0.022634871304035187,-0.05743207409977913
1761507810258410500,3.759410400390625,-0.01906905137002468,0.021494757384061813,-0.06002077832818031
1761507810278565400,3.7795654296875,-0.001547601306810975,0.02406420186161995,-0.04762699827551842
1761507810298721300,3.79972119140625,0.0003663809038698673,0.030281882733106613,-0.01709778979420662
1761507810318877400,3.81987744140625,0.004315366968512535,0.037399422377347946,0.016754159703850746
1761507810339032300,3.8400322265625,0.01590888202190399,0.021802272647619247,0.03644586354494095
1761507810359188200,3.860188232421875,0.02394816465675831,0.032000623643398285,0.05677379295229912
1761507810379343600,3.880343505859375,0.022961217910051346,0.03210894763469696,0.05268532782793045
1761507810399499500,3.90049951171875,0.01862451434135437,0.03061709925532341,0.01894640363752842
1761507810419655400,3.920655517578125,0.02496364712715149,0.012704660184681416,-0.00847388245165348
1761507810439810600,3.940810546875,0.038054149597883224,0.009081429801881313,-0.025037147104740143
1761507810459966500,3.960966552734375,0.043468087911605835,0.014963020570576191,-0.03850901126861572
1761507810480121300,3.981121337890625,0.0512961708009243,0.009238384664058685,-0.035769540816545486
1761507810500275500,4.001275390625,0.05774473026394844,0.00865110382437706,-0.013247257098555565
1761507810520431600,4.021431640625,0.05620061978697777,0.0018659140914678574,0.009358569048345089
1761507810540587500,4.04158740234375,0.05034036561846733,-0.005211927928030491,0.03286997228860855
1761507810560742400,4.061742431640625,0.033544883131980896,-0.014170629903674126,0.04585247486829758
1761507810580898600,4.081898681640625,0.026907747611403465,-0.03536839038133621,0.041937969624996185
1761507810601053400,4.102053466796875,0.022079400718212128,-0.029072027653455734,0.05404774472117424
1761507810621209300,4.122209228515625,0.015111797489225864,-0.026760242879390717,0.05830693989992142
1761507810641364200,4.1423642578125,0.00653801579028368,-0.031234845519065857,0.05798950791358948
1761507810661520400,4.162520263671875,0.003736920654773712,-0.027001699432730675,0.05702418461441994
1761507810681676300,4.18267626953125,0.0074203284457325935,-0.015004411339759827,0.055906303226947784
1761507810701831400,4.20283154296875,0.01237516663968563,0.004287525080144405,0.03870594874024391
1761507810721987600,4.222987548828125,0.021426934748888016,-0.0014648344367742538,-0.004428965039551258
1761507810742142500,4.243142578125,0.026138363406062126,-0.004067767411470413,-0.02516704425215721
1761507810762298400,4.26329833984375,0.010718109086155891,-0.0005628345534205437,-0.03187987580895424
1761507810782453500,4.28345361328125,-0.01840592920780182,0.007300494238734245,-0.028540033847093582
1761507810802609400,4.303609375,-0.038908809423446655,0.003909079357981682,-0.03743387758731842
1761507810822765300,4.323765380859375,-0.038858480751514435,0.00951808225363493,-0.03118978440761566
1761507810842920400,4.34392041015625,-0.02251996286213398,0.0036551710218191147,-0.021253837272524834
1761507810863076400,4.364076416015625,-0.02453470416367054,0.02212773635983467,0.022501517087221146
1761507810883232500,4.384232421875,-0.03259526193141937,0.04072455316781998,0.020501939579844475
1761507810903388400,4.404388427734375,-0.04244495928287506,0.03324418142437935,0.016457630321383476
1761507810923543600,4.42454345703125,-0.042085956782102585,0.03023115172982216,0.01353819202631712
1761507810943699700,4.44469970703125,-0.04600560665130615,0.04361186921596527,0.010985633358359337
1761507810963854600,4.4648544921875,-0.048254918307065964,0.04231324791908264,0.002841502195224166
1761507810984010500,4.485010498046875,-0.03954101726412773,0.04153523966670036,-0.008968222886323929
1761507811004166700,4.505166748046875,-0.03268101438879967,0.04096788167953491,-0.014278443530201912
1761507811024321500,4.525321533203125,-0.026882771402597427,0.0358123742043972,-0.025895483791828156
1761507811044477400,4.5454775390625,-0.01889410801231861,0.017028331756591797,-0.04123133420944214
1761507811064632600,4.565632568359375,-0.015185919590294361,0.0113032516092062,-0.04049713537096977
1761507811084788500,4.58578857421875,-0.023232392966747284,0.010899784043431282,-0.0370296984910965
1761507811104943600,4.605943603515625,-0.018909553065896034,0.017027491703629494,-0.027124853804707527
1761507811125099800,4.626099853515625,-0.01237467397004366,0.004040451720356941,-0.02267487533390522
1761507811145255700,4.646255615234375,-0.00030919676646590233,0.006247412413358688,-0.02269330620765686
1761507811165410600,4.66641064453125,0.003971775062382221,0.022328993305563927,-0.01690850406885147
1761507811185566700,4.686566650390625,0.013508054427802563,0.008757484145462513,-0.0284041166305542
1761507811205721600,4.7067216796875,0.025863809511065483,-0.027070581912994385,-0.031896814703941345
1761507811225877500,4.72687744140625,0.034709736704826355,-0.03300459682941437,-0.01873992383480072
1761507811246033700,4.74703369140625,0.038390789180994034,-0.002988763153553009,0.022361332550644875
1761507811266188500,4.7671884765625,0.03456458821892738,0.0021828049793839455,0.040383365005254745
1761507811286344400,4.787344482421875,0.046771980822086334,-0.009270718321204185,0.025169342756271362
1761507811306499600,4.80749951171875,0.05996156856417656,-0.025925274938344955,0.009160884656012058
1761507811326655700,4.82765576171875,0.051462069153785706,-0.025980375707149506,0.012280207127332687
1761507811346810600,4.847810546875,0.029290199279785156,-0.018610090017318726,0.02573624812066555
1761507811366966500,4.867966552734375,0.015192524529993534,-0.024573110044002533,0.03277936950325966
1761507811387122700,4.888122802734375,0.0076155527494847775,-0.03279738873243332,0.042687539011240005
1761507811407277600,4.908277587890625,-0.004447242245078087,-0.03103923797607422,0.04801740497350693
1761507811427433500,4.92843359375,-0.02249973639845848,-0.029597681015729904,0.04882342740893364
1761507811447588400,4.94858837890625,-0.03319234400987625,-0.02884809300303459,0.04266717657446861
1761507811467744500,4.96874462890625,-0.03593061491847038,-0.01383854541927576,0.033176034688949585
1761507811487899600,4.988899658203125,-0.03890083730220795,-0.006576717831194401,0.017344577237963676
1761507811508055600,5.0090556640625,-0.037884026765823364,-0.010282600298523903,-0.00212514097802341
1761507811528211700,5.029211669921875,-0.03406187519431114,-0.005858915857970715,-0.008751971647143364
1761507811548366600,5.04936669921875,-0.027340836822986603,0.00010448694229125977,-0.006911656819283962
1761507811568522500,5.0695224609375,-0.02828279510140419,0.0003012539818882942,0.01321862917393446
1761507811588677600,5.089677734375,-0.04495470970869064,0.02922702021896839,0.03689832612872124
1761507811608833500,5.10983349609375,-0.049811262637376785,0.0439780130982399,0.04233288764953613
1761507811628989400,5.129989501953125,-0.03904943913221359,0.024896293878555298,0.02066395804286003
1761507811649144600,5.15014453125,-0.026684092357754707,0.02847912162542343,0.02076912671327591
1761507811669300500,5.170300537109375,-0.021038759499788284,0.05365099012851715,0.020019054412841797
1761507811689455600,5.19045556640625,-0.017923099920153618,0.06156887114048004,0.00928300991654396
1761507811709611800,5.21061181640625,-0.013019946403801441,0.04931600019335747,-0.01400428544729948
1761507811729766700,5.2307666015625,-0.007624940946698189,0.048870641738176346,-0.03358275443315506
1761507811749922600,5.250922607421875,-0.001898056361824274,0.045648109167814255,-0.051285043358802795
1761507811770078700,5.27107861328125,0.007836323231458664,0.030911974608898163,-0.0583958700299263
1761507811790233600,5.291233642578125,0.012454790994524956,0.01745671033859253,-0.04909362643957138
1761507811810389500,5.311389404296875,-0.004626205191016197,0.040020786225795746,-0.027853405103087425
1761507811830544100,5.331544189453125,-0.006780693307518959,0.04271242767572403,-0.009625515900552273
1761507811850700300,5.3517001953125,0.00035124109126627445,0.026755886152386665,-0.010200361721217632
1761507811870855400,5.37185546875,0.016109945252537727,0.015342894941568375,-0.009401467628777027
1761507811891011300,5.39201123046875,0.02120193839073181,0.014568408019840717,-0.0065967021510005
1761507811911167500,5.41216748046875,0.01718214899301529,0.0234617181122303,0.015249669551849365
1761507811931322400,5.432322265625,0.02074279449880123,0.01703839749097824,0.018938397988677025
1761507811951478300,5.452478271484375,0.015352814458310604,0.009540239349007607,0.01000758446753025
1761507811971633400,5.47263330078125,0.0014007873833179474,0.024522986263036728,-0.0161450058221817
1761507811991789300,5.492789306640625,-0.010754965245723724,0.02365877479314804,-0.03107900172472
1761507812011945200,5.5129453125,-0.02276606485247612,0.04285956546664238,-0.0533539280295372
1761507812032100400,5.533100341796875,-0.01855001226067543,0.07185389846563339,-0.09230639785528183
1761507812052256300,5.55325634765625,0.004922844469547272,0.05004432052373886,-0.1156625971198082
1761507812072411400,5.573411376953125,0.0269322507083416,0.03305696323513985,-0.1141967847943306
1761507812092567600,5.593567626953125,0.021488720551133156,0.04163949191570282,-0.07409831881523132
1761507812112722400,5.613722412109375,0.017249030992388725,0.04483424499630928,-0.04982621967792511
1761507812132878300,5.63387841796875,0.021305261179804802,0.03692934662103653,-0.03244711086153984
1761507812153034500,5.654034423828125,0.02879699319601059,0.02032770961523056,-0.015157771296799183
1761507812173189400,5.674189453125,0.041489358991384506,-0.007704394403845072,0.0010208510793745518
1761507812193345300,5.69434521484375,0.05265120044350624,-0.007718509063124657,0.01344742625951767
1761507812213500200,5.714500244140625,0.0722494125366211,-0.005665612407028675,0.017890483140945435
1761507812233656300,5.73465625,0.08356435596942902,-0.006698037963360548,-0.004857881460338831
1761507812253811500,5.7548115234375,0.08723580837249756,-0.027891075238585472,-0.04422036558389664
1761507812273967400,5.77496728515625,0.08953704684972763,-0.05175967141985893,-0.06701500713825226
1761507812294123500,5.79512353515625,0.0830828845500946,-0.04573807492852211,-0.06440620869398117
1761507812314278400,5.8152783203125,0.061744555830955505,-0.0369936004281044,-0.049105335026979446
1761507812334434300,5.835434326171875,0.042796701192855835,-0.0220302976667881,0.0008392396848648787
1761507812354589200,5.855589111328125,0.01466600876301527,-0.013815829530358315,0.02894371561706066
1761507812374745300,5.875745361328125,-0.0000365028390660882,-0.011782812885940075,0.04049675911664963
1761507812394901200,5.8959013671875,-0.011340836063027382,-0.01105616893619299,0.04034831374883652
1761507812415056100,5.91605615234375,-0.017709551379084587,-0.02415279671549797,0.02338191121816635
1761507812435212300,5.93621240234375,-0.028081469237804413,-0.01662738062441349,0.010504715144634247
1761507812455367400,5.956367431640625,-0.03412578999996185,-0.018686257302761078,0.004201926290988922
1761507812475523300,5.9765234375,-0.030160874128341675,-0.005182020366191864,0.016325384378433228
1761507812495678500,5.996678466796875,-0.02103099785745144,0.006205654703080654,0.0164417065680027
1761507812515834400,6.01683447265625,-0.01530815102159977,0.0069942837581038475,-0.0033229654654860497
1761507812535990300,6.036990234375,-0.0027228586841374636,0.0004423484206199646,-0.03436068072915077
1761507812556145400,6.0571455078125,0.015102993696928024,0.014923954382538795,-0.04089617729187012
1761507812576301300,6.07730126953125,0.02686859481036663,0.0136501369997859,-0.0587393194437027
1761507812596456200,6.097456298828125,0.04140440374612808,0.01793883740901947,-0.04733499512076378
1761507812616612400,6.1176123046875,0.04005656763911247,-0.0025671422481536865,-0.042319584637880325
1761507812636767500,6.137767578125,0.035676732659339905,-0.00566808832809329,-0.029051965102553368
1761507812656923400,6.15792333984375,0.03020528331398964,-0.01674305647611618,-0.02293727733194828
1761507812677079600,6.17807958984375,0.028499780222773552,-0.014613152481615543,-0.023946702480316162
1761507812697234400,6.198234375,0.0333336740732193,-0.026727858930826187,-0.029159726575016975
1761507812717390300,6.218390380859375,0.03570098429918289,-0.03612273186445236,-0.028694812208414078
1761507812737545200,6.238545166015625,0.037949755787849426,-0.029670797288417816,-0.023662971332669258
1761507812757701400,6.258701416015625,0.026417216286063194,-0.01623745635151863,0.0002965107560157776
1761507812777857300,6.278857177734375,0.013086998835206032,-0.0002722162753343582,0.0028191639576107264
1761507812798012200,6.29901220703125,0.014125101268291473,-0.0010358253493905067,-0.020311221480369568
1761507812818168300,6.319168212890625,0.028679832816123962,-0.00246498454362154,-0.03913497179746628
1761507812838323500,6.339323486328125,0.037807006388902664,-0.013548514805734158,-0.05035635083913803
1761507812858479600,6.359479736328125,0.023992659524083138,-0.01031517144292593,-0.05077926069498062
1761507812878634500,6.379634521484375,-0.007902393117547035,0.018709085881710052,-0.03618208318948746
1761507812898790400,6.399790283203125,-0.009441189467906952,-0.00929009448736906,-0.004586564376950264
1761507812918946600,6.419946533203125,-0.002490646904334426,-0.011855462566018105,-0.00451287068426609
1761507812939101400,6.440101318359375,-0.00020964781288057566,-0.004955518990755081,-0.0030809054151177406
1761507812959257300,6.46025732421875,0.008929823525249958,-0.012108396738767624,-0.003567057428881526
1761507812979412200,6.480412109375,0.014541639015078545,-0.015925545245409012,-0.00010975822806358337
1761507812999568400,6.500568359375,0.00716067012399435,-0.006809331942349672,0.0016036487650126219
1761507813019724300,6.520724365234375,-0.0021835584193468094,-0.006185207050293684,-0.000967149855569005
1761507813039879400,6.54087939453125,0.005108715035021305,-0.01488112099468708,-0.010229689069092274
1761507813060035600,6.56103564453125,0.014235373586416245,-0.019150327891111374,-0.020796645432710648
1761507813080190500,6.5811904296875,0.01925915852189064,-0.019292233511805534,-0.015487350523471832
1761507813100346400,6.601346435546875,0.02738420106470585,-0.013941796496510506,0.011523711495101452
1761507813120501500,6.62150146484375,0.032055918127298355,-0.008322527632117271,0.04150611162185669
1761507813140657400,6.641657470703125,0.04044512286782265,-0.01267330627888441,0.049990106374025345
1761507813160813300,6.661813232421875,0.040342848747968674,-0.021074313670396805,0.04403402656316757
1761507813180968400,6.681968505859375,0.04631875082850456,-0.019379906356334686,0.03245953842997551
1761507813201124400,6.702124267578125,0.05293189361691475,-0.0197503250092268,0.016931407153606415
1761507813221279500,6.722279541015625,0.05284879356622696,-0.01790725626051426,-0.00777440657839179
1761507813241435600,6.742435546875,0.049576062709093094,-0.020925605669617653,-0.02326204627752304
1761507813261590500,6.762590576171875,0.04381722956895828,-0.02401287481188774,-0.0207435991615057
1761507813281746400,6.782746337890625,0.04031037166714668,-0.025216607376933098,-0.00310403760522604
1761507813301902600,6.802902587890625,0.03740807622671127,-0.028783714398741722,0.015908557921648026
1761507813322057500,6.823057373046875,0.03648209199309349,-0.01801612600684166,0.026039820164442062
1761507813342213400,6.84321337890625,0.04021744057536125,-0.01576606184244156,0.03613877668976784
1761507813362368300,6.8633681640625,0.03390202298760414,-0.010850254446268082,0.05283088982105255
1761507813382524400,6.8835244140625,0.020597130060195923,-0.00048019643872976303,0.055434759706258774
1761507813402680300,6.903680419921875,0.01752515882253647,0.012321259826421738,0.04313965514302254
1761507813422835500,6.92383544921875,0.0137791708111763,0.024931766092777252,0.016235191375017166
1761507813442991600,6.94399169921875,0.017044465988874435,0.018728356808423996,-0.021749144420027733
1761507813463146500,6.964146484375,0.022032566368579865,0.007045869715511799,-0.05546662583947182
1761507813483302400,6.984302490234375,0.022228561341762543,0.011280429549515247,-0.0689535066485405
1761507813503457300,7.004457275390625,0.024737540632486343,0.01761968433856964,-0.06515094637870789
1761507813523613400,7.024613525390625,0.02000644989311695,0.015087910927832127,-0.052832938730716705
1761507813543769300,7.044769287109375,0.022740168496966362,0.015491019003093243,-0.04261554405093193
1761507813563924200,7.06492431640625,0.023510633036494255,-0.005674013402312994,-0.03515564277768135
1761507813584080400,7.085080322265625,0.02563583105802536,-0.0009577013552188873,-0.008059261366724968
1761507813604235500,7.105235595703125,0.03060820698738098,-0.029456093907356262,-0.006949375383555889
1761507813624391400,7.125391357421875,0.04017670080065727,-0.014222654514014721,0.01644010841846466
1761507813644547600,7.145547607421875,0.039495985954999924,-0.03405143320560455,0.0028546552639454603
1761507813664702500,7.165702392578125,0.04795363172888756,-0.039316434413194656,-0.011974379420280457
1761507813684858400,7.1858583984375,0.048927292227745056,-0.03746573626995087,-0.023608215153217316
1761507813705013500,7.206013427734375,0.03871804475784302,-0.024540938436985016,-0.019384246319532394
1761507813725169400,7.22616943359375,0.033021826297044754,-0.010599236935377121,-0.006742149591445923
1761507813745324300,7.24632421875,0.020372334867715836,-0.0031176451593637466,0.015324102714657784
1761507813765480400,7.26648046875,0.004221062641590834,0.0019383663311600685,0.023828642442822456
1761507813785636400,7.28663623046875,-0.007381248287856579,-0.01064124796539545,0.035643573850393295
1761507813805791500,7.30679150390625,-0.020177198573946953,0.0014240425080060959,0.045346472412347794
1761507813825948000,7.326947998046875,-0.02972915768623352,-0.004041601903736591,0.0299424659460783
1761507813846103000,7.34710302734375,-0.03522351756691933,0.0006695948541164398,0.008397411555051804
1761507813866259000,7.367259033203125,-0.030431706458330154,-0.009903859347105026,-0.019769366830587387
1761507813886415000,7.3874150390625,-0.03047272190451622,0.012258554808795452,-0.023851143196225166
1761507813906570000,7.407570068359375,-0.025104567408561707,-0.007487214636057615,-0.04750610142946243
1761507813926726000,7.427725830078125,-0.017258644104003906,-0.01504459884017706,-0.05683552473783493
1761507813946880800,7.447880859375,-0.016180023550987244,-0.027279645204544067,-0.07081923633813858
1761507813967037000,7.468036865234375,-0.020473379641771317,-0.021886711940169334,-0.05918487161397934
1761507813987191800,7.48819189453125,-0.02310134284198284,-0.002278258092701435,-0.02725459262728691
1761507814007347700,7.50834765625,-0.03890321031212807,0.026723872870206833,0.018062304705381393
1761507814027503900,7.52850390625,-0.04574858769774437,0.03213513642549515,0.04067216068506241
1761507814047659000,7.548658935546875,-0.039102159440517426,0.036688677966594696,0.03859061375260353
1761507814067815000,7.56881494140625,-0.02285260520875454,0.02206973358988762,0.020488711073994637
1761507814087970000,7.588969970703125,-0.002707657404243946,0.011509581468999386,0.0013195767533034086
1761507814108126000,7.6091259765625,0.014539772644639015,0.013929062522947788,-0.008466209284961224
1761507814128281900,7.62928173828125,0.01329846866428852,0.009446815587580204,-0.025464052334427834
1761507814148437000,7.64943701171875,0.01566922664642334,0.022121503949165344,-0.011078600771725178
1761507814168593000,7.669593017578125,0.003808551002293825,0.026022613048553467,-0.0032230806536972523
1761507814188747800,7.689747802734375,-0.0029036966152489185,0.03386525809764862,0.011815170757472515
1761507814208904000,7.709904052734375,0.0010199756361544132,0.008280563168227673,-0.0027106658089905977
1761507814229059000,7.73005908203125,0.0025611429009586573,-0.012472530826926231,-0.02889108657836914
1761507814249215000,7.750215087890625,-0.0021760801319032907,-0.012387017719447613,-0.03959149867296219
1761507814269371100,7.77037109375,-0.007522121071815491,-0.008758632466197014,-0.025499237701296806
1761507814289526000,7.790526123046875,-0.005815828684717417,0.0056347930803895,0.004754207096993923
1761507814309682000,7.810681884765625,-0.003787835594266653,0.013980195857584476,0.02179236151278019
1761507814329836800,7.8308369140625,0.008103697560727596,0.011911054141819477,0.02653374895453453
1761507814349993000,7.850992919921875,0.019139036536216736,-0.008851217105984688,0.011804604902863503
1761507814370148900,7.87114892578125,0.020664498209953308,-0.01822185516357422,0.005720596760511398
1761507814390303700,7.8913037109375,0.009650195017457008,-0.003647932782769203,0.025467153638601303
1761507814410460000,7.9114599609375,-0.0027201701886951923,0.022137869149446487,0.04921940714120865
1761507814430615000,7.931614990234375,-0.011629784479737282,0.02973024919629097,0.048540402203798294
1761507814450771000,7.95177099609375,-0.020547380670905113,0.012760093435645103,0.020973769947886467
1761507814470925800,7.97192578125,-0.026455357670783997,0.0026619480922818184,-0.00948777049779892
1761507814491082000,7.99208203125,-0.03245041146874428,-0.0063605229370296,-0.03492828458547592
1761507814511236900,8.01223681640625,-0.02701541595160961,0.002702081575989723,-0.03646509349346161
1761507814531391700,8.032391845703126,-0.01653691940009594,0.02674522064626217,-0.015357154421508312
1761507814551548000,8.0525478515625,-0.0070747132413089275,0.02370164915919304,-0.013098196126520634
1761507814571703800,8.072703857421875,-0.003294355934485793,0.02882823720574379,-0.009622237645089626
1761507814591859000,8.09285888671875,0.010217716917395592,0.002503396011888981,-0.028764940798282623
1761507814612015000,8.11301513671875,0.023816367611289024,-0.016011418774724007,-0.03553197905421257
1761507814632170000,8.133169921875,0.01638348028063774,0.00011916086077690125,-0.0055601997300982475
1761507814652326000,8.153325927734375,-0.005421153269708157,0.02532903105020523,0.03644109517335892
1761507814672482000,8.17348193359375,-0.02084510773420334,0.022416584193706512,0.04351407289505005
1761507814692637000,8.193636962890626,-0.017658386379480362,0.007207256741821766,0.025301987305283546
1761507814712792800,8.213792724609375,-0.014396288432180882,-0.015419291332364082,-0.0011782729998230934
1761507814732947700,8.23394775390625,-0.012222066521644592,-0.01846562884747982,-0.017368357628583908
1761507814753104000,8.254103759765625,-0.012409036979079247,-0.008863653987646103,-0.009782680310308933
1761507814773259800,8.274259765625,-0.017988864332437515,0.000261133536696434,0.010131580755114555
1761507814793415000,8.294414794921876,-0.021052852272987366,-0.00293539185076952,0.01823076419532299
1761507814813571000,8.314571044921875,-0.023104801774024963,0.0008356962352991104,0.022420519962906837
1761507814833726000,8.334725830078124,-0.027060937136411667,0.015175008215010166,0.03191908076405525
1761507814853881900,8.3548818359375,-0.022184163331985474,0.01840105652809143,0.03489602729678154
1761507814874037000,8.375037109375,-0.01816067285835743,0.019906941801309586,0.029791176319122314
1761507814894195000,8.39519482421875,-0.014545931480824947,-0.000370795838534832,0.005300090182572603
1761507814914351000,8.41535107421875,-0.016074063256382942,-0.006633962970227003,-0.0037364184390753508
1761507814934506000,8.435506103515625,-0.01630709134042263,0.00275580957531929,-0.002296979771926999
1761507814954662000,8.455661865234376,-0.023163650184869766,0.004302625544369221,-0.002035651821643114
1761507814974818000,8.475818115234375,-0.01661631651222706,0.010023923590779305,0.006390877068042755
1761507814994973000,8.495972900390624,-0.016187772154808044,0.015014099888503551,0.006863664370030165
1761507815015128800,8.51612890625,-0.012836994603276253,0.009297679178416729,0.005395859945565462
1761507815035284000,8.536283935546875,-0.008579923771321774,0.00467339251190424,0.0038695046678185463
1761507815055440000,8.55643994140625,-0.010430807247757912,0.003628765232861042,-0.000343777472153306
1761507815075595000,8.576594970703125,-0.005554572679102421,-0.009447753429412842,0.010500509291887283
1761507815095751000,8.5967509765625,-0.013840741477906704,0.014141209423542023,0.0245519932359457
1761507815115907000,8.616906982421876,-0.017726538702845573,0.03233581781387329,0.050269078463315964
1761507815136062000,8.63706201171875,-0.017405105754733086,0.004308273084461689,0.032414596527814865
1761507815156217900,8.6572177734375,-0.015490330755710602,-0.0038919318467378616,0.01636413298547268
1761507815176373000,8.677373046875,-0.016927074640989304,-0.00012732762843370438,0.007405981421470642
1761507815196529000,8.69752880859375,-0.018324166536331177,0.004965049214661121,0.007474375888705254
1761507815216684800,8.717684814453126,-0.01713346689939499,0.018229762092232704,0.010586561635136604
1761507815236840000,8.73783984375,-0.013909469358623028,0.011917457915842533,0.00040878611616790295
1761507815256995800,8.757995849609374,-0.0032959538511931896,-0.01695283316075802,-0.01803250052034855
1761507815277151000,8.77815087890625,-0.005238467827439308,-0.00980851799249649,-0.009244819171726704
1761507815297307100,8.79830712890625,-0.013904402032494545,0.005132855847477913,0.012607047334313393
1761507815317463000,8.818463134765626,-0.014759269542992115,0.0023880014196038246,0.01082318089902401
1761507815337618000,8.838617919921875,-0.0165542159229517,-0.010375427082180977,0.0026842523366212845
1761507815357774000,8.858774169921874,-0.00819457694888115,-0.015673065558075905,0.00024162628687918186
1761507815377929000,8.878928955078125,-0.006155376322567463,0.0004579797387123108,0.013045627623796463
1761507815398084900,8.8990849609375,-0.009222806431353092,0.0038692643865942955,0.022470304742455482
1761507815418239700,8.91923974609375,-0.013886560685932636,0.005243947729468346,0.028538625687360764
1761507815438396000,8.93939599609375,-0.030014410614967346,0.0036381566897034645,0.02358529344201088
1761507815458551800,8.9595517578125,-0.032968103885650635,0.009244082495570183,0.015704771503806114
1761507815478707000,8.97970703125,-0.03605096414685249,0.0006877854466438293,-0.003915681503713131
1761507815498863000,8.999863037109375,-0.03966940566897392,0.0033172452822327614,-0.018227459862828255
1761507815519018000,9.02001806640625,-0.037588931620121,0.018314477056264877,-0.009862616658210754
1761507815539174000,9.040173828125,-0.0444551557302475,0.023984037339687347,-0.0070366328582167625
1761507815559330000,9.060330078125,-0.04220793396234512,0.013139900751411915,-0.012164992280304432
1761507815579485000,9.08048486328125,-0.034940168261528015,0.0066502708941698074,-0.01233651489019394
1761507815599640800,9.100640869140625,-0.02133353427052498,0.006619815714657307,-0.017357252538204193
1761507815619796000,9.1207958984375,-0.0108707956969738,0.005374137312173843,-0.009823959320783615
1761507815639952000,9.140951904296875,-0.01637236401438713,0.01906701922416687,0.013968819752335548
1761507815660107000,9.16110693359375,-0.01731429435312748,0.01600757986307144,0.0229814313352108
1761507815680263200,9.18126318359375,-0.015677010640501976,0.015264253132045269,0.02711310237646103
1761507815700419000,9.201419189453125,-0.016911085695028305,0.011073647998273373,0.012956961058080196
1761507815720574000,9.221573974609376,-0.016783272847533226,0.009489585645496845,0.0047205472365021706
1761507815740729900,9.241729736328125,-0.010450282134115696,0.0009759273380041122,-0.014168107882142067
1761507815760885000,9.261885009765624,-0.008931453339755535,0.007609286345541477,-0.020418355241417885
1761507815781041000,9.282041015625,-0.007577225565910339,0.004152408801019192,-0.027539527043700218
1761507815801196800,9.30219677734375,-0.010852938517928123,-0.0005744323134422302,-0.020265311002731323
1761507815821352000,9.32235205078125,-0.010689924471080303,0.017660904675722122,0.005725969560444355
1761507815841507600,9.342507568359375,-0.012307588011026382,0.012810388579964638,0.011302278377115726
1761507815861662700,9.362662841796874,-0.013025274500250816,0.00255785696208477,0.014318183064460754
1761507815881819000,9.38281884765625,-0.019829915836453438,0.01309590507298708,0.006655703764408827
1761507815901974800,9.402974853515625,-0.015204803086817265,0.007324301637709141,-0.003240868914872408
1761507815922129700,9.423129638671876,-0.013186932541429996,-0.010244636796414852,-0.010886456817388535
1761507815942285800,9.443285888671875,-0.017388073727488518,0.00811611395329237,-0.0033571196254342794
1761507815962440700,9.463440673828124,-0.02185550332069397,0.015429805964231491,-0.0013056956231594086
1761507815982596600,9.4835966796875,-0.014056733809411526,0.018016919493675232,-0.012141458690166473
1761507816002751500,9.50375146484375,-0.0018415948143228889,0.0035889940336346626,-0.03214733675122261
1761507816022907600,9.52390771484375,0.011303780600428581,-0.0032703792676329613,-0.031209265813231468
1761507816043063600,9.5440634765625,0.017815489321947098,0.001853100024163723,-0.01577988639473915
1761507816063218700,9.56421875,0.01713371090590954,0.0008070655167102814,0.00386238656938076
1761507816083374800,9.584374755859375,0.00837960559874773,0.0035531343892216682,0.021222025156021118
1761507816103529700,9.60452978515625,-0.0068875085562467575,-0.0026626698672771454,0.027868323028087616
1761507816123685600,9.624685546875,-0.013313693925738335,-0.0006694011390209198,0.0313890278339386
1761507816143841800,9.644841796875,-0.019732430577278137,0.00157253909856081,0.020818231627345085
1761507816163996700,9.66499658203125,-0.015488967299461365,0.004029333591461182,0.0072272829711437225
1761507816184152600,9.685152587890625,-0.019901582971215248,-0.0004097428172826767,-0.0068568335846066475
1761507816204307500,9.705307373046875,-0.024397267028689384,0.008405361324548721,-0.007468811236321926
1761507816224463600,9.725463623046876,-0.02411601133644581,0.016690002754330635,-0.016001073643565178
1761507816244619500,9.74561962890625,-0.018441328778862953,0.00016471091657876968,-0.013880390673875809
1761507816264774700,9.765774658203124,-0.010629772208631039,-0.0008799638599157333,-0.02293584868311882
1761507816284930800,9.785930908203126,-0.004909556359052658,0.01451887283474207,-0.0216696597635746
1761507816305085700,9.806085693359375,0.0004029239062219858,0.020367242395877838,-0.011503657326102257
1761507816325241600,9.82624169921875,-0.004478920251131058,0.0204927958548069,0.0013370886445045471
1761507816345396700,9.846396728515625,-0.008153297007083893,0.01667262427508831,0.010047651827335358
1761507816365552600,9.866552734375,-0.010263849049806595,0.011247645132243633,0.007346359081566334
1761507816385708500,9.88670849609375,-0.010997014120221138,0.0016601858660578728,-0.002912702737376094
1761507816405863700,9.90686376953125,-0.012708630412817001,0.009266518987715244,-0.0032727292273193598
1761507816426019600,9.92701953125,-0.012999175116419792,0.004994649440050125,-0.007484849542379379
1761507816446174700,9.9471748046875,-0.007107468321919441,-0.01281804870814085,-0.019057832658290863
1761507816466331000,9.967330810546875,-0.007277917116880417,-0.009740566834807396,-0.009361715987324715
1761507816486486800,9.98748681640625,-0.006313823629170656,0.010382154025137424,0.005426445044577122
1761507816506641700,10.0076416015625,0.000812506303191185,-0.0018628695979714394,0.0015489074867218733
1761507816526797800,10.0277978515625,0.009157524444162846,-0.01271346677094698,-0.010473167523741722
1761507816546952700,10.04795263671875,0.0017350332345813513,0.0021561328321695328,-0.01693645864725113
1761507816567108600,10.068108642578125,-0.006284801289439201,0.01188704278320074,-0.009357213973999023
1761507816587264800,10.0882646484375,-0.016240520402789116,-0.0007454743608832359,-0.008253841660916805
1761507816607419600,10.108419677734375,-0.033520154654979706,0.012342031113803387,-0.009654907509684563
1761507816627575600,10.128575439453124,-0.046104658395051956,0.036225300282239914,-0.004333628807216883
1761507816647730700,10.148730712890625,-0.04587508365511894,0.02156706154346466,-0.0236956886947155
1761507816667886800,10.168886962890625,-0.02280253916978836,0.03394325077533722,-0.033243194222450256
1761507816688041700,10.189041748046876,-0.0058912066742777824,0.017760753631591797,-0.04293941706418991
1761507816708197600,10.20919775390625,0.011986562982201576,0.008554738014936447,-0.03726442530751228
1761507816728353800,10.229353759765624,0.011272335425019264,0.0062502240762114525,-0.011431589722633362
1761507816748508700,10.2495087890625,-0.006482433062046766,0.006297562271356583,0.017274171113967896
1761507816768664600,10.26966455078125,-0.016557443886995316,0.019746150821447372,0.04328906163573265
1761507816788819700,10.28981982421875,-0.008260885253548622,-0.011519186198711395,0.03437904268503189
1761507816808975600,10.3099755859375,-0.003504463704302907,-0.0007477132603526115,0.02882828749716282
1761507816829131000,10.330131103515624,-0.004403025843203068,0.022548913955688477,0.023320749402046204
1761507816849286100,10.3502861328125,0.003497244091704488,0.017661135643720627,-0.00455192755907774
1761507816869442000,10.370442138671875,0.0026623497251421213,-0.014321498572826385,-0.02999824658036232
1761507816889597000,10.390596923828125,-0.003716174280270934,0.013966423459351063,-0.017219778150320053
1761507816909753000,10.410753173828125,-0.0048160916194319725,0.022559847682714462,0.001254442846402526
1761507816929909000,10.430908935546874,-0.0029747807420790195,0.01817944087088108,0.0078028729185462
1761507816950063900,10.45106396484375,0.0065191518515348434,0.002009669318795204,-0.0021348181180655956
1761507816970220000,10.471219970703125,0.004127616062760353,-0.0027360552921891212,-0.008308066055178642
1761507816990375200,10.491375244140626,-0.004162820987403393,0.019960418343544006,0.013402484357357025
1761507817010531000,10.511531005859375,-0.010616689920425415,0.04156818240880966,0.043862733989953995
1761507817030686200,10.531686279296874,-0.015537174418568611,0.11375883221626282,0.08885746449232101
1761507817050842000,10.551842041015625,-0.02536609396338463,0.13798724114894867,0.14479494094848633
1761507817070998000,10.571998046875,-0.05940155312418938,0.09235700964927673,0.160737082362175
1761507817091153200,10.592153076171876,-0.050144948065280914,0.01681894063949585,0.08563502132892609
1761507817111309000,10.61230908203125,-0.03656894713640213,-0.03759847208857536,-0.03415219485759735
1761507817131464000,10.6324638671875,-0.04461036995053291,-0.004936344921588898,-0.08311961591243744
