time,seconds_elapsed,z,y,x
1761507643923604700,0.089604736328125,0.04878540337085724,0.13214372098445892,0.15575473010540009
1761507643943760600,0.1097607421875,0.026939213275909424,0.24257172644138336,0.22190585732460022
1761507643963916800,0.129916748046875,-0.00009691540617495775,0.35528111457824707,0.27723515033721924
1761507643984071700,0.15007177734375,-0.012883557006716728,0.39148494601249695,0.32289919257164
1761507644004227600,0.1702275390625,0.007134092040359974,0.3226248323917389,0.30150094628334045
1761507644024383700,0.1903837890625,0.004820338916033506,0.3229697346687317,0.3155653774738312
1761507644044539600,0.21053955078125,0.007840360514819622,0.28570348024368286,0.3336055874824524
1761507644064695600,0.230695556640625,0.012402864173054695,0.23909971117973328,0.3071630001068115
1761507644084850700,0.2508505859375,0.028131790459156036,0.20141370594501495,0.2546030580997467
1761507644105006600,0.271006591796875,0.03627227246761322,0.2166001945734024,0.21328723430633545
1761507644125162500,0.29116259765625,0.04007286578416824,0.22629868984222412,0.1655196249485016
1761507644145318700,0.311318603515625,0.055250491946935654,0.19708210229873657,0.09454096108675003
1761507644165473800,0.331473876953125,0.08656500279903412,0.1630469262599945,0.04161319509148598
1761507644185629700,0.351629638671875,0.10576239228248596,0.10635755956172943,-0.01855809986591339
1761507644205785900,0.371785888671875,0.09286178648471832,0.09533470869064331,-0.04675358906388283
1761507644225941800,0.391941650390625,0.07374133914709091,0.07017528265714645,-0.05787036567926407
1761507644246097700,0.41209765625,0.05894347280263901,0.016193032264709473,-0.07493876665830612
1761507644266252800,0.432252685546875,0.041914694011211395,-0.026979878544807434,-0.07405854016542435
1761507644286408700,0.45240869140625,0.0250899288803339,-0.017639335244894028,-0.02272018790245056
1761507644306564600,0.472564697265625,0.016866354271769524,-0.02444332093000412,-0.0018540059681981802
1761507644326720800,0.492720703125,-0.0017294330755248666,-0.06079866364598274,-0.010641106404364109
1761507644346875600,0.512875732421875,-0.008622769266366959,-0.1114649623632431,-0.020963434129953384
1761507644367031600,0.533031494140625,-0.008974839933216572,-0.1309494525194168,-0.013388337567448616
1761507644387187500,0.5531875,-0.014374136924743652,-0.1509947031736374,-0.020160291343927383
1761507644407343400,0.57334326171875,-0.019541487097740173,-0.17022553086280823,-0.04574155434966087
1761507644427498200,0.593498291015625,-0.020859725773334503,-0.17744949460029602,-0.08104164898395538
1761507644447654400,0.613654296875,-0.009961530566215515,-0.14348821341991425,-0.10265544801950455
1761507644467810300,0.633810302734375,0.0025348125491291285,-0.08167286217212677,-0.08522013574838638
1761507644487966500,0.653966552734375,-0.0001373934792354703,-0.06154000386595726,-0.06749929487705231
1761507644508122400,0.674122314453125,-0.0012024177704006433,-0.046003639698028564,-0.0786900445818901
1761507644528277500,0.694277587890625,-0.001594944391399622,-0.06397106498479843,-0.09812170267105103
1761507644548433400,0.714433349609375,-0.000421578879468143,-0.045457422733306885,-0.05440042167901993
1761507644568589600,0.734589599609375,-0.002054882002994418,-0.019907083362340927,-0.012923883274197578
1761507644588745500,0.754745361328125,-0.02203151024878025,-0.012072178535163403,0.04301171749830246
1761507644608900400,0.774900390625,-0.03827280178666115,0.018203718587756157,0.10335458815097809
1761507644629056500,0.795056396484375,-0.03816653788089752,0.011523569002747536,0.10853289067745209
1761507644649212400,0.81521240234375,-0.04030771926045418,0.06918960809707642,0.18444286286830902
1761507644669368600,0.83536865234375,-0.05350158363580704,0.09004852920770645,0.21622513234615326
1761507644689524500,0.8555244140625,-0.05415644869208336,0.04852860048413277,0.19382424652576447
1761507644709679400,0.875679443359375,-0.047072943300008774,0.010500899516046047,0.16037355363368988
1761507644729835500,0.89583544921875,-0.04518130421638489,-0.013382313773036003,0.12229477614164352
1761507644749991400,0.915991455078125,-0.06043270230293274,-0.014446006156504154,0.09745002537965775
1761507644770147300,0.936147216796875,-0.08051160722970963,-0.033433109521865845,0.0430249385535717
1761507644790302500,0.956302490234375,-0.10781114548444748,-0.04695475101470947,-0.009794535115361214
1761507644810458400,0.976458251953125,-0.13671202957630157,-0.03438282385468483,-0.029219815507531166
1761507644830614300,0.9966142578125,-0.15288808941841125,-0.04363493621349335,-0.06810208410024643
1761507644850770400,1.0167705078125,-0.15554723143577576,-0.051385343074798584,-0.10275734961032867
1761507644870926300,1.03692626953125,-0.16242694854736328,-0.007339175324887037,-0.11934543401002884
1761507644891081200,1.057081298828125,-0.15254904329776764,-0.024339299649000168,-0.14396150410175323
1761507644911237400,1.0772373046875,-0.14164979755878448,-0.011477172374725342,-0.13409017026424408
1761507644931393300,1.097393310546875,-0.13919727504253387,0.017623815685510635,-0.10668066889047623
1761507644951549400,1.117549560546875,-0.13215643167495728,0.05443362146615982,-0.0625464990735054
1761507644971704600,1.13770458984375,-0.11157550662755966,0.09063178300857544,-0.042684026062488556
1761507644991860500,1.157860595703125,-0.03736092895269394,0.05563056096434593,-0.054127827286720276
1761507645012016600,1.1780166015625,0.025523748248815536,0.01654892787337303,-0.06583423912525177
1761507645032172500,1.198172607421875,0.06313291192054749,-0.016651369631290436,-0.07673748582601547
1761507645052328400,1.218328369140625,0.07600049674510956,-0.026282761245965958,-0.05888138711452484
1761507645072483300,1.2384833984375,0.06986216455698013,-0.014909970574080944,-0.04984814673662186
1761507645092639500,1.258639404296875,0.07477784901857376,0.019829802215099335,-0.022118663415312767
1761507645112795400,1.27879541015625,0.0691215768456459,0.02588455006480217,0.01754589006304741
1761507645132951600,1.29895166015625,0.07653391361236572,0.027789907529950142,0.027576370164752007
1761507645153106400,1.3191064453125,0.08872509002685547,0.017556175589561462,0.01581723429262638
1761507645173262300,1.339262451171875,0.10766176134347916,-0.0016373097896575928,0.0022100454661995173
1761507645193418500,1.35941845703125,0.10991185903549194,-0.0015517231076955795,-0.001958667067810893
1761507645213574400,1.379574462890625,0.0948098823428154,0.008924156427383423,-0.00956159271299839
1761507645233730300,1.399730224609375,0.07778350263834,-0.009154769591987133,-0.025379886850714684
1761507645253885400,1.419885498046875,0.06425993144512177,-0.0251420047134161,-0.03296883404254913
1761507645274041300,1.440041259765625,0.047227174043655396,-0.0248134545981884,-0.006732416804879904
1761507645294197200,1.460197265625,0.034030936658382416,0.0012844735756516457,0.025420092046260834
1761507645314353400,1.480353515625,0.041033193469047546,0.011080099269747734,0.02227073907852173
1761507645334509300,1.50050927734375,0.052733518183231354,0.009576575830578804,0.002801899565383792
1761507645354664400,1.52066455078125,0.05958506092429161,0.009773757308721542,-0.024715812876820564
1761507645374820900,1.54082080078125,0.05827609822154045,0.026682129129767418,-0.04344961792230606
1761507645394977000,1.56097705078125,0.07306411117315292,0.01530783623456955,-0.050489019602537155
1761507645415133000,1.5811328125,0.07065846771001816,0.0031906943768262863,-0.03738611564040184
1761507645435288000,1.6012880859375,0.07921121269464493,-0.046498969197273254,-0.04341040551662445
1761507645455444200,1.6214443359375,0.06589885801076889,-0.054263025522232056,-0.03580121695995331
1761507645475600100,1.64160009765625,0.05284884572029114,-0.032619375735521317,-0.007564786821603775
1761507645495756000,1.661756103515625,0.05365019664168358,-0.0030376147478818893,0.02247386984527111
1761507645515912000,1.681911865234375,0.057141322642564774,0.03392047435045242,0.05512617528438568
1761507645536067000,1.702067138671875,0.05446349084377289,-0.000883227214217186,0.032118573784828186
1761507645556223000,1.722222900390625,0.06250359863042831,-0.007121192291378975,0.02861868217587471
1761507645576379100,1.742379150390625,0.06335395574569702,0.02949872985482216,0.06833578646183014
1761507645596535000,1.76253515625,0.04414724186062813,0.003978426568210125,0.03452209383249283
1761507645616691200,1.782691162109375,0.03921984136104584,0.001074027270078659,0.012065489776432514
1761507645636846000,1.80284619140625,0.028876934200525284,0.020123645663261414,0.02456488646566868
1761507645657002000,1.823001953125,0.0093698063865304,-0.02399182692170143,-0.024539627134799957
1761507645677158100,1.843158203125,0.0030035183299332857,-0.02584116905927658,-0.04354315996170044
1761507645697314000,1.86331396484375,-0.008672306314110756,-0.02887851744890213,-0.040079887956380844
1761507645717470000,1.883469970703125,-0.010517338290810585,-0.02090662717819214,-0.022046726197004318
1761507645737624800,1.903624755859375,-0.010208167135715485,0.002035134471952915,0.00034559890627861023
1761507645757781000,1.923781005859375,-0.01889646053314209,0.02424415946006775,0.01960855908691883
1761507645777937000,1.94393701171875,-0.017924409359693527,0.02949201688170433,0.03116900846362114
1761507645798093000,1.964093017578125,-0.014292417094111443,0.05818228796124458,0.05603650212287903
1761507645818248000,1.984248046875,-0.013646298088133335,0.06497634947299957,0.07018686830997467
1761507645838403800,2.00440380859375,-0.004713825881481171,0.079215407371521,0.059739358723163605
1761507645858560000,2.02456005859375,0.006676273886114359,0.05116938799619675,0.019866835325956345
1761507645878716000,2.0447158203125,0.02146800048649311,0.02181541547179222,-0.0392918586730957
1761507645898871800,2.064871826171875,0.031872428953647614,-0.0010348455980420113,-0.09411236643791199
1761507645919027200,2.085027099609375,0.03154913708567619,0.009158194065093994,-0.09811752289533615
1761507645939183000,2.10518310546875,0.03698093444108963,0.011463088914752007,-0.09895863384008408
1761507645959339000,2.125339111328125,0.04648120328783989,0.015493740327656269,-0.07778150588274002
1761507645979495200,2.1454951171875,0.04725167900323868,0.021877828985452652,-0.061899714171886444
1761507645999651000,2.165651123046875,0.04345027357339859,0.010470991022884846,-0.05958233401179314
1761507646019806000,2.185805908203125,0.04108058288693428,-0.004403982311487198,-0.06121475249528885
1761507646039962000,2.205962158203125,0.03144287317991257,-0.030853573232889175,-0.06086289882659912
1761507646060118000,2.226117919921875,0.011041170917451382,-0.019378505647182465,-0.04746430367231369
1761507646080274200,2.246274169921875,-0.006676811724901199,-0.004738490097224712,-0.016873018816113472
1761507646100430000,2.26643017578125,-0.015500666573643684,-0.009091818705201149,0.0009280324447900057
1761507646120585000,2.2865849609375,-0.01037381961941719,-0.012263769283890724,0.01580999232828617
1761507646140741000,2.3067412109375,0.0032144428696483374,-0.01665584184229374,0.012188843451440334
1761507646160897000,2.32689697265625,0.012020695023238659,-0.013106337748467922,-0.004118259996175766
1761507646181053000,2.347052978515625,0.0328596755862236,-0.02931533008813858,-0.025185327976942062
1761507646201209000,2.367208984375,0.045008234679698944,-0.03385326266288757,-0.03270823881030083
1761507646221364000,2.387364013671875,0.03847251832485199,-0.00746107054874301,0.0037793556693941355
1761507646241519900,2.407519775390625,0.03271692991256714,-0.009354140609502792,0.0011349599808454514
1761507646261676000,2.427676025390625,0.019459960982203484,-0.015449373982846737,0.012981529347598553
1761507646281832000,2.44783203125,-0.0015965758357197046,-0.020837901160120964,0.024422088637948036
1761507646301987800,2.46798779296875,-0.015748605132102966,-0.012444696389138699,0.03431769832968712
1761507646322143000,2.48814306640625,-0.027198869735002518,-0.02412673644721508,0.023384055122733116
1761507646342299000,2.508298828125,-0.02440601773560047,-0.022541258484125137,0.009717178530991077
1761507646362454800,2.528454833984375,-0.019348949193954468,-0.024420637637376785,0.006460564211010933
1761507646382610700,2.548610595703125,-0.013430333696305752,-0.009027089923620224,0.0007668102625757456
1761507646402766800,2.568766845703125,-0.011589542031288147,-0.002669353038072586,-0.0074975760653615
1761507646422922000,2.588921875,-0.0039324383251369,0.008444227278232574,-0.01893502287566662
1761507646443078000,2.609077880859375,0.005749498028308153,0.009344039484858513,-0.025755194947123528
1761507646463234000,2.629234130859375,0.0032293328549712896,0.016902385279536247,-0.023404356092214584
1761507646483390000,2.649389892578125,-0.0032288632355630398,0.013220516964793205,-0.027615688741207123
1761507646503545900,2.6695458984375,-0.011576773598790169,0.029234545305371284,-0.01513359323143959
1761507646523701000,2.689700927734375,-0.002463998505845666,0.018851902335882187,-0.017145950347185135
1761507646543857000,2.70985693359375,0.01741146482527256,0.02924666740000248,0.006515725515782833
1761507646564012800,2.7300126953125,0.03377072885632515,0.024289950728416443,0.017110029235482216
1761507646584169000,2.7501689453125,0.05008605867624283,0.015458768233656883,0.020074443891644478
1761507646604324900,2.770324951171875,0.05598893761634827,0.014383678324520588,0.028346285223960876
1761507646624479700,2.790479736328125,0.04892519488930702,0.012897061184048653,0.020073745399713516
1761507646644636000,2.810635986328125,0.03890341520309448,0.019785378128290176,0.025182347744703293
1761507646664791800,2.830791748046875,0.022059191018342972,0.008689628913998604,0.01007052417844534
1761507646684948000,2.850947998046875,0.0036399979144334793,0.021987061947584152,0.01908378303050995
1761507646705104000,2.871103759765625,-0.003937210887670517,0.024057991802692413,0.013634391129016876
1761507646725259800,2.891259765625,-0.007939158007502556,0.01188923791050911,-0.0114530548453331
1761507646745415000,2.911414794921875,-0.006771927699446678,0.015721887350082397,-0.026403630152344704
1761507646765570800,2.93157080078125,-0.005366800352931023,0.017342127859592438,-0.030572019517421722
1761507646785726700,2.951726806640625,0.0037142771761864424,0.011527352035045624,-0.03363349661231041
1761507646805883000,2.9718828125,0.00286182202398777,0.007613713853061199,-0.0285780131816864
1761507646826038800,2.992038818359375,-0.00263015809468925,-0.009133069775998592,-0.010842010378837585
1761507646846193700,3.012193603515625,-0.01264204178005457,0.0067107342183589935,0.037717852741479874
1761507646866349800,3.032349853515625,-0.022678716108202934,0.015586808323860168,0.06004346162080765
1761507646886505700,3.052505615234375,-0.025607654824852943,0.021439766511321068,0.07035314291715622
1761507646906662000,3.072661865234375,-0.0321078896522522,0.01194043830037117,0.056587859988212585
1761507646926817800,3.09281787109375,-0.030505191534757614,0.01313893310725689,0.031047750264406204
1761507646946973000,3.112972900390625,-0.022727714851498604,0.008644255809485912,0.028956666588783264
1761507646967129000,3.133129150390625,-0.008172763511538506,-0.006045801565051079,-0.011623757891356945
1761507646987285000,3.153284912109375,0.004776894114911556,0.004654464311897755,-0.01805861108005047
1761507647007441000,3.17344091796875,0.003333989530801773,0.0169762521982193,-0.011197559535503387
1761507647027597000,3.19359716796875,-0.0027513501700013876,0.02695811353623867,-0.014308318495750427
1761507647047753000,3.2137529296875,-0.006224635057151318,0.02600921504199505,-0.005022305995225906
1761507647067907800,3.233907958984375,-0.0038381610065698624,0.006814947351813316,0.0004980801604688168
1761507647088064000,3.25406396484375,-0.003414758713915944,0.004473995417356491,0.015422791242599487
1761507647108220000,3.274219970703125,-0.005509319715201855,-0.014012754894793034,0.009978645481169224
1761507647128375800,3.294375732421875,-0.004534590989351273,-0.007742803078144789,0.021898556500673294
1761507647148532000,3.314531982421875,-0.0048619103617966175,-0.009994172491133213,0.035762254148721695
1761507647168686800,3.334686767578125,-0.004315968602895737,-0.010440687648952007,0.032094746828079224
1761507647188842800,3.3548427734375,-0.0027763687539845705,-0.015336189419031143,0.03110140934586525
1761507647208999000,3.3749990234375,0.001142214983701706,-0.01630293019115925,0.01999613083899021
1761507647229154800,3.39515478515625,0.0027225094381719828,-0.004552983678877354,0.029100390151143074
1761507647249311000,3.41531103515625,0.007497032638639212,-0.008461493998765945,0.025107599794864655
1761507647269467000,3.435466796875,0.013387681916356087,-0.00845555029809475,0.016664346680045128
1761507647289621800,3.455621826171875,0.006698358338326216,-0.01657060720026493,0.006289787590503693
1761507647309778000,3.47577783203125,-0.002365157473832369,0.006737210787832737,0.01328057236969471
1761507647329933800,3.495933837890625,-0.01152888871729374,-0.010377910919487476,-0.004067922942340374
1761507647350089700,3.51608984375,-0.01751459576189518,-0.011966945603489876,-0.018755383789539337
1761507647370246000,3.536245849609375,-0.020855268463492393,0.00041209813207387924,-0.0015591392293572426
1761507647390404000,3.556404052734375,-0.01760057918727398,-0.0014757802709937096,-0.00977161806076765
1761507647410560000,3.57656005859375,-0.012776830233633518,0.01359784509986639,0.0016098247142508626
1761507647430716200,3.596716064453125,-0.006159136071801186,-0.008759530261158943,-0.015221036039292812
1761507647450872000,3.6168720703125,0.00003325100988149643,0.004231762140989304,0.0003105713985860348
1761507647471028000,3.637028076171875,-0.002623260486871004,0.009808208793401718,0.014273704960942268
1761507647491183900,3.657183837890625,-0.018143095076084137,0.01912110298871994,0.01088167168200016
1761507647511339000,3.677339111328125,-0.01632467657327652,0.002115783281624317,0.005693953484296799
1761507647531495200,3.6974951171875,-0.021795591339468956,0.01363476924598217,0.026663104072213173
1761507647551651000,3.717651123046875,-0.03409383445978165,0.02255414053797722,0.05493007227778435
1761507647571807000,3.737806884765625,-0.044664688408374786,0.014305844902992249,0.0357990637421608
1761507647591963100,3.757963134765625,-0.04316028580069542,-0.013688703067600727,-0.011527094058692455
1761507647612119000,3.778119140625,-0.025675572454929352,-0.010236840695142746,-0.020456191152334213
1761507647632274000,3.79827392578125,-0.009726966731250286,-0.014112048782408237,-0.035136085003614426
1761507647652430000,3.81843017578125,0.001885484205558896,0.0016486234962940216,-0.0199136883020401
1761507647672586000,3.8385859375,0.004466889426112175,0.00771512184292078,-0.006728078238666058
1761507647692742100,3.8587421875,0.004174744710326195,0.01659928634762764,0.02163117565214634
1761507647712898000,3.87889794921875,-0.009149065241217613,0.020230084657669067,0.03961320221424103
1761507647733053000,3.899052978515625,-0.025401011109352112,0.02687157317996025,0.0487256720662117
1761507647753209000,3.919208984375,-0.03770614042878151,0.03239917382597923,0.07404576241970062
1761507647773365000,3.939364990234375,-0.034429389983415604,0.03628042712807655,0.08002986758947372
1761507647793521000,3.95952099609375,-0.025926202535629272,0.023814458400011063,0.06618069112300873
1761507647813677000,3.979677001953125,-0.010671899653971195,-0.008295701816678047,0.020479608327150345
1761507647833833000,3.9998330078125,-0.0005894060013815761,-0.03054804354906082,-0.0214970912784338
1761507647853987800,4.01998779296875,0.002231158083304763,-0.028451349586248398,-0.026458991691470146
1761507647874144000,4.04014404296875,0.005634183995425701,-0.009245314635336399,-0.013458029367029667
1761507647894299100,4.060299072265625,0.008320733904838562,0.001095677725970745,-0.008532274514436722
1761507647914455000,4.080455078125,0.009903192520141602,-0.002895921468734741,-0.006754262372851372
1761507647934611200,4.100611083984375,0.01295704860240221,-0.00292256660759449,0.003408462507650256
1761507647954767000,4.12076708984375,0.02107807993888855,-0.01774628274142742,0.007012931630015373
1761507647974923000,4.140923095703125,0.020455190911889076,0.015481587499380112,0.04443967342376709
1761507647995078100,4.161078125,0.01750836707651615,-0.010811218060553074,0.031246228143572807
1761507648015234000,4.181234130859375,0.02284802868962288,-0.005069873295724392,0.03161533176898956
1761507648035390000,4.201389892578125,0.019662613049149513,-0.004171042703092098,0.008378883823752403
1761507648055546000,4.221546142578125,0.01047523133456707,-0.025522615760564804,-0.02494586817920208
1761507648075702000,4.241701904296875,0.00618006382137537,0.003311450593173504,0.001080731162801385
1761507648095858200,4.261858154296875,0.003195464378222823,-0.014047438278794289,-0.028309062123298645
1761507648116013000,4.282012939453125,-0.00008340377826243639,-0.018187206238508224,-0.035272806882858276
1761507648136169000,4.3021689453125,-0.0011789989657700062,-0.008866669610142708,-0.02601134218275547
1761507648156325000,4.3223251953125,-0.0028895605355501175,-0.00910673476755619,-0.013642443343997002
1761507648176481000,4.34248095703125,-0.010262263007462025,-0.012627644464373589,-0.004716943949460983
1761507648196637000,4.362636962890625,-0.003368386533111334,-0.027411144226789474,-0.0030024629086256027
1761507648216793000,4.38279296875,0.0038258179556578398,-0.03181296959519386,0.023605642840266228
1761507648236951000,4.402950927734375,-0.003685080213472247,-0.014477048069238663,0.052697885781526566
1761507648257107000,4.42310693359375,-0.010734181851148605,0.0018150405958294868,0.07775282859802246
1761507648277262000,4.443261962890625,-0.01350653450936079,-0.013251302763819695,0.05263654142618179
1761507648297418200,4.463418212890625,-0.005741541273891926,-0.010201070457696915,0.027172081172466278
1761507648317574100,4.48357421875,0.011218281462788582,-0.013974921777844429,0.0006743140984326601
1761507648337730000,4.50372998046875,0.025858454406261444,-0.0205047857016325,-0.04252026602625847
1761507648357886000,4.523885986328125,0.0375598780810833,-0.019287310540676117,-0.0705452412366867
1761507648378038000,4.5440380859375,0.03920942172408104,-0.0011531617492437363,-0.05972976237535477
1761507648398194000,4.56419384765625,0.028463007882237434,0.016574736684560776,-0.040312428027391434
1761507648418350000,4.58435009765625,0.023936713114380836,0.004830004647374153,-0.036441653966903687
1761507648438506000,4.604506103515625,0.018031693994998932,-0.005289528518915176,-0.02186688594520092
1761507648458662000,4.624661865234375,0.010777770541608334,-0.00906175747513771,-0.018657827749848366
1761507648478818000,4.644818115234375,0.006552405655384064,0.004773267544806004,0.0034784357994794846
1761507648498973000,4.664972900390625,0.0032852564472705126,0.0007768599316477776,0.015600799582898617
1761507648519128800,4.68512890625,0.0005024848505854607,-0.01195850782096386,0.023065263405442238
1761507648539285000,4.705284912109375,-0.007855563424527645,-0.025314103811979294,0.022825751453638077
1761507648559441000,4.72544091796875,0.003196523990482092,-0.04849768429994583,0.014486018568277359
1761507648579597000,4.74559716796875,0.017089195549488068,-0.026474568992853165,0.027183163911104202
1761507648599753000,4.7657529296875,0.023106100037693977,-0.013990592211484909,0.030229292809963226
1761507648619908900,4.785908935546875,0.03155762702226639,-0.02698386274278164,0.01337341032922268
1761507648640063700,4.806063720703125,0.03605275973677635,-0.044331010431051254,-0.0009934322442859411
1761507648660220000,4.826219970703125,0.03611559793353081,-0.03897564858198166,-0.003524604020640254
1761507648680375800,4.846375732421875,0.03371741995215416,-0.02651822194457054,-0.027576960623264313
1761507648700532000,4.866531982421875,0.018301967531442642,-0.04471266269683838,-0.07325853407382965
1761507648720687900,4.88668798828125,0.014692353084683418,-0.05902900919318199,-0.08468769490718842
1761507648740843800,4.90684375,0.014052113518118858,-0.06680741906166077,-0.0746205672621727
1761507648760999000,4.9269990234375,0.004553711041808128,-0.04289736971259117,-0.05494910106062889
1761507648781154800,4.94715478515625,-0.004706135950982571,-0.015619810670614243,-0.0370117612183094
1761507648801310700,4.967310791015625,-0.00847742147743702,-0.011021172627806664,-0.026794102042913437
1761507648821467000,4.987466796875,0.00316750630736351,-0.022856781259179115,-0.01930033601820469
1761507648841622800,5.007622802734375,0.021557191386818886,-0.023207947611808777,-0.008233314380049706
1761507648861779000,5.027779052734375,0.026670187711715698,-0.03123967908322811,-0.01005019061267376
1761507648881933800,5.047933837890625,0.02782381698489189,-0.04476231336593628,-0.015562104992568493
1761507648902089700,5.06808984375,0.026423288509249687,-0.05875259265303612,-0.011393995955586433
1761507648922246000,5.088245849609375,0.024988388642668724,-0.06986730545759201,0.0003988509997725487
1761507648942401800,5.10840185546875,0.021991543471813202,-0.04496516287326813,0.02390880696475506
1761507648962557700,5.1285576171875,0.01716695912182331,-0.02294725552201271,0.026556506752967834
1761507648982713900,5.1487138671875,0.02016354911029339,-0.03780845180153847,0.0014405164401978254
1761507649002869000,5.168868896484375,0.02843557298183441,-0.05086563900113106,-0.011963114142417908
1761507649023025000,5.18902490234375,0.031203946098685265,-0.034191474318504333,-0.009709924459457397
1761507649043181000,5.20918115234375,0.024533512070775032,-0.03567865490913391,-0.01421399973332882
1761507649063337000,5.2293369140625,0.03802936151623726,-0.062286220490932465,-0.03047512285411358
1761507649083493000,5.2494931640625,0.03901764005422592,-0.09100595116615295,-0.0430598147213459
1761507649103649000,5.26964892578125,0.03679366782307625,-0.09247095137834549,-0.05056214705109596
1761507649123804000,5.289803955078125,0.03845386207103729,-0.05643245577812195,-0.041463110595941544
1761507649143959800,5.309959716796875,0.03073497861623764,-0.018224865198135376,-0.03277086466550827
1761507649164116000,5.330115966796875,0.024083442986011505,-0.017451321706175804,-0.037292636930942535
1761507649184272000,5.35027197265625,0.028909070417284966,-0.05252455547451973,-0.06698973476886749
1761507649204428000,5.370427978515625,0.039222974330186844,-0.06542616337537766,-0.11690469086170197
1761507649224584000,5.390583984375,0.04990221932530403,-0.046766385436058044,-0.13955943286418915
1761507649244738800,5.41073876953125,0.03443754464387894,-0.024468569085001945,-0.17593364417552948
1761507649264895000,5.43089501953125,0.02688269130885601,-0.014357793144881725,-0.17707662284374237
1761507649285051000,5.45105078125,0.033054057508707047,-0.0009212428703904152,-0.12632504105567932
1761507649305206800,5.471206787109375,0.023620087653398514,0.042559728026390076,-0.05522836744785309
1761507649325363000,5.491363037109375,0.024899180978536606,0.09866173565387726,0.016102265566587448
1761507649345518800,5.511518798828125,-0.022272873669862747,0.021558312699198723,0.013362251222133636
1761507649365673700,5.531673828125,0.021279150620102882,0.028140289708971977,0.07842827588319778
1761507649385829400,5.551829345703125,0.026458412408828735,0.01672235131263733,0.08761115372180939
1761507649405985300,5.5719853515625,0.03112618252635002,0.013613909482955933,0.0878099873661995
1761507649426141200,5.59214111328125,0.06540770083665848,0.04064710810780525,0.07301697134971619
1761507649446297300,5.61229736328125,0.09036847203969955,0.0016226209700107574,-0.016136329621076584
1761507649466453200,5.632453369140625,0.07833337783813477,0.014802701771259308,-0.07504631578922272
1761507649486608400,5.6526083984375,0.07505182921886444,0.0016640396788716316,-0.10704071819782257
1761507649506764300,5.672764404296875,0.05731246620416641,0.028075451031327248,-0.13407514989376068
1761507649526920200,5.692920166015625,0.03473902493715286,0.04423729330301285,-0.15333899855613708
1761507649547076400,5.713076416015625,0.059908270835876465,0.073113352060318,-0.15254108607769012
1761507649567232300,5.733232177734375,-0.024470509961247444,-0.0018252236768603325,-0.19133305549621582
1761507649587388200,5.75338818359375,-0.01700221747159958,-0.0039218757301568985,-0.1339910328388214
1761507649607543600,5.77354345703125,-0.050274934619665146,0.016432024538517,-0.07406600564718246
1761507649627699500,5.793699462890625,-0.07439014315605164,0.03439883887767792,-0.021186741068959236
1761507649647855400,5.81385546875,-0.07927782833576202,0.03486727550625801,-0.008516115136444569
1761507649668011500,5.834011474609375,-0.08468592911958694,0.01975642889738083,0.007265905849635601
1761507649688167400,5.85416748046875,-0.0803457647562027,0.0273948535323143,0.003214258700609207
1761507649708323600,5.874323486328125,-0.0714939683675766,0.007033356465399265,-0.02438473328948021
1761507649728478500,5.894478515625,-0.06538411974906921,-0.0092746177688241,-0.032707735896110535
1761507649748634400,5.91463427734375,-0.0606016181409359,0.002888304181396961,0.002019084058701992
1761507649768790500,5.93479052734375,-0.06294441223144531,0.02671695128083229,-0.0012825406156480312
1761507649788946400,5.954946533203125,-0.06825847923755646,0.006576390005648136,-0.03040069155395031
1761507649809102300,5.975102294921875,-0.06713411211967468,0.004119912162423134,-0.028486354276537895
1761507649829258500,5.995258544921875,-0.06374840438365936,-0.003918381407856941,-0.03109249658882618
1761507649849414400,6.015414306640625,-0.05273089557886124,0.0031315265223383904,-0.030989861115813255
1761507649869569300,6.0355693359375,-0.04614996910095215,-0.010949840769171715,-0.026271075010299683
1761507649889725400,6.055725341796875,-0.03733145073056221,-0.00957102794200182,-0.017176980152726173
1761507649909881300,6.07588134765625,-0.030884478241205215,-0.011234692297875881,-0.007932720705866814
1761507649930037200,6.096037353515625,-0.02407236024737358,-0.023415299132466316,-0.010198897682130337
1761507649950193400,6.116193359375,-0.020070716738700867,-0.022404342889785767,0.0009299791418015957
1761507649970349300,6.136349365234375,-0.01460533682256937,-0.0166330523788929,0.013244847767055035
1761507649990504200,6.156504150390625,-0.013564852997660637,0.002438838593661785,0.016688978299498558
1761507650010660400,6.176660400390625,-0.019848061725497246,-0.005430345423519611,0.012464800849556923
1761507650030816300,6.196816162109375,-0.0166538804769516,-0.006196566391736269,0.0148239741101861
1761507650050972400,6.216972412109375,-0.02329789660871029,0.011433693580329418,0.024193884804844856
1761507650071128300,6.23712841796875,-0.025852421298623085,0.02158990688621998,-0.003640631912276149
1761507650091284200,6.2572841796875,-0.024867301806807518,0.012544414028525352,-0.04304031282663345
1761507650111439400,6.277439453125,-0.012389604933559895,0.008464645594358444,-0.07173893600702286
1761507650131595300,6.29759521484375,-0.003459244268015027,0.017532017081975937,-0.07841592282056808
1761507650151751200,6.317751220703125,-0.0025316271930933,0.03031430020928383,-0.07284632325172424
1761507650171907300,6.3379072265625,0.0006888804491609335,0.0382329598069191,-0.07222873717546463
1761507650192063200,6.358063232421875,0.010473888367414474,0.014639195054769516,-0.07896606624126434
1761507650212219400,6.378219482421875,0.014448655769228935,-0.008446459658443928,-0.059934865683317184
1761507650232374500,6.39837451171875,0.005681276321411133,-0.0031363079324364662,-0.025408443063497543
1761507650252530400,6.418530517578125,-0.008400758728384972,0.007069628685712814,0.014155913144350052
1761507650272686600,6.4386865234375,-0.020172717049717903,0.011635074391961098,0.0331994853913784
1761507650292842500,6.458842529296875,-0.017372651025652885,-0.005246500484645367,0.037291623651981354
1761507650312998400,6.478998291015625,-0.01597476564347744,-0.010617510415613651,0.03845347464084625
1761507650333154600,6.499154541015625,-0.014600582420825958,-0.017965074628591537,0.023504814133048058
1761507650353309400,6.519309326171875,-0.010226042941212654,-0.026535162702202797,0.01700514554977417
1761507650373465300,6.53946533203125,-0.0031964173540472984,-0.019528064876794815,0.026688946411013603
1761507650393621500,6.55962158203125,-0.0021684083621948957,-0.013371794484555721,0.03506218641996384
1761507650413777400,6.57977734375,-0.006729329004883766,0.0042343102395534515,0.0455830879509449
1761507650433933600,6.59993359375,-0.0065224310383200645,0.0020277323201298714,0.060261357575654984
1761507650454089500,6.62008935546875,-0.011759775690734386,0.006766666658222675,0.05861552059650421
1761507650474245400,6.640245361328125,-0.01417235191911459,0.010451790876686573,0.04529155045747757
1761507650494400300,6.660400146484375,-0.022313639521598816,0.02414567768573761,0.03135279566049576
1761507650514556400,6.680556396484375,-0.03426399827003479,0.035129353404045105,-0.014639032073318958
1761507650534712300,6.70071240234375,-0.04055200144648552,0.043515488505363464,-0.06386294215917587
1761507650554868500,6.720868408203125,-0.03527254983782768,0.04606954753398895,-0.1309221088886261
1761507650575024400,6.7410244140625,-0.03350662812590599,0.027188289910554886,-0.1606232225894928
1761507650595180300,6.76118017578125,-0.032308466732501984,0.03113863803446293,-0.13087406754493713
1761507650615335400,6.78133544921875,-0.0428103506565094,0.047399476170539856,-0.06861603260040283
1761507650635491300,6.8014912109375,-0.0475880466401577,0.043558817356824875,-0.0007446692325174809
1761507650655647200,6.821647216796875,-0.04659845679998398,0.013029762543737888,0.039360012859106064
1761507650675803400,6.841803466796875,-0.04482077807188034,0.013062762096524239,0.08071378618478775
1761507650695959300,6.861959228515625,-0.047087397426366806,0.01126522570848465,0.09297677129507065
1761507650716115500,6.882115478515625,-0.036900825798511505,0.008663957938551903,0.08442572504281998
1761507650736270300,6.902270263671875,-0.025264950469136238,0.0006604120135307312,0.05329248309135437
1761507650756426200,6.92242626953125,-0.01539685484021902,-0.007463135756552219,0.014372955076396465
1761507650776582400,6.94258251953125,-0.006800440605729818,0.006047794595360756,-0.015476320870220661
1761507650796738300,6.96273828125,-0.008780510164797306,-0.0022617457434535027,-0.04578131437301636
1761507650816894200,6.982894287109375,-0.009270290844142437,0.003689330071210861,-0.05730930343270302
1761507650837050400,7.00305029296875,-0.005244893953204155,-0.0063469503074884415,-0.07059741020202637
1761507650857206300,7.023206298828125,0.00010834052227437496,-0.02035563625395298,-0.06569040566682816
1761507650877361400,7.043361328125,0.0009264401160180569,-0.029120121151208878,-0.04604741930961609
1761507650897517600,7.063517578125,0.00772498594596982,-0.020450051873922348,-0.004079718142747879
1761507650917673500,7.083673583984375,0.00885255541652441,-0.0031395787373185158,0.02155839465558529
1761507650937829400,7.103829345703125,0.006373382173478603,0.0005819126963615417,0.03392445296049118
1761507650957985300,7.1239853515625,0.0143559779971838,-0.011342114768922329,0.03282836079597473
1761507650978141200,7.14414111328125,0.022794999182224274,-0.02049202099442482,0.045948922634124756
1761507650998296300,7.16429638671875,0.019983524456620216,-0.010220637544989586,0.04228786379098892
1761507651018452500,7.184452392578125,0.017163457348942757,-0.0031148316338658333,0.034517645835876465
1761507651038608400,7.2046083984375,0.00239573628641665,0.004494489170610905,0.012860134243965149
1761507651058764500,7.2247646484375,-0.017008600756525993,0.00950306374579668,-0.026943325996398926
1761507651078920400,7.24492041015625,-0.02770201489329338,0.010210379958152771,-0.06740681827068329
1761507651099076400,7.265076416015625,-0.03411222994327545,0.03188245743513107,-0.07931340485811234
1761507651119231500,7.2852314453125,-0.03629972040653229,0.031094886362552643,-0.09156765043735504
1761507651139387400,7.305387451171875,-0.036098379641771317,0.023225106298923492,-0.07403041422367096
1761507651159543300,7.325543212890625,-0.04110300913453102,0.007799962535500526,-0.04999874159693718
1761507651179699500,7.345699462890625,-0.04223354533314705,0.009528780356049538,-0.010073686949908733
1761507651199855400,7.36585546875,-0.056255076080560684,-0.006979632657021284,0.00871049053966999
1761507651220011500,7.386011474609375,-0.05729875713586807,0.00782171543687582,0.06629586964845657
1761507651240167400,7.40616748046875,-0.039418045431375504,-0.010907080955803394,0.10155011713504791
1761507651260322300,7.426322265625,-0.019767124205827713,-0.021025260910391808,0.08779875934123993
1761507651280478500,7.446478515625,0.0002185774501413107,-0.016915256157517433,0.07862931489944458
1761507651300634400,7.46663427734375,0.012052075006067753,-0.021756714209914207,0.04847761243581772
1761507651320790300,7.486790283203125,0.019585104659199715,0.008607922121882439,0.04525985196232796
1761507651340946400,7.506946533203125,0.022549735382199287,0.008454523980617523,0.01064594741910696
1761507651361102300,7.527102294921875,0.0347566157579422,0.011377108283340931,-0.018912889063358307
1761507651381257200,7.54725732421875,0.052512697875499725,0.0007300693541765213,-0.02610512636601925
1761507651401413400,7.567413330078125,0.06217331439256668,0.012242339551448822,-0.013231955468654633
1761507651421569300,7.5875693359375,0.06284256279468536,-0.0031746160238981247,-0.007694941945374012
1761507651441725400,7.607725341796875,0.05877725034952164,-0.013938622549176216,0.017625045031309128
1761507651461881300,7.62788134765625,0.043915994465351105,-0.004163116216659546,0.03689577057957649
1761507651482037200,7.648037353515625,0.029233159497380257,-0.006353716365993023,0.05008026957511902
1761507651502193400,7.668193359375,0.022568095475435257,-0.02710495889186859,0.04656808823347092
1761507651522348300,7.688348388671875,0.008337223902344704,-0.026128727942705154,0.045499593019485474
1761507651542504200,7.708504150390625,-0.016338057816028595,-0.01076079998165369,0.019471194595098495
1761507651562660400,7.728660400390625,-0.026873229071497917,-0.0039228033274412155,-0.03183143213391304
1761507651582816300,7.748816162109375,-0.021949291229248047,-0.014304667711257935,-0.07788821309804916
1761507651602972200,7.76897216796875,-0.01548154465854168,-0.012532505206763744,-0.09094975888729095
1761507651623128300,7.78912841796875,-0.011798389256000519,0.015857143327593803,-0.06211568042635918
1761507651643283500,7.809283447265625,-0.013167238794267178,0.027163708582520485,-0.03754173591732979
1761507651663439400,7.829439453125,-0.010142428800463676,0.014714019373059273,-0.010404476895928383
1761507651683595500,7.849595458984375,-0.003680297639220953,0.010060795582830906,0.03245190158486366
1761507651703751400,7.86975146484375,-0.0003222892992198467,0.020662454888224602,0.07163899391889572
1761507651723907600,7.889907470703125,0.013696582056581974,0.025518249720335007,0.08174560219049454
1761507651744063500,7.9100634765625,0.027851251885294914,0.009726312942802906,0.06725185364484787
1761507651764218400,7.93021826171875,0.04147493839263916,0.0036731092259287834,0.04163188487291336
1761507651784374500,7.95037451171875,0.04065977409482002,0.0005888668820261955,0.013112669810652733
1761507651804530400,7.970530517578125,0.034158170223236084,0.003826773725450039,-0.008746067062020302
1761507651824686300,7.990686279296875,0.03177625685930252,-0.0003938693553209305,-0.017379844561219215
1761507651844840200,8.010840087890625,0.027042482048273087,0.004680612124502659,-0.01632183976471424
1761507651864995600,8.03099560546875,0.031086234375834465,0.00850006565451622,-0.0038919823709875345
1761507651885151500,8.0511513671875,0.035409074276685715,0.010704011656343937,0.005121185444295406
1761507651905307400,8.071307373046874,0.03561144322156906,0.008880971930921078,0.006475942209362984
1761507651925463600,8.091463623046875,0.03309633955359459,0.0092627527192235,0.010856417939066887
1761507651945619500,8.111619384765625,0.03125482797622681,0.004139562137424946,0.026644259691238403
1761507651965775600,8.131775634765624,0.025921285152435303,0.014978130348026752,0.03060487098991871
1761507651985931500,8.151931640625,0.015651077032089233,0.01652662083506584,0.02893432043492794
1761507652006086400,8.17208642578125,0.009314306080341339,0.013141827657818794,0.01364471297711134
1761507652026242600,8.19224267578125,0.004710531327873468,0.010374686680734158,-0.0034796656109392643
1761507652046398500,8.2123984375,0.0004145861603319645,0.027597617357969284,-0.010579120367765427
1761507652066554400,8.232554443359374,0.001116060884669423,0.04262366145849228,-0.022345248609781265
1761507652086710500,8.25271044921875,0.007486652582883835,0.04019436240196228,-0.03831338509917259
1761507652106866400,8.272866455078125,0.008011480793356895,0.03511517494916916,-0.06283839792013168
1761507652127021300,8.293021240234374,0.01736956648528576,0.019190846011042595,-0.07612328976392746
1761507652147177500,8.313177490234375,0.020361417904496193,0.009550990536808968,-0.05865800753235817
1761507652167333400,8.33333349609375,0.018245527520775795,0.00225074402987957,-0.019718436524271965
1761507652187489300,8.3534892578125,0.005026123486459255,0.00822382140904665,0.029563574120402336
1761507652207645400,8.3736455078125,-0.0039026534650474787,0.010542454198002815,0.05908128619194031
1761507652227801300,8.39380126953125,-0.006640897132456303,-0.003857855685055256,0.05270187556743622
1761507652247957500,8.41395751953125,-0.000435500405728817,-0.022919483482837677,0.03697902336716652
1761507652268113400,8.434113525390625,0.008252827450633049,-0.028774209320545197,0.023641159757971764
1761507652288269300,8.454269287109375,0.013387658633291721,-0.010356307029724121,0.021409060806035995
1761507652308425500,8.474425537109376,0.012582034803926945,-0.0012977253645658493,0.016331572085618973
1761507652328581400,8.494581298828125,0.007693003863096237,0.00748058594763279,-0.0008431538008153439
1761507652348736300,8.514736328125,0.008850145153701305,-0.0036559971049427986,-0.014476957730948925
1761507652368892400,8.534892333984375,0.008181478828191757,-0.0026961686089634895,-0.017819741740822792
1761507652389048800,8.555048828125,0.0009426737669855356,0.010929837822914124,-0.018353577703237534
1761507652409204700,8.575204833984374,-0.003960428759455681,0.015779145061969757,-0.017851687967777252
1761507652429361000,8.59536083984375,-0.00043627258855849504,0.011242056265473366,-0.024438269436359406
1761507652449516800,8.615516845703125,0.001922996947541833,0.002238909713923931,-0.02567421831190586
1761507652469672700,8.635672607421874,0.005956646054983139,-0.0022167619317770004,-0.008553845807909966
1761507652489827800,8.655827880859375,0.005597068462520838,-0.0020117834210395813,0.008074196055531502
1761507652509983700,8.675983642578124,0.0025648532900959253,-0.00440775603055954,0.02218046598136425
1761507652530139600,8.6961396484375,0.008994249626994133,0.006174144335091114,0.03995407000184059
1761507652550295800,8.7162958984375,0.013541024178266525,0.0001791892573237419,0.04246050491929054
1761507652570451700,8.73645166015625,0.01765080913901329,0.004281661473214626,0.03522038459777832
1761507652590607600,8.756607666015626,0.01648835837841034,-0.009935954585671425,0.015554994344711304
1761507652610762800,8.7767626953125,0.009900231845676899,0.00024238042533397675,0.006627279333770275
1761507652630918700,8.796918701171874,0.0012979311868548393,-0.0019587017595767975,-0.0003378954716026783
1761507652651074600,8.817074462890625,-0.004424897022545338,0.018395092338323593,0.00420287624001503
1761507652671230700,8.837230712890625,-0.009634573012590408,0.011181388981640339,-0.01396920345723629
1761507652691386600,8.85738671875,-0.004559129476547241,0.010359859094023705,-0.02146741934120655
1761507652711542800,8.877542724609375,-0.005498177371919155,0.01076161116361618,-0.019419072195887566
1761507652731698700,8.89769873046875,-0.00355244567617774,0.019308824092149734,-0.009355543181300163
1761507652751853800,8.917853759765626,-0.006235301028937101,0.006402154453098774,-0.01939818635582924
1761507652772009700,8.938009765625,0.002956845099106431,0.0013325829058885574,-0.009942572563886642
1761507652792165600,8.95816552734375,0.000004198402166366577,-0.003766571171581745,0.01067801658064127
1761507652812321500,8.978321533203125,-0.005694942083209753,-0.00032330770045518875,0.03145570680499077
1761507652832477700,8.998477783203125,-0.012303082272410393,0.00014740228652954102,0.03287159651517868
1761507652852633600,9.018633544921874,-0.017486633732914925,-0.00028156861662864685,0.017919521778821945
1761507652872788700,9.038788818359375,-0.007853210903704166,-0.009150044992566109,-0.008989867754280567
1761507652892945000,9.05894482421875,-0.0034195901826024055,-0.0043347300961613655,-0.022925743833184242
1761507652913100800,9.079100830078126,0.002561363857239485,-0.0039061633870005608,-0.023541223257780075
1761507652933257000,9.099257080078125,0.007028302177786827,-0.00012431573122739792,-0.004459502175450325
1761507652953412900,9.119412841796875,0.009576672688126564,0.0017985831946134567,0.013736210763454437
1761507652973568800,9.13956884765625,0.009388628415763378,0.009158965200185776,0.02621128037571907
1761507652993725000,9.159724853515625,0.009247214533388615,-0.0011032605543732643,0.02524375356733799
1761507653013879800,9.1798798828125,0.014259794726967812,-0.003005494363605976,0.02529868856072426
1761507653034035700,9.20003564453125,0.013199337758123875,0.004273225553333759,0.02146971970796585
1761507653054191900,9.22019189453125,0.00822592992335558,0.00415125023573637,0.013311024755239487
1761507653074347800,9.24034765625,0.013896295800805092,-0.007936932146549225,-0.001121807610616088
1761507653094503700,9.260503662109375,0.01666863076388836,-0.005215480923652649,0.00018514948897063732
1761507653114659800,9.280659912109375,0.015002312138676643,-0.00268664862960577,0.0028934928122907877
1761507653134814700,9.300814697265626,0.017697174102067947,0.008759565651416779,0.014070067554712296
1761507653154970600,9.320970703125,0.012496029026806355,0.02342207357287407,0.023370711132884026
1761507653175126800,9.341126708984374,0.005472474731504917,0.019194304943084717,0.01924600824713707
1761507653195282700,9.36128271484375,0.004823173861950636,0.012877312488853931,0.016595155000686646
1761507653215438800,9.38143896484375,0.004376325756311417,0.0082571841776371,0.008895983919501305
1761507653235594800,9.4015947265625,0.0028923875652253628,0.010168472304940224,0.002903896616771817
1761507653255750700,9.421750732421875,0.0024641675408929586,0.005698206834495068,-0.0012352988123893738
1761507653275905800,9.44190576171875,0.00293421046808362,-0.0002572815865278244,0.0008091579657047987
1761507653296061700,9.462061767578126,-0.005122934002429247,0.003587407059967518,0.004468983970582485
1761507653316217600,9.482217529296875,-0.013131835497915745,0.009497205726802349,-0.001719195395708084
1761507653336373800,9.502373779296875,-0.019851265475153923,0.013339177705347538,-0.009710878133773804
1761507653356529700,9.52252978515625,-0.018985457718372345,0.005262418650090694,-0.022389784455299377
1761507653376685800,9.542685791015625,-0.006357538513839245,0.00512547604739666,-0.019274597987532616
1761507653396840400,9.56284033203125,-0.0032392670400440693,-0.005086742341518402,-0.02399236150085926
1761507653416996400,9.582996337890625,0.005890294443815947,0.002062576822936535,-0.023944616317749023
1761507653437152500,9.603152587890625,0.005393063649535179,-0.011675456538796425,-0.01957026682794094
1761507653457308400,9.623308349609376,0.011589249595999718,-0.0374690480530262,-0.011422663927078247
1761507653477464300,9.64346435546875,0.015611127018928528,-0.026118621230125427,0.01565738022327423
1761507653497620200,9.6636201171875,0.01422707736492157,-0.02814328297972679,0.029259424656629562
1761507653517776400,9.6837763671875,0.015802040696144104,-0.02184288389980793,0.02948792837560177
1761507653537931500,9.703931640625,0.018506793305277824,-0.014688035473227501,0.01565563678741455
1761507653558087400,9.72408740234375,0.02376597747206688,-0.018093526363372803,-0.007407862693071365
1761507653578243600,9.74424365234375,0.038832832127809525,-0.021957751363515854,-0.01909705065190792
1761507653598399500,9.7643994140625,0.03483966737985611,-0.015790199860930443,-0.01632094755768776
1761507653618555400,9.784555419921874,0.02720174379646778,-0.005934885703027248,0.0028793364763259888
1761507653638711600,9.804711669921875,0.019328083842992783,0.0031552622094750404,0.01295358408242464
1761507653658866400,9.824866455078125,0.02153184823691845,-0.001660841517150402,0.01619410142302513
1761507653679022300,9.845022216796876,0.016280630603432655,0.002676732838153839,0.01904478296637535
1761507653699178500,9.865178466796875,0.003585330443456769,0.00800999067723751,0.010078081861138344
1761507653719334400,9.88533447265625,0.0003684982657432556,0.0017923088744282722,-0.010957961902022362
1761507653739490300,9.905490234375,0.012218018993735313,0.0025224490091204643,-0.03997792676091194
1761507653759646500,9.925646484375,0.018735527992248535,0.011932688765227795,-0.043275900185108185
1761507653779802400,9.94580224609375,0.02020771987736225,0.014519108459353447,-0.03643079474568367
1761507653799957200,9.965957275390625,0.02118140086531639,0.014326933771371841,-0.018787361681461334
1761507653820113400,9.986113525390625,0.0254520270973444,0.005206512287259102,-0.005685313139110804
1761507653840269300,10.006269287109374,0.019003717228770256,0.009046834893524647,0.010172762908041477
1761507653860425500,10.026425537109375,0.01664550229907036,-0.00007175467908382416,0.019301151856780052
1761507653880581400,10.046581298828125,0.011419294402003288,-0.002223791554570198,0.027854502201080322
1761507653900737300,10.0667373046875,0.013145837001502514,-0.0032061580568552017,0.030615806579589844
1761507653920892400,10.086892333984375,0.011312245391309261,-0.0076218051835894585,0.019439266994595528
1761507653941048300,10.10704833984375,0.013110953383147717,-0.020579470321536064,0.0037043322809040546
1761507653961204200,10.127204345703126,0.011092511005699635,-0.025159232318401337,0.00104007706977427
1761507653981360400,10.1473603515625,0.006481006741523743,-0.013070324435830116,0.0015415097586810589
1761507654001516300,10.167516357421874,0.008260762318968773,-0.005140464752912521,-0.016743002459406853
1761507654021672400,10.18767236328125,0.01174209825694561,-0.004295315593481064,-0.031125452369451523
1761507654041828400,10.207828369140625,0.01324622891843319,0.009353098459541798,-0.02003706991672516
1761507654061983200,10.227983154296876,0.0021253954619169235,0.01876458153128624,-0.02744896709918976
1761507654082139400,10.248139404296875,0.004745393060147762,0.006319202482700348,-0.04647423326969147
1761507654102295300,10.26829541015625,0.007393933832645416,-0.0017346646636724472,-0.04334450513124466
1761507654122451200,10.288451171875,0.002878799568861723,0.005954424850642681,-0.014381136745214462
1761507654142607400,10.308607421875,-0.009059584699571133,0.01642012596130371,0.011841475032269955
1761507654162763300,10.32876318359375,-0.014975031837821007,0.020807936787605286,0.004491354338824749
1761507654182918400,10.34891845703125,-0.005749829113483429,0.0054479241371154785,-0.023522047325968742
1761507654203074600,10.369074462890625,0.0069291852414608,0.0007928768172860146,-0.03662319853901863
1761507654223230500,10.38923046875,0.013824115507304668,0.0005783550441265106,-0.037292931228876114
1761507654243386400,10.409386474609375,0.01828281581401825,0.005151811987161636,-0.034495748579502106
1761507654263542500,10.42954248046875,0.021703369915485382,0.0207047238945961,-0.028672033920884132
1761507654283698400,10.449698486328124,0.010979630053043365,0.023049894720315933,-0.039811670780181885
1761507654303854600,10.4698544921875,0.002041781321167946,0.008298838511109352,-0.017531799152493477
1761507654324009500,10.490009521484374,-0.008128577843308449,0.0067704180255532265,-0.00020859204232692719
1761507654344165400,10.510165283203126,-0.020131947472691536,-0.010066162794828415,0.017765643075108528
1761507654364321500,10.530321533203125,-0.017849111929535866,-0.00933070294559002,0.01977766677737236
1761507654384477700,10.550477783203124,-0.014176080003380775,0.018417038023471832,0.02718178741633892
1761507654404633600,10.570633544921876,-0.002381151309236884,0.00813224446028471,0.012687034904956818
1761507654424789800,10.590789794921875,0.01226059254258871,0.007830568589270115,-0.003105491865426302
1761507654444944600,10.610944580078124,0.014851303771138191,0.010897433385252953,-0.010734505020081997
1761507654465100500,10.6311005859375,0.024853605777025223,0.011374713853001595,-0.023224180564284325
1761507654485256700,10.651256591796875,0.028839323669672012,0.014260482043027878,-0.012163760140538216
1761507654505412600,10.67141259765625,0.026200631633400917,0.015465863049030304,-0.0032866911496967077
1761507654525568800,10.69156884765625,0.021540923044085503,0.014269323088228703,0.008622923865914345
1761507654545724700,10.711724609375,0.018989868462085724,0.024162139743566513,0.018197666853666306
1761507654565880600,10.731880615234376,0.023683464154601097,0.004341247491538525,0.01502971537411213
1761507654586035700,10.75203564453125,0.019806671887636185,0.01929067075252533,0.07330869138240814
1761507654606191600,10.772191650390624,0.013083238154649734,-0.06506559997797012,0.07770994305610657
1761507654626347500,10.792347412109375,0.0070157768204808235,-0.07809282839298248,0.05744931846857071
1761507654646503700,10.812503662109375,-0.007361819967627525,-0.03749983385205269,0.07766283303499222
1761507654666659600,10.83265966796875,0.012534912675619125,-0.011639194563031197,0.0458078607916832
1761507654686815700,10.852815673828125,0.013444647192955017,-0.0001839175820350647,-0.042032793164253235
1761507654706970600,10.872970703125,0.03336910530924797,-0.0395900197327137,-0.14871592819690704
