time,seconds_elapsed,z,y,x
1761432006163970000,0.076969970703125,-0.11095452962219715,-1.4781360320299863,-0.7096214106477796
1761432006183913000,0.096912841796875,0.44808454376161094,-1.7314783404141663,-0.7945761143557727
1761432006203856000,0.11685595703125,0.41980420569479465,-1.735482899880409,-0.8546594847228377
1761432006223799000,0.136799072265625,0.050609074252843854,-1.723138674353063,-0.7856770608462392
1761432006243740700,0.15674072265625,-0.17864917871057986,-1.5866197876244783,-0.9100207950040697
1761432006263683800,0.176683837890625,0.07097264784574508,-1.305819563472271,-0.9951676602832973
1761432006283626800,0.196626708984375,0.035002924320101735,-1.0721569380700589,-0.9226307587955146
1761432006303570000,0.21656982421875,-0.20718378379940985,-0.8419763095647096,-0.6582448591537773
1761432006323512800,0.236512939453125,-0.4801864859431982,-0.7150628710493445,-0.37122415305152534
1761432006343455700,0.256455810546875,-0.7533738970041275,-0.7968503428980708,0.1401154773152899
1761432006363398000,0.27639794921875,-1.2149866153806448,-1.1660399213820696,0.8872652117080986
1761432006383340800,0.2963408203125,-1.6525205390334128,-1.4154194636151194,1.0566799674749374
1761432006403283700,0.31628369140625,-1.5892682563066483,-1.3791232846140862,0.47921358579043294
1761432006423227000,0.336226806640625,-1.1796084280073642,-1.2595181232854724,0.003004643442388624
1761432006443169800,0.356169677734375,-0.9018751902103423,-0.7613169649630784,0.3466899427104741
1761432006463112700,0.37611279296875,-0.6951333049595355,0.05491407797038555,0.5906987516906113
1761432006483054800,0.396054931640625,-0.3259416806489229,0.25122984627485273,1.0015217054851353
1761432006502997800,0.415997802734375,0.1595335593521595,0.032630934491753576,1.1588030289310962
1761432006522941000,0.43594091796875,0.6161521227031945,-0.12484949172288179,0.8072890270650387
1761432006542883800,0.4558837890625,1.0551432594269514,-0.19366379249095916,0.6609117402754724
1761432006562826800,0.47582666015625,1.3633487923771141,-0.16116145281493663,0.5318093403484672
1761432006582771700,0.495771728515625,1.4880851791143417,0.039298575687408445,0.13423307734634726
1761432006602715000,0.51571484375,1.2868155877947807,0.5047971955865621,-0.10856971684489398
1761432006622657800,0.53565771484375,1.1818091529220343,0.7926999452203511,0.4049073730751872
1761432006642600700,0.5556005859375,1.4551953014254568,0.6693029903933405,0.6499999587040394
1761432006662544000,0.5755439453125,1.7518892602801321,0.27649580495655535,0.20779283734215423
1761432006682486800,0.59548681640625,1.386514563909173,-0.24941782841682433,-0.3888119783207774
1761432006702429000,0.615428955078125,0.6995388464421033,-0.5597594966128469,-0.5146691857814788
1761432006722371800,0.635371826171875,0.575050296986103,-0.613581395432353,-0.4101082661865279
1761432006742314800,0.655314697265625,0.6612988398969173,-0.46358401844948527,-0.364281530839391
1761432006762258000,0.6752578125,0.035215105766057964,-0.1333949094891548,-0.3440124671295285
1761432006782200800,0.695200927734375,-0.651125820928812,0.23236527906805277,0.046622470568399875
1761432006802143000,0.71514306640625,-0.26679274158775806,0.3752461020439863,0.4244810383994132
1761432006822086000,0.7350859375,0.08338321660757064,0.11239099216610192,0.15375367904277518
1761432006842028800,0.75502880859375,-0.11432079118490218,-0.29862989535331724,-0.6972617683555931
1761432006861972000,0.774971923828125,-1.151273729404807,-0.5025336345687508,-1.1126841057043522
1761432006881915000,0.794914794921875,-2.5314479843765496,-1.4056310600504278,0.1680832331684418
1761432006901857800,0.81485791015625,-2.5227421153515577,-1.7261399019956587,0.6315501097779721
1761432006921799700,0.834799560546875,-0.9461936398863792,-1.2958502503827214,-0.2960019945351407
1761432006941742600,0.85474267578125,0.35392157446444034,-0.39400048687458034,-1.8105017543770372
1761432006961685800,0.874685791015625,-0.6288847630262374,1.1318541586637496,-2.5029823528707027
1761432006981628700,0.894628662109375,-2.3007260886013507,1.5061960053443908,-0.656217298848927
1761432007001571600,0.914571533203125,-2.0151000517278908,1.1763561482131482,0.829389288257435
1761432007021513700,0.934513671875,-0.47309331281185146,1.006995022329688,0.34336193079892546
1761432007041456600,0.95445654296875,0.812571935904026,0.21293898632526395,-0.4133193737201392
1761432007061399800,0.97439990234375,1.8012696695208548,-0.27914222781211134,-0.79866542949602
1761432007081342700,0.9943427734375,2.1148405288964507,-0.4935217683345079,-0.7287354956362396
1761432007101285600,1.01428564453125,1.8449317011147737,-0.20970102731734513,-0.47255390870552505
1761432007121228800,1.034228759765625,1.390945824354887,0.2904454198539257,-0.36940161379948255
1761432007141170700,1.054170654296875,1.1720973217248916,0.4736988774895668,-0.3010528116513043
1761432007161113900,1.07411376953125,1.1136351958841084,0.5845312420368194,-0.23915603518672285
1761432007181056800,1.094056884765625,1.215273615628481,0.3196364430248737,-0.07240883639501407
1761432007200999700,1.113999755859375,1.027826797956228,-0.07741612489670514,-0.27651098425937815
1761432007220942800,1.13394287109375,0.9506418514668941,-0.3828960322752595,-0.4896174543723464
1761432007240884700,1.153884765625,0.9299228885650634,-0.4902703653231263,-0.5332802531512454
1761432007260828000,1.173827880859375,0.7522597982823849,-0.4312973673507571,-0.5548363244643435
1761432007280770800,1.193770751953125,0.3733323773771524,-0.2879863362640142,0.06751889066267758
1761432007300713700,1.213713623046875,0.06892272957861423,-0.31018121693730355,0.45733927884101866
1761432007320657000,1.233656982421875,-0.2902659716337919,-0.33885230788737536,0.06534019491672516
1761432007340599800,1.253599853515625,-0.3733364690303802,-0.5641966022774577,-0.30301289621051397
1761432007360541700,1.273541748046875,-0.584312046328187,-1.3818427727058529,0.19286719875317065
1761432007380484900,1.29348486328125,-0.7370850255042314,-1.640332673111558,0.049180795015394685
1761432007400427800,1.313427734375,-0.8348989185243845,-1.227751696668565,-0.42674891026616096
1761432007420371000,1.333370849609375,-0.622191987389326,-1.3699500903382897,0.07284454266484826
1761432007440313900,1.35331396484375,-0.43734161595106125,-1.3202026013508439,-0.14327581364288924
1761432007460255700,1.373255859375,-0.1648100384503603,-0.5182850381910801,-0.7509666897319257
1761432007480199000,1.393198974609375,-0.0929185221940279,0.2702376213446259,-0.6202087776828556
1761432007500141800,1.413141845703125,-0.20018764130175112,-0.024415771593153474,0.5071131443787366
1761432007520084700,1.433084716796875,-0.008795885396003723,-0.4464218712463975,0.40512163688037545
1761432007540028000,1.45302783203125,0.21736381703019142,-0.574699583852291,-0.4292965489223599
1761432007559969500,1.472969482421875,0.6286515387922526,-0.4829965749278664,-0.21294567179437726
1761432007579910000,1.492909912109375,0.6911556335002184,0.013280337333679199,0.373567209046334
1761432007599852800,1.512852783203125,0.6295517025023698,0.5613572871983051,0.8045502497509122
1761432007619795700,1.532795654296875,0.76194824860394,0.8859814555078744,1.1263961124535649
1761432007639739000,1.55273876953125,1.1325158374428748,0.7863806790709496,0.8918415066476911
1761432007659681800,1.572681884765625,1.2405489266604184,0.4408727126866579,0.3173721513547003
1761432007679624000,1.5926240234375,1.2880956907331942,0.24678923347890375,0.21911394863314926
1761432007699566800,1.61256689453125,1.3300216923147439,0.17731062358319757,0.4107779456090182
1761432007719509800,1.632509765625,1.2177712776631116,0.08850713549256324,0.4989656033562496
1761432007739453000,1.652452880859375,1.177491874244809,-0.0329477453559637,0.45239243355598296
1761432007759395800,1.672395751953125,0.5749158569514751,-0.1681660708799958,0.1434528872428462
1761432007779338000,1.692337890625,0.12285714886188506,-0.24731705674529075,0.07409019534438849
1761432007799281000,1.712281005859375,0.10686170735061168,-0.11335749911069869,0.13565057946145534
1761432007819223800,1.732223876953125,0.15344576387107373,0.11980477555394171,0.0647098976565525
1761432007839167000,1.7521669921875,-0.5697615429282188,0.18033289401382208,0.06812712222151458
1761432007859110000,1.77210986328125,-1.3894418495327234,0.041400808663666244,0.19598967815525828
1761432007879051800,1.7920517578125,-1.9685399606049059,0.08949117809385061,0.12217353224558755
1761432007898994700,1.81199462890625,-2.2929992937415835,-0.777478118430078,1.4289347787484525
1761432007918937600,1.8319375,-1.2647832042068243,-0.5318748798653483,1.2146184396553783
1761432007938880800,1.851880859375,0.3111667208433151,-0.09276742328554391,0.14804487294191493
1761432007958823700,1.87182373046875,1.011575335857272,0.3787511875554919,-1.8529753068387507
1761432007978765800,1.891765869140625,-0.44605508376061914,1.3351649004220962,-2.9836653901591896
1761432007998708700,1.911708740234375,-2.132543358847499,1.8616981269985435,-1.81669797866866
1761432008018651600,1.931651611328125,-2.8018197534948586,1.5930848919853566,-0.46063788199499245
1761432008038594800,1.9515947265625,-1.9062749353498218,1.299487730102241,-0.5979368497179821
1761432008058537700,1.971537841796875,-0.2413192776352167,0.5368944615930319,-0.8188941977281123
1761432008078480000,1.99147998046875,0.9383020098537206,0.07749795796126127,-1.0038292517751455
1761432008098422800,2.0114228515625,1.4427356328248977,-0.2231675348728895,-1.1740506477497517
1761432008118365700,2.03136572265625,1.343511288484931,-0.1662891710922122,-1.5228230227574706
1761432008138308900,2.051308837890625,0.9445347667634486,0.14410072015970946,-1.3396870540216563
1761432008158251800,2.071251708984375,0.5385813917666673,0.12952420553565025,-1.0135633678693323
1761432008178194700,2.091194580078125,0.5946890634357929,0.05688070186823606,-0.964046838093549
1761432008198136800,2.11113671875,1.157017826014757,-0.2564890819773078,-0.9450693120315671
1761432008218079700,2.131079833984375,1.5643430738866329,-0.9177966897025703,-0.9388317328162491
1761432008238023000,2.15102294921875,1.3194932840377092,-1.3589604942902922,-1.2130641228854655
1761432008257965800,2.1709658203125,0.44427287651896474,-1.6829621467873452,-1.1436555094860494
1761432008277908700,2.19090869140625,-0.25405659413337706,-1.406567171856761,-1.1665068082414567
1761432008297851000,2.210850830078125,-0.26410978611409663,-0.5786302012994885,-0.9815637170184404
1761432008317793800,2.230793701171875,-0.7286784316867589,-0.01828910540640354,-0.308207651842013
1761432008337737000,2.250737060546875,-1.38924311209023,0.19594547368735074,0.36048334413282573
1761432008357679900,2.270679931640625,-1.9214345105588435,0.4292266985565424,0.47352848935872316
1761432008377622800,2.290622802734375,-1.6849176647692918,-0.03985328696072101,1.1532888686195015
1761432008397565000,2.31056494140625,-1.0606968019008636,-1.4935866991400717,2.3292599630378183
1761432008417507800,2.3305078125,-0.23659575624465942,-1.2592720395699142,1.0704181315787136
1761432008437451000,2.350450927734375,0.5682236658364535,-0.7243707976207137,-0.6877090732429176
1761432008457394000,2.370393798828125,-0.20803777028024195,-0.22039310172349214,-0.5147857978984713
1761432008477336800,2.3903369140625,-1.2755337308019399,0.08267711416482924,1.5593248073332011
1761432008497278700,2.41027880859375,-0.9081202220797538,0.8717968628108501,1.6851861064471303
1761432008517221600,2.4302216796875,0.0971054524898529,0.8382797931343317,1.4497878894239664
1761432008537164800,2.450164794921875,0.15458090538084507,0.2452212535098195,1.0555279478956012
1761432008557107700,2.470107666015625,-0.2031523363262415,0.027627719376981257,0.5634420210504905
1761432008577051100,2.490051025390625,-0.5057844530582428,0.2111900968313217,0.5354332299340516
1761432008596993300,2.5099931640625,-0.3243476894557476,0.6516022062689065,0.5233578479433432
1761432008616936200,2.529936279296875,0.8341443007647991,1.2372460857227443,0.5424504517523572
1761432008636879000,2.549879150390625,1.3482757264077663,1.3652838520929216,0.7378647777050733
1761432008656822300,2.569822265625,1.7878630754590032,0.8807184204131364,0.944569545815885
1761432008676765200,2.58976513671875,2.1881156084656714,0.5601090407028794,0.33136966051440686
1761432008696707300,2.609707275390625,2.0992817252367733,0.1663020305737853,-0.16590156001411377
1761432008716650200,2.629650146484375,1.3124024489939212,-0.2786991602197289,-0.19653879993800072
1761432008736593200,2.64959326171875,0.4992553435504436,-0.5315016626387834,-0.1277759736288339
1761432008756536300,2.669536376953125,0.16510522200465202,-0.47221828354299067,-0.0532989709239453
1761432008776479200,2.689479248046875,0.3983832320034504,-0.2754705535620451,0.41973077513240276
1761432008796421400,2.70942138671875,0.9012579350948333,0.14311375494897366,0.8212047396928072
1761432008816364300,2.7293642578125,0.672677727523446,0.27747137199044225,0.591657659850642
1761432008836307200,2.74930712890625,-0.5207669181346893,0.28314941762685775,0.12396953055057675
1761432008856250400,2.76925048828125,-1.3672294332027435,0.26363573886156083,-0.2455115416932851
1761432008876193300,2.789193359375,-1.841937779995799,0.30988895599246025,-0.4294963458107784
1761432008896135400,2.809135498046875,-2.157109060305357,-0.2932186839595437,0.2993284355441108
1761432008916078300,2.829078369140625,-1.5497095683783293,-0.7853656568095088,0.7500660145651549
1761432008936021200,2.849021240234375,0.07776128507256508,-0.9170192755892872,0.45260848745945836
1761432008955964400,2.86896435546875,1.653670878112316,0.07154635608047247,-1.2705145874656736
1761432008975907300,2.8889072265625,1.53450849211514,0.7848086074486375,-1.8389644632734357
1761432008995849500,2.908849365234375,-0.1366845986843109,1.1920534835606813,-0.8233120872355997
1761432009015792400,2.92879248046875,-1.0840396835654973,0.9995675026774405,0.0944078109037131
1761432009035735300,2.9487353515625,-0.813728120201826,0.6526628212377429,-0.29053748205155133
1761432009055678500,2.968678466796875,0.5146966583102941,-0.16114830107241868,-0.580259263806045
1761432009075621400,2.988621337890625,1.5980916142314672,-0.46539223691523074,-0.6733319536484778
1761432009095563300,3.008563232421875,1.6430618058145046,-0.33190497296750543,-0.5500565428419039
1761432009115506200,3.028506103515625,0.9201952752768993,-0.08025047153979539,-0.4039774352813139
1761432009135449000,3.048448974609375,0.43290509480834005,0.3692673198953271,-0.24990009550843387
1761432009155392300,3.068392333984375,0.39936581330001353,0.713646574510634,-0.342920251446031
1761432009175335200,3.088335205078125,0.978497826641798,0.5894079081624746,-0.18087350369654595
1761432009195277300,3.10827734375,1.4020803818315266,0.1790381780281663,-0.27724841342214496
1761432009215220200,3.12822021484375,1.2818114958971738,-0.42048225108683107,-0.6512919712759554
1761432009235163100,3.1481630859375,0.5125123000085353,-0.7421464005470275,-0.8039894009977578
1761432009255106300,3.168106201171875,0.4095663047969341,-0.8220654481753706,-0.7001325745515525
1761432009275049200,3.18804931640625,0.7143985619217157,-0.8409092648550868,-0.32159977898709474
1761432009294991400,3.207991455078125,0.6936579717099666,-0.7507982012972235,0.2416935725740157
1761432009314934300,3.227934326171875,0.01799509089589119,-0.36129502584189177,0.5444620473030954
1761432009334877200,3.247877197265625,-0.962727426058054,-0.28628450078219175,0.4256265917053446
1761432009354820400,3.2678203125,-1.7670581878393887,-0.2671656665533781,0.3926262759119272
1761432009374763300,3.28776318359375,-2.5676351500451564,-0.17450988694876432,0.3057720769918524
1761432009394705400,3.307705322265625,-2.3577251561522483,-0.505161060462892,1.3678089866563676
1761432009414648300,3.3276484375,-0.7402268306612968,-0.719134942793846,1.568651730865985
1761432009434591200,3.34759130859375,0.7116513090401887,-1.9280852006196973,1.5507805586107075
1761432009454534400,3.367534423828125,1.3925357238948344,-1.612569929178059,-0.6264682764690369
1761432009474477300,3.387477294921875,0.3291267404258251,-1.2815133897334336,-0.2967180338500067
1761432009494419500,3.40741943359375,-1.105674592268467,0.10758183831870555,0.567794480638951
1761432009514362400,3.4273623046875,-1.52932378295362,0.834500566856563,0.844583715584129
1761432009534305300,3.44730517578125,-0.9519576102405786,0.9935796604394912,0.5287820284165442
1761432009554248400,3.46724853515625,-0.4400274940341711,0.632317367823422,0.3274767812617123
1761432009574191400,3.48719140625,0.12310732423067092,0.18951193350851533,0.24541259309714658
1761432009594133500,3.507133544921875,0.7328080788373946,0.10524930371791123,0.01392053493335843
1761432009614076400,3.527076416015625,1.0251128628224133,0.15171236420720816,0.10002908485159277
1761432009634019300,3.547019287109375,1.0204337650954722,0.13464315598458051,0.11957958849593996
1761432009653962500,3.56696240234375,0.8025485545396804,0.23339140724539756,0.01592643139567226
1761432009673905400,3.586905517578125,0.690968001973629,0.340221842674911,0.022284641315974293
1761432009693847300,3.606847412109375,1.0806184769451617,0.11579583217352628,-0.04742390487808734
1761432009713790500,3.62679052734375,1.4419231473982332,-0.5316615293756127,-0.3376514807302505
1761432009733733400,3.6467333984375,1.2629998279213905,-1.0460025061160325,-0.7785277736134827
1761432009753676300,3.66667626953125,0.5238549472779035,-1.206785773268342,-1.0840671560943127
1761432009773619500,3.686619384765625,-0.15397475618124007,-0.9000392069548367,-0.6554156270772218
1761432009793561300,3.706561279296875,-0.2613613641887903,-0.2774906612128019,0.04436400585081428
1761432009813504500,3.72650439453125,0.08789046489894389,0.2645201204806566,0.24649715519715099
1761432009833447400,3.746447509765625,-0.018563830694556235,0.9224380857676268,0.1109399896401912
1761432009853390300,3.766390380859375,-0.7720908724337816,1.4129028046190737,-0.26957828065305944
1761432009873333500,3.78633349609375,-2.058712983483076,1.3886010147944092,-0.38890371172484006
1761432009893275400,3.806275390625,-2.829346642845869,0.7425798235282302,0.10147882700217888
1761432009913218600,3.826218505859375,-1.9808388856858015,-0.5313245525062084,0.6697111328028142
1761432009933161500,3.846161376953125,-0.15384382327795026,-0.466309351760149,-0.8850287578929216
1761432009953104400,3.8661044921875,0.4489028744071722,0.14313392095416783,-2.0099666343621907
1761432009973046500,3.886046630859375,-1.1156617332756518,1.7054112944826483,-1.6474313992008567
1761432009992989400,3.905989501953125,-2.355693358063698,1.8621178137153387,-0.3953252692049369
1761432010012932600,3.9259326171875,-2.256132913637161,1.3812421764642,0.03415350441653281
1761432010032875500,3.94587548828125,-0.5073071325808763,0.7705980035275221,-0.9633685735058038
1761432010052818400,3.965818359375,0.3751905724644661,0.08095219006836414,-0.999501817030087
1761432010072761600,3.98576171875,0.8351666295498609,-0.08700520649701356,-0.3324380203982815
1761432010092703200,4.005703125,1.0551356606423854,0.29693390509039164,0.08406388321495614
1761432010112646400,4.025646484375,0.9836416192710399,0.2970513939902186,0.34612646360881627
1761432010132588300,4.04558837890625,1.0258949531108141,0.34314591342806816,0.12168839734345674
1761432010152531500,4.065531494140625,1.3729244299739598,0.48261663569957014,-0.1050836282948032
1761432010172474400,4.085474365234375,1.6414935335844754,0.3617982991889119,-0.10314191964250058
1761432010192417300,4.105417236328125,1.598604824450612,-0.00416968690007925,0.07426315902480855
1761432010212360400,4.1253603515625,1.4912059414833783,-0.3277165813669562,-0.09758624001042916
1761432010232302300,4.14530224609375,1.463417770847678,-0.3590647825717926,-0.31205727647487075
1761432010252245500,4.16524560546875,1.2808067027688026,-0.38331191959977146,-0.4025657418524846
1761432010272188400,4.1851884765625,0.42244858272373675,-0.44908436845391986,-0.3947859381638467
1761432010292131300,4.20513134765625,-0.3359486954003572,-0.667646163097024,-0.2165658350529149
1761432010312074500,4.225074462890625,-0.3715197749972343,-0.978318670682609,0.0495001996954903
1761432010332016400,4.245016357421875,0.23248013761937616,-0.8202943468496203,-0.3882010798808187
1761432010351959600,4.26495947265625,0.034660979014635086,-0.69325991230309,-0.8529069419670849
1761432010371902500,4.28490234375,-1.2753724027603863,-0.9199301945999264,-0.547437190656364
1761432010391845400,4.304845458984375,-2.143354091197252,-1.9458026436179876,0.5520016490276902
1761432010411788500,4.32478857421875,-2.0576514917314053,-1.8937202819421886,0.2612239832784049
1761432010431730400,4.34473046875,-0.7628343837887048,-1.3874801940709351,-0.14612585104545578
1761432010451673600,4.364673583984375,0.35796003620028494,-0.16382365776151417,-0.8541499277655035
1761432010471616500,4.384616455078125,-0.4565823229938745,0.496845067538321,-0.10254892218541353
1761432010491559400,4.404559326171875,-1.5530308217555284,0.962326444041729,0.6618159956388175
1761432010511502600,4.424502685546875,-1.0167775806754826,1.2005287587001918,0.8149344272516668
1761432010531444500,4.444444580078125,-0.2837000372469425,0.9285869637861848,0.4931910385427996
1761432010551387600,4.4643876953125,-0.2661059283673763,0.42821722925305367,0.20007586975665761
1761432010571330600,4.48433056640625,-0.4455038796186447,0.26664339624494315,0.5663566663881764
1761432010591274200,4.504274169921875,-0.21576807227134703,0.3981938469111919,1.1862671552442015
1761432010611217200,4.524217041015625,0.42093759363889693,0.7474936067938804,0.9797091751929372
1761432010631159000,4.544158935546875,1.1874731700330972,1.074396533690393,0.6172934016928077
1761432010651102200,4.564102294921875,1.5555273147463797,1.043470649550855,0.6029118981841951
1761432010671045400,4.58404541015625,1.6828221537947654,0.5088204597532748,0.7428020149115473
1761432010690988300,4.60398828125,1.7588117530196905,-0.253659411509335,0.5787616091268136
1761432010710931200,4.62393115234375,1.9862235013335943,-0.7182368249103427,0.20935287146680057
1761432010730873000,4.643873046875,2.0283494094014167,-0.9132046857371926,-0.043800892075337466
1761432010750816000,4.66381591796875,1.3523276321470736,-1.055460947073996,0.22560022364621982
1761432010770759200,4.68375927734375,0.7111532963901758,-0.9253557267799973,0.8317305906865745
1761432010790702000,4.7037021484375,0.5556435857266188,-0.6294368439510464,1.2374969917438923
1761432010810644200,4.723644287109375,1.0086895512878895,-0.36431203557550906,1.3594856872081755
1761432010830587100,4.743587158203125,1.0303776514828205,-0.052825873519480225,0.9663928166978061
1761432010850530000,4.763530029296875,-0.10396014069020748,0.03082125472128391,0.09383779246341437
1761432010870473200,4.78347314453125,-1.5541466740429402,-0.14927140079587697,-0.677285367449373
1761432010890416000,4.803416015625,-2.291088491684198,-0.22791706748753784,-0.5195329193603248
1761432010910358300,4.823358154296875,-2.1481366492986678,-0.5968304593786596,0.2293641244906932
1761432010930301200,4.84330126953125,-1.5949457174211739,-0.010239362202584743,-0.44248858691807835
1761432010950244000,4.863244140625,-2.0934347527742383,-0.025540391708910464,-0.4121409775905311
1761432010970187300,4.883187255859375,-2.831476056089997,0.9423381335020065,-1.5872322204343974
1761432010990130200,4.903130126953125,-2.851552629435062,1.4892928013384341,-1.8350133875600994
1761432011010072300,4.923072265625,-1.615939990133047,1.5222940304473043,-1.031759972686693
1761432011030015200,4.94301513671875,-0.04997720609009266,1.6123852202609181,-0.9872093947552144
1761432011049958100,4.962958251953125,0.6865577843159437,1.3512249316021798,-0.5558901808988302
1761432011069901300,4.9829013671875,0.919608415299654,1.214488018208742,-0.1708214259606786
1761432011089844200,5.00284423828125,1.281369012826681,0.9790294493004679,0.18362099404009058
1761432011109786400,5.022786376953125,1.4699334363520145,0.8239026004746556,0.06659870707783848
1761432011129729300,5.042729248046875,1.3138660918056964,0.7931108641088008,-0.5518260367324576
1761432011149672200,5.062672119140625,0.8684323548138141,0.7308841250374912,-0.7941210640646517
1761432011169615400,5.082615478515625,0.6858288855195045,0.5798226259544491,-0.7170626665644347
1761432011189557000,5.102556884765625,1.0815426060527562,0.12003390813469886,-0.558060328012146
1761432011209500200,5.122500244140625,1.8200111948698758,-0.37578123183399437,-0.6782606422223151
1761432011229443000,5.142443115234375,2.4499632948666807,-0.6501932162538171,-1.036183634347841
1761432011249386000,5.162385986328125,2.428978374505043,-1.0782850655615328,-0.9935153630316257
1761432011269329200,5.1823291015625,1.573065309524536,-1.4075325097575784,-0.8932255814172327
1761432011289271000,5.20227099609375,0.3648451195389032,-1.2929092284947632,-0.3095996541896835
1761432011309214200,5.222214111328125,-0.14977496640384197,-1.2052359134778379,0.2749441550677642
1761432011329157000,5.2421572265625,0.19339725050926207,-0.6958797394126653,0.3388242873692885
1761432011349100000,5.26210009765625,-0.3281669554829597,-0.10555091701298952,0.0874780116405338
1761432011369043200,5.282043212890625,-1.7508482267946004,-0.08141454688310623,0.2759681643532589
1761432011388985000,5.301985107421875,-2.3332377806276083,-0.33401801959872246,0.7768766454055905
1761432011408928300,5.32192822265625,-1.580721377235651,-1.081742512539029,2.032319774337113
1761432011428871200,5.34187109375,-0.24761808551847933,-1.02224695199728,1.3992268920965492
1761432011448814000,5.36181396484375,-0.19562135629951952,-0.819142254205048,0.40322479028310626
1761432011468757200,5.38175732421875,-0.6734925510376691,-0.04220744887143373,-1.1564205177087337
1761432011488699100,5.40169921875,-2.3298919773310423,0.5422092268750072,-0.6244822172183543
1761432011508642300,5.421642333984375,-3.208250098353624,1.1185209220990537,0.7326441204473376
1761432011528585200,5.441585205078125,-2.7167221341848373,1.703912580357492,1.283608170055598
1761432011548528000,5.461528076171875,-1.1651005947053432,1.6141165740981698,0.528715758247301
1761432011568471300,5.48147119140625,-0.5324269607901573,0.7186126724854112,0.04410542797986418
1761432011588412400,5.501412353515625,-0.10445055455565452,0.4532552243977785,0.1247759880952537
1761432011608355600,5.52135546875,0.6854372558534145,0.22284867818206547,0.5317206026190892
1761432011628298500,5.541298583984375,1.7499661832630633,-0.07496142522096634,0.31332324129007755
1761432011648241400,5.561241455078125,2.581881117540598,0.2010948192745447,-0.40765228786915536
1761432011668183600,5.58118359375,2.712970088174939,0.3519298161253333,-0.3450202559325844
1761432011688126500,5.60112646484375,2.606616330346465,0.18380758438706396,0.23700046458803115
1761432011708069600,5.621069580078125,2.034464092889428,-0.18087006963044405,0.5592154528640211
1761432011728012500,5.641012451171875,1.3038976554989814,-0.6438198818296194,0.2881113143505528
1761432011747955500,5.66095556640625,1.1642395939618349,-0.8565919871553778,0.0926369653062895
1761432011767897600,5.680897705078125,0.7824977001577615,-0.5782797804266214,0.048229622637247664
1761432011787840500,5.700840576171875,0.14904840569496153,-0.08762567648291587,0.40055904167257245
1761432011807783700,5.72078369140625,-0.3390139281898737,0.14966478402763606,0.9593491087313741
1761432011827726600,5.7407265625,-0.5150198989152908,0.12399930463433265,1.245933103916794
1761432011847669500,5.76066943359375,-0.3602753274053335,0.18457710745483635,0.917917539603263
1761432011867611400,5.780611328125,-0.43404198988378045,0.10121873302757739,0.016563231461867688
1761432011887554300,5.80055419921875,-0.820955148845911,0.1475324481740594,-0.5221020026633516
1761432011907497500,5.82049755859375,-1.3569558764696121,-0.309993877671659,0.1253444356329739
1761432011927440400,5.8404404296875,-1.2633715838432311,-0.9581272387862205,0.8503477590035646
1761432011947383300,5.86038330078125,-0.2899877392143011,-0.9509013791859149,0.4341771971033886
1761432011967325400,5.880325439453125,0.639887218555808,-0.2307762563109398,-0.9036182344853877
1761432011987268400,5.900268310546875,-0.8089993381142616,0.6172149296291172,-1.3930531718976795
1761432012007211500,5.92021142578125,-2.5206162092387676,1.1273591853320597,-1.176538080651313
1761432012027154400,5.940154541015625,-2.717466230550408,1.20570791490376,-1.254666007079184
1761432012047096600,5.9600966796875,-1.1661118175745009,1.036709046461433,-1.456468974623084
1761432012067039500,5.98003955078125,-0.21628420509994029,0.7136804767802357,-1.0999334913332015
1761432012086982400,5.999982421875,0.2254547690272331,0.5732650210045278,-0.5916868128798902
1761432012106925600,6.019925537109375,0.37546646679639817,0.6163911921560764,-0.2916608600582927
1761432012126868500,6.039868408203125,0.4149123420000076,0.6824408505164087,-0.26076332523040474
1761432012146810600,6.059810546875,0.5568401020348072,0.5911095975138246,-0.3830290110051632
1761432012166753500,6.07975341796875,0.7531120311975479,0.4908206926822662,-0.35509237180948255
1761432012186696400,6.099696533203125,1.0634440547823905,0.5218943147294223,0.1311284989271313
1761432012206639600,6.1196396484375,1.8540818067759275,0.38782062919586896,0.6478668921981007
1761432012226582500,6.13958251953125,2.210494613534212,0.008849661409854888,0.6331975116588175
1761432012246524700,6.159524658203125,2.237557392504811,-0.33611177700757977,0.09462101526297628
1761432012266467600,6.179467529296875,1.5395529160231352,-0.38620267260521646,-0.5243623853433876
1761432012286410500,6.199410400390625,0.37018121986985203,-0.46256811940521,-0.695501846010983
1761432012306353700,6.219353759765625,-0.6179857678711413,-0.5330266802489757,-0.2501741266768426
1761432012326295600,6.239295654296875,-0.5741249988347291,-0.4057932159990072,0.3071519322440028
1761432012346238700,6.25923876953125,0.5275011948257684,0.12433423567712307,-0.4008015451915562
1761432012366181600,6.279181640625,-0.4479840059965849,0.6234726748496293,-1.218503683590889
1761432012386124500,6.29912451171875,-2.7983278197258707,0.2859162519916892,-0.4859838471103459
1761432012406067700,6.319067626953125,-4.458593273797631,-0.6547402120336889,0.7287500356182456
1761432012426009300,6.33900927734375,-3.007354016521573,-1.113132799319923,1.126208992383629
1761432012445952500,6.358952392578125,-0.3673392744421959,-1.4705375397250056,0.21337701241634785
1761432012465895400,6.3788955078125,0.792998635905981,-1.2731719701066613,-0.36561953797750174
1761432012485838300,6.39883837890625,0.7603209396630525,-0.1343628777384758,-0.16059198236390948
1761432012505780500,6.418780517578125,-0.8877046260386705,1.0298293699502945,1.2177999192357063
1761432012525723400,6.438723388671875,-1.8525217178523539,1.1106979733884335,2.702885916534066
1761432012545666600,6.45866650390625,-0.9813146376281976,1.0674471529439091,2.2682769404172896
1761432012565609500,6.478609375,0.559718287819624,0.33550533554702994,1.110961885021627
1761432012585551600,6.498551513671875,0.9566823006749152,-0.2623220259144902,1.045746923919767
1761432012605493500,6.518493408203125,0.8380559212505817,-0.2359685642570257,1.551279448043555
1761432012625436700,6.538436767578125,0.7577426136076449,0.2547156425639987,1.9170956045717
1761432012645379600,6.558379638671875,0.806919024708867,0.5375520487189293,1.8902800783604383
1761432012665322500,6.578322509765625,1.105853455966711,0.9774640996798872,1.6066247570380567
1761432012685265700,6.598265625,1.4838953262090682,1.0770979016035795,1.5431294593356548
1761432012705207600,6.61820751953125,1.6944944714099168,0.765586897367239,1.243318537504226
1761432012725150500,6.638150390625,1.8933418040186165,0.08711451209038495,0.6331874286562204
1761432012745093600,6.65809375,2.0268109477877614,-0.6089774087682366,0.2286114794924855
1761432012765036500,6.67803662109375,1.587088574180007,-0.7738987986385821,0.04669226613529026
1761432012784979500,6.6979794921875,0.6258294671088457,-0.42678748871088024,0.1348401033287868
1761432012804921600,6.717921630859375,-0.3403320250511169,-0.008871580980718136,0.6222123725902289
1761432012824864500,6.737864501953125,-0.264610721373558,0.026803835773468017,1.1274755782533437
1761432012844807700,6.7578076171875,0.8220756773084401,0.14125176046937704,0.919880802500248
1761432012864750600,6.77775048828125,0.5095750775128602,0.4122890077590942,0.4466549128172919
1761432012884692500,6.7976923828125,-1.2061088969200848,0.5480588296860456,-0.12879216493405402
1761432012904635400,6.817635498046875,-2.396201894062757,0.6499211213141679,-0.29451325381472704
1761432012924578300,6.837578369140625,-2.427952538588643,0.3798150173947215,0.019299414960108695
1761432012944521500,6.857521484375,-1.5670102472692726,-0.28759646016359325,0.26040793592147526
1761432012964464400,6.87746435546875,-0.319341259470582,-0.5032751005858183,0.156219466368109
1761432012984406500,6.897406494140625,0.36262978157699105,0.6440563209339976,-2.0603798937819895
1761432013004349400,6.917349365234375,-0.5123234994381666,0.29577742853164674,-1.4026739638105035
1761432013024292400,6.937292236328125,-1.4040782776504754,0.6385057010695337,-1.0412690478533506
1761432013044235500,6.957235595703125,-1.5516583643585442,0.9636533087313175,-1.0052771855611353
1761432013064177400,6.977177490234375,-0.7906336603403091,0.9913497094303368,-0.8826790529616176
1761432013084120600,6.99712060546875,-0.317698168438673,0.5182803620159626,-0.2586231348639354
1761432013104063500,7.0170634765625,-0.005416764351725578,0.1310752343699336,0.0011064268719404935
1761432013124006400,7.03700634765625,0.48882688851654527,0.19847586894780397,-0.19621205220166593
1761432013143949600,7.056949462890625,0.48019291568398476,0.29733284128010273,-0.32400318686701357
1761432013163891500,7.076891357421875,0.004163549420237541,0.3046209524616599,-0.41083500955849883
1761432013183834600,7.096834716796875,0.12265782689750193,0.22806845865696668,-0.09898518355553969
1761432013203777500,7.116777587890625,0.9840075299739837,0.026715865229070185,0.0069897858221083875
1761432013223720400,7.136720458984375,1.802748509901762,-0.16289923639297485,-0.11737453446602449
1761432013243663600,7.15666357421875,1.6308739398926495,-0.3001706950545311,-0.2669646640885621
1761432013263605500,7.17660546875,1.087580132651329,-0.4607163540586829,-0.3507163121497258
1761432013283548700,7.196548583984375,0.8474836748093366,-0.5060962954863906,-0.7774945581082254
1761432013303491600,7.21649169921875,0.6805728646874427,-0.43237960962951183,-0.8055758664716035
1761432013323434500,7.2364345703125,0.2340647764623165,-0.44329730948507784,-0.4396551535904407
1761432013343376600,7.256376708984375,-0.33243571884334083,-0.4192842734739184,0.05862074590201955
1761432013363319600,7.276319580078125,-0.504510195338726,-0.273760534773767,0.03867641606791876
1761432013383262700,7.2962626953125,-0.2620592833250761,-0.24865502735078332,0.26768253003433345
1761432013403205600,7.31620556640625,-0.9268734378665685,-0.6995794707134365,0.8870287726037204
1761432013423148500,7.3361484375,-1.7180056953787803,-1.182646772789955,0.8714617856375872
1761432013443090400,7.35609033203125,-1.9331769708007573,-1.4901932573094963,0.4069220008332282
1761432013463033300,7.376033447265625,-1.628333023238182,-1.4307386133000253,0.6374908249385655
1761432013482976500,7.3959765625,-1.817825083002448,-0.4126797606423497,0.41944209438413377
1761432013502919400,7.41591943359375,-2.1174954273194073,1.2009265258461237,0.10287928665094077
1761432013522861600,7.435861572265625,-2.063806507229805,1.4823574491173028,1.7005277602247892
1761432013542804500,7.455804443359375,-1.2928455156087875,1.4171929030284285,2.227654861041158
1761432013562747400,7.475747314453125,-0.11698504195809363,0.669231386461854,1.236151130092889
1761432013582690800,7.49569091796875,0.17561609462499617,-0.03487462176531553,0.5369337706901133
1761432013602633700,7.5156337890625,0.509193384718895,-0.4404571176230907,0.7980273507881909
1761432013622575900,7.535575927734375,1.1056050341635941,-0.27672610658109187,0.6534186811063438
1761432013642518800,7.555518798828125,1.3758458703786134,-0.07778904986232518,0.3016473617446609
1761432013662461700,7.575461669921875,0.9866296951711178,0.6235524620875715,-0.09032244128622115
1761432013682404900,7.59540478515625,0.5930547402322291,1.1557213564634323,0.7495753815039992
1761432013702346800,7.6153466796875,1.1356383533775807,1.25142834033221,1.407693545538187
1761432013722290000,7.6352900390625,2.465535542529821,0.9340852689415216,0.9349095909364521
1761432013742232800,7.65523291015625,3.0885248177766798,0.5296367455497384,0.19925218708254397
1761432013762175700,7.67517578125,2.3599931010842323,0.10051146154105663,0.190673524633795
1761432013782119000,7.695118896484375,1.4372913959443567,-0.01811784049272537,0.4822079087682068
1761432013802060500,7.715060546875,1.009165936627984,-0.01006955859363079,0.2669602984406985
1761432013822003700,7.735003662109375,0.6145388422876596,0.18044746030420064,-0.018044209000933915
1761432013841946600,7.754946533203125,0.6038017596960067,0.2885050994411111,0.5380648570792749
1761432013861889500,7.7748896484375,0.6368067881971597,0.22474545171409843,0.7768564063351601
1761432013881832700,7.794832763671875,0.2693231368482113,0.23267595245242118,0.5318015223681927
1761432013901774600,7.814774658203125,-0.2408048983722925,0.13956804516613483,0.1741960900255479
1761432013921717800,7.8347177734375,-1.4235288280516862,0.24297698171436785,-0.47503366975728417
1761432013941660700,7.85466064453125,-2.3096318641126152,0.7450304315507411,-0.4197999679110944
1761432013961603600,7.874603515625,-2.231338079598546,-0.0007855974197387695,1.534040290081501
1761432013981545700,7.894545654296875,-0.7102712528586387,0.4391480808511376,0.22437563202101735
1761432014001488600,7.914488525390625,0.9915589682668446,-0.9463979302868246,1.3241970778144896
1761432014021431800,7.934431884765625,1.6985545604556798,-0.5913049739554525,-0.5835498297840357
1761432014041374700,7.954374755859375,0.6750415340453386,0.03288461699187755,-1.2765982912935316
1761432014061317600,7.974317626953125,-0.8933335718363523,1.0097221092060207,-0.7639447561834007
1761432014081259800,7.994259765625,-1.830837124788761,1.5689643039464949,-0.6813160842701792
1761432014101202700,8.01420263671875,-1.9679478399306534,1.1507020669966936,-0.3704511228524148
1761432014121145600,8.0341455078125,-0.8200070543408393,0.34693566109985113,0.008886815082468092
1761432014141088800,8.0540888671875,1.0430629455327987,-0.27738632405549285,0.041210291060246526
1761432014161030700,8.07403076171875,2.04932439289093,-0.4121817479923367,-0.1549222296318039
1761432014180973800,8.093973876953125,1.6176619916200636,-0.18134324010014533,-0.23792199987974016
1761432014200916700,8.113916748046876,0.01255786827802658,0.2872714659929275,-0.05224693198720924
1761432014220859600,8.133859619140624,-1.0126379966527224,0.5636418910041451,0.28075547169502824
1761432014240802800,8.153802734375,-0.9838432793229818,0.33556466451883316,0.11235221279198303
1761432014260744400,8.173744384765625,0.39888182917535303,-0.2740861134663224,-0.2738967649066821
1761432014280687600,8.1936875,1.2934855670779943,-0.5893015251785516,-0.8259113099485635
1761432014300630500,8.213630615234376,0.8798778779357671,-0.7529083253189921,-0.8481053869042545
1761432014320573700,8.23357373046875,0.05874795704483986,-0.7963938313022255,-0.4676157581835985
1761432014340515600,8.253515625,-0.30241876624226566,-0.6588131605610251,-0.3174982984850183
1761432014360458500,8.27345849609375,0.12292729148864745,-0.5540583623617887,-0.18820786517262458
1761432014380401700,8.293401611328125,0.7548702730417252,-0.7064984563216566,0.18363341513024642
1761432014400344600,8.313344482421876,1.094503209912777,-0.6137912387907505,-0.009780882411939092
1761432014420286700,8.33328662109375,0.7756693154424429,-0.47749680846780534,-0.3719443936174735
1761432014440229600,8.353229736328124,-0.8824217171996831,-0.11032120015472173,-0.1662871252655983
1761432014460172500,8.373172607421875,-2.6141981637775897,0.2372276244074106,0.718965431445837
1761432014480115700,8.39311572265625,-3.1122534838885065,-0.32054391325861215,1.7055496800400316
1761432014500058600,8.41305859375,-1.892908088776469,-0.8952908433839678,1.1561749454498291
1761432014520001500,8.43300146484375,-0.7325643332093954,-1.286009532108903,0.5230280314670875
1761432014539944700,8.45294482421875,-0.28546587787568567,-0.24742899268716573,-0.6868758372891693
1761432014559886600,8.472886474609375,-1.134447682288289,0.414023868727684,-0.5159222545824945
1761432014579830000,8.492830078125,-2.1446476381391286,0.42857963282465933,0.7374968211755156
1761432014599773000,8.51277294921875,-1.3177970015138387,0.7186451134502887,0.2077566152513027
1761432014619715800,8.5327158203125,0.21102292357087135,0.3986395448520779,-0.06101584717789665
1761432014639658000,8.552657958984375,0.7257640055447816,0.3207508340075612,0.32956838324610144
1761432014659601000,8.572600830078125,0.5052893630176782,0.5383081277832389,0.733363082371652
1761432014679544000,8.5925439453125,0.46207975136637686,0.737357997226715,0.7460944075204432
1761432014699487000,8.612487060546876,1.0660042606592177,0.8811465826973318,0.1334969724909868
1761432014719430000,8.632429931640624,1.3482067528247832,1.0748077448397875,-0.6169692112397402
1761432014739372000,8.6523720703125,1.6204840633034705,1.0971668761640787,-0.3081645433526486
1761432014759315000,8.67231494140625,1.744364125472307,0.743309306846559,0.5296949785429984
1761432014779258000,8.692258056640625,2.1158353851526974,0.48164925197213887,0.3325806802719831
1761432014799201000,8.712200927734376,2.097936155846715,0.12749766814410685,-0.40954387376941737
1761432014819143200,8.73214306640625,1.452175661343336,-0.2865627332016826,-0.47433958654589947
1761432014839086000,8.752086181640625,0.3530079667508602,-0.5466676675885915,-0.06992575087500735
1761432014859029000,8.772029052734375,-0.28232231915295125,-0.5754702759638428,0.26120014574509115
1761432014878972200,8.79197216796875,-0.13496551980674265,-0.4690586504682898,0.1640952777771279
1761432014898914000,8.8119140625,0.5318704959511756,-0.5845122450754046,-0.5104193097846582
1761432014918857200,8.831857177734374,0.2943698998212814,-0.7442267139524221,0.039982356700487436
1761432014938800000,8.851800048828125,-0.18437866227328775,-0.6068190616905689,0.479204927559942
1761432014958743000,8.871742919921875,-0.7994517575681209,-0.28442689021676776,-0.03511837652646936
1761432014978686200,8.891686279296875,-1.0633101992696523,0.07876344785243272,-0.7050390512935817
1761432014998627800,8.9116279296875,-1.115512095671892,0.7101835745751858,-1.1227033223502336
1761432015018571000,8.931571044921874,-1.6174463030427693,0.9337933002576232,-0.39851668565738946
1761432015038514200,8.95151416015625,-1.622676604911685,0.8622764625325798,0.13130773708471097
1761432015058457000,8.97145703125,-0.638027854424715,-0.08092237945199013,0.54072344529666
1761432015078399000,8.99139892578125,0.6640647974789142,-1.3415686299845575,0.44858642886914313
1761432015098342000,9.011341796875,0.8800269310176372,-0.38069910675287244,-1.996085116264969
1761432015118285000,9.03128515625,-0.9877981544286012,0.9291960355952381,-1.740047869708389
1761432015138228000,9.05122802734375,-2.6047762554377316,2.2232257925525305,-1.2085571668550372
1761432015158171000,9.0711708984375,-2.0529957748800514,2.073208249564469,0.15097455145195127
1761432015178113000,9.091113037109375,-0.11702069779336452,1.0622501688227057,0.5022057177886367
1761432015198056000,9.111055908203125,1.4565642516911028,0.46887715642154215,-0.44794031298533077
1761432015217999000,9.1309990234375,1.0784984160512685,0.6259615690559148,-0.5314407627644017
1761432015237942000,9.15094189453125,-0.3308820596605539,0.7107017532303929,0.45792405645903195
1761432015257884000,9.1708837890625,-0.8235726378679274,0.4287491441726684,0.9832130185954272
1761432015277827000,9.1908271484375,0.16703005258738993,-0.042777649974822994,0.9850149534508585
1761432015297770000,9.21077001953125,1.6688544187188148,-0.37940906694233417,0.5202673345820978
1761432015317713000,9.230712890625,2.207073991435766,-0.3053992433577776,0.01643834470687434
1761432015337655000,9.250655029296874,1.2805968594104051,-0.1363929222613573,0.2847881978098303
1761432015357598000,9.270597900390625,0.3497966034889221,-0.00781914931833744,0.6348322732537984
1761432015377541000,9.290541015625,-0.11543605895042419,-0.2168845090806484,0.5544887166030704
1761432015397484000,9.310484130859376,-0.24664894822537897,-0.06732786160260439,-0.5011371387090534
1761432015417427000,9.330427001953124,-0.4575900387316942,0.028961890590190886,-0.4040818820364773
1761432015437369000,9.350369140625,-0.17795652027130127,-0.007611644047498703,0.1734683968055062
1761432015457312000,9.37031201171875,0.3470791612237692,-0.10870207452028989,0.4483994549296796
1761432015477255200,9.390255126953125,0.4233230274707079,0.01824994243979454,0.17653585808472708
1761432015497198000,9.410197998046876,-0.842300134691596,0.3078402067691088,-0.34751718731485304
1761432015517140000,9.430139892578126,-2.0030022021770475,0.29966479135900737,-0.12214432441741227
1761432015537083000,9.450082763671874,-2.0363602818995714,-0.852005536147952,1.4485636083260178
1761432015557025800,9.47002587890625,-0.6522755754858255,-0.44778526855409145,0.20591089605307206
1761432015576969000,9.489968994140625,-0.7472159588962793,-1.0953756088331341,0.15126734211975706
1761432015596911400,9.509911376953125,-1.3090917170107363,-0.3143397979214787,-1.1344588612694293
1761432015616854500,9.5298544921875,-1.9015549210906029,0.37761867639422414,-0.8186754404108971
1761432015636797400,9.54979736328125,-1.7415438073545693,0.9210781955912709,-0.04877649766397662
1761432015656740400,9.569740234375,-0.42757483969628807,1.6503499169960616,0.051313158268434925
1761432015676683500,9.58968359375,0.5924146887630224,1.5675205348789691,0.36290713721364737
1761432015696625400,9.60962548828125,0.7535702963590621,1.0179039543569088,0.698244641913101
1761432015716568600,9.629568603515626,0.41664369583725924,0.32291151917278765,0.6856791017852724
1761432015736511500,9.649511474609374,0.04141571397185325,0.19339140529036522,0.45821017992403357
1761432015756454400,9.669454345703125,-0.08802373588979244,0.8606137900173664,0.0029297378755407406
1761432015776396500,9.689396484375,-0.11504910545945167,1.489265036548674,0.07094841758678667
1761432015796339500,9.70933935546875,0.31241467507779597,1.9980662070795892,0.3290027487199753
1761432015816282600,9.72928271484375,0.6947077730238437,2.007955148409307,0.32569300311747934
1761432015836225500,9.7492255859375,1.0965747554898262,1.581513696657121,-0.04424032010564115
1761432015856167700,9.769167724609375,1.1661509805411099,1.2810326204791664,-0.7135849805165082
1761432015876110600,9.789110595703125,0.8691787892669439,1.026767644292116,-0.8420005672231317
1761432015896053500,9.809053466796875,0.3469786234587431,1.0244947309240697,-0.9401499758079648
1761432015915996700,9.82899658203125,-0.12020166591703892,1.1214531761586666,-0.856777792051062
