time,seconds_elapsed,z,y,x
1761505852246832400,0.082832275390625,-0.42787203192710876,-0.6247468590736389,0.23950296640396118
1761505852266988300,0.10298828125,-0.533717691898346,-0.47745847702026367,0.22362127900123596
1761505852287144200,0.123144287109375,-0.49879249930381775,-0.24888281524181366,0.1066226214170456
1761505852307300400,0.14330029296875,-0.401446670293808,0.035647012293338776,-0.08701217919588089
1761505852327457300,0.163457275390625,-0.2868987023830414,0.1771175116300583,-0.278035044670105
1761505852347613400,0.183613525390625,-0.2317192554473877,0.15474237501621246,-0.3363128900527954
1761505852367769300,0.203769287109375,-0.2117854505777359,0.08919355273246765,-0.27772730588912964
1761505852387926300,0.22392626953125,-0.1934799700975418,0.04340382292866707,-0.2063056379556656
1761505852408082200,0.244082275390625,-0.16628175973892212,0.000759645365178585,-0.17078162729740143
1761505852428238000,0.264238037109375,-0.15527449548244476,-0.0673953965306282,-0.19647085666656494
1761505852448395300,0.284395263671875,-0.1462596356868744,-0.11002945154905319,-0.2030218541622162
1761505852468551200,0.30455126953125,-0.14388804137706757,-0.0873328372836113,-0.1848025918006897
1761505852488707300,0.324707275390625,-0.11279899626970291,-0.09910932928323746,-0.1488173007965088
1761505852508863200,0.34486328125,-0.1050758808851242,-0.044330909848213196,-0.0794430822134018
1761505852529020400,0.3650205078125,-0.08572378754615784,-0.003860003314912319,-0.01742902211844921
1761505852549176300,0.38517626953125,-0.07683626562356949,0.029950909316539764,-0.004094329662621021
1761505852569332500,0.40533251953125,-0.06442674249410629,0.0715828686952591,-0.03642798960208893
1761505852589489200,0.4254892578125,-0.03093067742884159,0.15263590216636658,-0.05098975449800491
1761505852609645300,0.445645263671875,0.012412495911121368,0.23087948560714722,-0.014222729951143265
1761505852629801200,0.46580126953125,0.044602494686841965,0.23509544134140015,0.01796416938304901
1761505852649957000,0.48595703125,0.036840397864580154,0.19788163900375366,0.030953822657465935
1761505852670114300,0.5061142578125,0.0030523219611495733,0.13978002965450287,0.0064610205590724945
1761505852690270200,0.526270263671875,-0.04016149789094925,0.07004071027040482,-0.040774229913949966
1761505852710426400,0.54642626953125,-0.08546888828277588,0.04309055209159851,-0.08663041889667511
1761505852730583300,0.566583251953125,-0.10201569646596909,0.07726392149925232,-0.09820134937763214
1761505852750739500,0.586739501953125,-0.0939265564084053,0.08431415259838104,-0.08212301880121231
1761505852770895400,0.606895263671875,-0.03495395556092262,0.15326760709285736,-0.0014815947506576777
1761505852791052300,0.62705224609375,-0.008765093982219696,0.22010438144207,0.08323739469051361
1761505852811208200,0.647208251953125,0.00015991972759366035,0.21260802447795868,0.126348614692688
1761505852831364000,0.667364013671875,-0.03356732428073883,0.14829371869564056,0.11208482831716537
1761505852851520300,0.687520263671875,-0.050740960985422134,0.11807557940483093,0.08563083410263062
1761505852871677200,0.70767724609375,-0.023026835173368454,0.11896476149559021,0.07900645583868027
1761505852891833300,0.727833251953125,0.04375983774662018,0.16409806907176971,0.11176888644695282
1761505852911989200,0.7479892578125,0.10265116393566132,0.14832299947738647,0.12510089576244354
1761505852932146400,0.768146484375,0.13261966407299042,0.07854077219963074,0.11446478217840195
1761505852952302600,0.788302490234375,0.13469533622264862,-0.006417748983949423,0.11763077229261398
1761505852972458800,0.808458740234375,0.13562092185020447,-0.06641144305467606,0.14399400353431702
1761505852992614700,0.82861474609375,0.16141730546951294,-0.03164924681186676,0.18896624445915222
1761505853012771800,0.848771728515625,0.19915421307086945,-0.02697446569800377,0.20120365917682648
1761505853032927700,0.868927734375,0.222336545586586,-0.0073774647898972034,0.2148180902004242
1761505853053084000,0.889083984375,0.22538228332996368,-0.011505495756864548,0.1985667496919632
1761505853073240800,0.90924072265625,0.17933423817157745,0.03292614594101906,0.14769171178340912
1761505853093397000,0.92939697265625,0.13981613516807556,0.11349782347679138,0.12167029827833176
1761505853113553000,0.949552978515625,0.1408783346414566,0.19976027309894562,0.11528497189283371
1761505853133708800,0.969708740234375,0.1605103462934494,0.19807617366313934,0.09597548842430115
1761505853153865700,0.98986572265625,0.14117252826690674,0.1847372055053711,0.09736180305480957
1761505853174021600,1.010021728515625,0.12364131957292557,0.1863243579864502,0.12483959645032883
1761505853194177800,1.030177734375,0.12177018076181412,0.1707548201084137,0.15128882229328156
1761505853214334700,1.050334716796875,0.10734047740697861,0.10972621291875839,0.14832666516304016
1761505853234491000,1.070490966796875,0.10645284503698349,0.06943205744028091,0.1337280124425888
1761505853254646800,1.090646728515625,0.11811613291501999,0.05653485655784607,0.1399904042482376
1761505853274802700,1.110802734375,0.1341691017150879,0.045196354389190674,0.12811239063739777
1761505853294959900,1.1309599609375,0.1251726597547531,0.012913737446069717,0.0842602327466011
1761505853315115800,1.15111572265625,0.11117546260356903,0.025894958525896072,0.056573037058115005
1761505853335272000,1.17127197265625,0.08975837379693985,0.00008018314838409424,0.019135257229208946
1761505853355428600,1.1914287109375,0.07598081976175308,-0.0036272890865802765,-0.03062806837260723
1761505853375584800,1.211584716796875,0.08942177146673203,-0.006900268606841564,-0.08204330503940582
1761505853395740700,1.23174072265625,0.1172056570649147,-0.00250383373349905,-0.1426345556974411
1761505853415897900,1.25189794921875,0.13106563687324524,-0.026989556849002838,-0.20587655901908875
1761505853436053800,1.2720537109375,0.08594107627868652,-0.06881711632013321,-0.26629701256752014
1761505853456210000,1.2922099609375,0.03455330803990364,-0.041463837027549744,-0.31826022267341614
1761505853476365800,1.31236572265625,0.043104857206344604,0.028505079448223114,-0.3854186236858368
1761505853496523000,1.33252294921875,0.08725696057081223,0.19285456836223602,-0.40045928955078125
1761505853516679000,1.352678955078125,0.2089260071516037,0.3059665262699127,-0.3384988307952881
1761505853536834800,1.372834716796875,0.27057313919067383,0.3146284520626068,-0.22862106561660767
1761505853556991700,1.39299169921875,0.24858427047729492,0.18105244636535645,-0.10885089635848999
1761505853577147600,1.413147705078125,0.1850016713142395,0.037676699459552765,-0.002847460098564625
1761505853597303800,1.4333037109375,0.1300622969865799,-0.08173731714487076,0.06914523988962173
1761505853617459700,1.453459716796875,0.09165924787521362,-0.1633543223142624,0.06427862495183945
1761505853637617000,1.473616943359375,0.058360278606414795,-0.22953924536705017,-0.0093211829662323
1761505853657772800,1.493772705078125,0.036248087882995605,-0.21239922940731049,-0.09019916504621506
1761505853677928700,1.5139287109375,0.019244302064180374,-0.12922880053520203,-0.11641057580709457
1761505853698086000,1.5340859375,-0.011244935914874077,-0.06039762869477272,-0.12420649826526642
1761505853718241800,1.55424169921875,-0.04043903946876526,-0.0055903042666614056,-0.15528078377246857
1761505853738398000,1.57439794921875,-0.05690306797623634,0.06098698824644089,-0.18532930314540863
1761505853758553900,1.594553955078125,-0.05769465118646622,0.11653604358434677,-0.21071067452430725
1761505853778710800,1.614710693359375,-0.03326195105910301,0.16045507788658142,-0.19860737025737762
1761505853798866700,1.63486669921875,0.01257511880248785,0.18561574816703796,-0.15149196982383728
1761505853819022800,1.65502294921875,0.057035431265830994,0.15616850554943085,-0.07958589494228363
1761505853839179800,1.6751796875,0.07732569426298141,0.0720352977514267,0.007984589785337448
1761505853859336000,1.6953359375,0.07967866957187653,-0.05397865176200867,0.09223617613315582
1761505853879491800,1.715491943359375,0.038994304835796356,-0.16628465056419373,0.1764518767595291
1761505853899647700,1.735647705078125,-0.01042142789810896,-0.20045429468154907,0.22950179874897003
1761505853919805000,1.755804931640625,-0.030781617388129234,-0.17982514202594757,0.21234533190727234
1761505853939960800,1.7759609375,-0.039613522589206696,-0.17905615270137787,0.13273899257183075
1761505853960116200,1.7961162109375,-0.071422278881073,-0.2027885615825653,0.055162213742733
1761505853980273200,1.816273193359375,-0.11746037751436234,-0.21407200396060944,0.010661778971552849
1761505854000429000,1.836428955078125,-0.1539904773235321,-0.22365695238113403,-0.012995990924537182
1761505854020585000,1.8565849609375,-0.20001372694969177,-0.253274530172348,-0.06132999062538147
1761505854040742100,1.8767421875,-0.21025578677654266,-0.2492627501487732,-0.15546061098575592
1761505854060898000,1.89689794921875,-0.1859675645828247,-0.198894202709198,-0.23188592493534088
1761505854081054200,1.91705419921875,-0.11531446129083633,-0.17546136677265167,-0.23527829349040985
1761505854101210000,1.937210205078125,0.015359550714492798,-0.19368430972099304,-0.19659201800823212
1761505854121367300,1.9573671875,0.19139854609966278,-0.1421370953321457,-0.07136211544275284
1761505854141523200,1.977523193359375,0.28900089859962463,-0.036275602877140045,0.06355564296245575
1761505854161679000,1.99767919921875,0.2856515645980835,-0.03807181492447853,0.09315845370292664
1761505854181836000,2.0178359375,0.24525585770606995,-0.12750737369060516,0.0474073626101017
1761505854201992000,2.037991943359375,0.17226114869117737,-0.20639625191688538,0.03179235756397247
1761505854222148000,2.058148193359375,0.08903053402900696,-0.23694363236427307,0.11974918097257614
1761505854242304000,2.078303955078125,0.013506028801202774,-0.19905272126197815,0.21906937658786774
1761505854262461200,2.098461181640625,-0.032212741672992706,-0.123606376349926,0.23568274080753326
1761505854282617000,2.1186171875,-0.06354909390211105,-0.036793097853660583,0.16421310603618622
1761505854302773200,2.138773193359375,-0.09460994601249695,0.022145278751850128,0.08464756608009338
1761505854322930200,2.15893017578125,-0.11985895037651062,0.07340553402900696,0.07870166003704071
1761505854343086300,2.17908642578125,-0.16260507702827454,0.07287343591451645,0.08807918429374695
1761505854363242200,2.1992421875,-0.19105742871761322,0.07733982056379318,0.09451457113027573
1761505854383398100,2.219398193359375,-0.18914832174777985,0.11504361033439636,0.10642386227846146
1761505854403555000,2.23955517578125,-0.15844225883483887,0.153714120388031,0.1068810448050499
1761505854423711000,2.2597109375,-0.14612559974193573,0.1412746012210846,0.05670301988720894
1761505854443867100,2.2798671875,-0.17363448441028595,0.07157815992832184,-0.03378142789006233
1761505854464024000,2.300024169921875,-0.2500396966934204,-0.049025796353816986,-0.14716219902038574
1761505854484180200,2.32018017578125,-0.3338455557823181,-0.14490677416324615,-0.2450186014175415
1761505854504336100,2.340336181640625,-0.3536505401134491,-0.14488384127616882,-0.2986743450164795
1761505854524493300,2.360493408203125,-0.2824806272983551,-0.12413240224123001,-0.30994147062301636
1761505854544649200,2.380649169921875,-0.15427833795547485,-0.0394083671271801,-0.2707776427268982
1761505854564805000,2.40080517578125,-0.018990909680724144,0.024628452956676483,-0.16194474697113037
1761505854584961300,2.420961181640625,0.0517568401992321,0.0521252378821373,-0.0568520613014698
1761505854605118000,2.441117919921875,0.05203833803534508,0.03594892844557762,-0.01567799411714077
1761505854625274000,2.461274169921875,0.02024787664413452,-0.021479032933712006,-0.005979071371257305
1761505854645430000,2.481429931640625,-0.004001079127192497,-0.08109806478023529,-0.030197149142622948
1761505854665587200,2.501587158203125,-0.00546175055205822,-0.12620694935321808,-0.10281316936016083
1761505854685743000,2.5217431640625,-0.002182311611250043,-0.17810827493667603,-0.21022406220436096
1761505854705899300,2.541899169921875,-0.0002926840679720044,-0.23263579607009888,-0.28682953119277954
1761505854726055200,2.56205517578125,0.005831919610500336,-0.26867473125457764,-0.30161580443382263
1761505854746212400,2.58221240234375,0.04675858095288277,-0.27103862166404724,-0.2726536691188812
1761505854766368300,2.6023681640625,0.11752253770828247,-0.2487364262342453,-0.2703140676021576
1761505854786524200,2.622524169921875,0.17121313512325287,-0.16424208879470825,-0.2271796613931656
1761505854806681000,2.64268115234375,0.2101842612028122,-0.06623177975416183,-0.16609692573547363
1761505854826837000,2.6628369140625,0.24621564149856567,0.06871992349624634,-0.0916551873087883
1761505854846993200,2.6829931640625,0.27869850397109985,0.18598316609859467,-0.1000039279460907
1761505854867150000,2.703150146484375,0.2775440514087677,0.23436251282691956,-0.14479932188987732
1761505854887306200,2.72330615234375,0.2475212961435318,0.23126280307769775,-0.18171381950378418
1761505854907462100,2.743462158203125,0.21995268762111664,0.248167484998703,-0.18444661796092987
1761505854927618000,2.7636181640625,0.18232446908950806,0.22309048473834991,-0.19280396401882172
1761505854947775700,2.783775634765625,0.1735573709011078,0.2202455699443817,-0.17798300087451935
1761505854967932000,2.803931884765625,0.17820194363594055,0.14210696518421173,-0.14565055072307587
1761505854988087800,2.824087890625,0.20305202901363373,0.10566280037164688,-0.09622141718864441
1761505855008245000,2.844244873046875,0.23229937255382538,0.1270541548728943,-0.025303810834884644
1761505855028401000,2.86440087890625,0.2745935618877411,0.1755373179912567,0.0353102870285511
1761505855048556800,2.884556884765625,0.3091122806072235,0.2211153656244278,0.06121814250946045
1761505855068714000,2.9047138671875,0.30587098002433777,0.23687009513378143,0.0640428215265274
1761505855088870000,2.924869873046875,0.2892191708087921,0.254424124956131,0.09301752597093582
1761505855109026000,2.945026123046875,0.27446410059928894,0.2925374507904053,0.13393715023994446
1761505855129182000,2.965181884765625,0.27357688546180725,0.3309042155742645,0.16918697953224182
1761505855149339000,2.9853388671875,0.33185669779777527,0.31976228952407837,0.19203445315361023
1761505855169494800,3.005494873046875,0.3059736490249634,0.15160082280635834,0.1469862163066864
1761505855189651000,3.02565087890625,0.1392332762479782,0.047363147139549255,-0.0020574324298650026
1761505855209808000,3.045807861328125,-0.023771587759256363,-0.11075902730226517,-0.12579503655433655
1761505855229964000,3.065964111328125,-0.15411774814128876,-0.20042520761489868,0.0003422738518565893
1761505855250120000,3.086119873046875,-0.16100361943244934,-0.1415065973997116,0.24088479578495026
1761505855270277000,3.106277099609375,-0.08187179267406464,-0.07385968416929245,0.4012613892555237
1761505855290433000,3.12643310546875,0.039368823170661926,0.09594795107841492,0.3922681510448456
1761505855310589000,3.1465888671875,0.1234494000673294,0.27974745631217957,0.2549516260623932
1761505855330745000,3.1667451171875,0.1389942616224289,0.37305235862731934,0.142933189868927
1761505855350901800,3.18690185546875,0.10413388162851334,0.36255839467048645,0.12453406304121017
1761505855371058000,3.207057861328125,0.06742611527442932,0.31721237301826477,0.1520431488752365
1761505855391213800,3.2272138671875,0.036253493279218674,0.24775797128677368,0.17737475037574768
1761505855411371000,3.24737109375,0.042716436088085175,0.21747459471225739,0.1850997656583786
1761505855431527000,3.26752685546875,0.0835273414850235,0.21097847819328308,0.17929892241954803
1761505855451682800,3.287682861328125,0.13250674307346344,0.20155023038387299,0.16278992593288422
1761505855471840000,3.307840087890625,0.15765342116355896,0.19143079221248627,0.15835684537887573
1761505855491996000,3.327995849609375,0.16985799372196198,0.17377030849456787,0.16941656172275543
1761505855512152000,3.348152099609375,0.15663619339466095,0.14825451374053955,0.19422069191932678
1761505855532308000,3.368307861328125,0.12517935037612915,0.09745161235332489,0.19416707754135132
1761505855552465000,3.38846484375,0.06426764279603958,0.057315289974212646,0.1873377561569214
1761505855572620800,3.408620849609375,0.005882577039301395,0.009512837044894695,0.1602214127779007
1761505855592777000,3.42877685546875,-0.03698664903640747,-0.03327293321490288,0.12605375051498413
1761505855612934000,3.448933837890625,-0.07510746270418167,-0.042503759264945984,0.07379798591136932
1761505855633090000,3.469090087890625,-0.09699168056249619,-0.01637965627014637,0.025602269917726517
1761505855653246000,3.489245849609375,-0.08999671787023544,-0.01220910344272852,-0.014120752923190594
1761505855673403100,3.509403076171875,-0.08091653883457184,-0.0454743355512619,-0.024439815431833267
1761505855693559000,3.52955908203125,-0.08751212060451508,-0.09289050102233887,-0.02756499871611595
1761505855713715000,3.54971484375,-0.11967357248067856,-0.09573923796415329,-0.06430500000715256
1761505855733871000,3.56987109375,-0.15655264258384705,-0.0616290308535099,-0.1576891988515854
1761505855754027800,3.59002783203125,-0.1675303727388382,0.04511219263076782,-0.25240498781204224
1761505855774184000,3.610183837890625,-0.14106342196464539,0.21730801463127136,-0.3091234862804413
1761505855794339800,3.63033984375,-0.0740663930773735,0.37038350105285645,-0.295614629983902
1761505855814497000,3.6504970703125,-0.018312392756342888,0.4109904170036316,-0.25357457995414734
1761505855834653000,3.67065283203125,-0.00853758305311203,0.36998534202575684,-0.20068614184856415
1761505855854808800,3.690808837890625,-0.04280763491988182,0.2861033082008362,-0.15679694712162018
1761505855874966000,3.710966064453125,-0.06176040321588516,0.17284196615219116,-0.10314476490020752
1761505855895122000,3.731121826171875,-0.04338362067937851,0.05976136028766632,-0.02823038212954998
1761505855915278000,3.751278076171875,-0.01959141343832016,-0.058836352080106735,0.023477308452129364
1761505855935434800,3.771434814453125,-0.011051684617996216,-0.1365969330072403,0.04373783618211746
1761505855955591000,3.7915908203125,-0.027060305699706078,-0.19211801886558533,0.014938661828637123
1761505855975746800,3.811746826171875,-0.07236005365848541,-0.21657085418701172,-0.023265967145562172
1761505855995903000,3.831903076171875,-0.13226118683815002,-0.22574886679649353,-0.07281699031591415
1761505856016060000,3.852059814453125,-0.1829138547182083,-0.21748444437980652,-0.10541708767414093
1761505856036216000,3.872216064453125,-0.22434455156326294,-0.21137964725494385,-0.11602524667978287
1761505856056372000,3.8923720703125,-0.26460549235343933,-0.21168239414691925,-0.07611747831106186
1761505856076529200,3.912529052734375,-0.28721022605895996,-0.16379259526729584,-0.006330785341560841
1761505856096685000,3.93268505859375,-0.28515055775642395,-0.12886358797550201,0.04455798491835594
1761505856116841000,3.952841064453125,-0.26043620705604553,-0.10043643414974213,0.07176446169614792
1761505856136998000,3.972997802734375,-0.22890666127204895,-0.06911376118659973,0.10092243552207947
1761505856157153800,3.99315380859375,-0.21710239350795746,-0.07806606590747833,0.1418619602918625
1761505856177309000,4.013308837890625,-0.2572208344936371,-0.13814599812030792,0.15937086939811707
1761505856197464800,4.03346484375,-0.30183613300323486,-0.20004794001579285,0.1636912077665329
1761505856217620700,4.053620849609375,-0.3336426317691803,-0.2476915717124939,0.1555444896221161
1761505856237778000,4.07377783203125,-0.37259137630462646,-0.26906293630599976,0.11610493808984756
1761505856257933800,4.093933837890625,-0.3976943790912628,-0.30241817235946655,0.062087126076221466
1761505856278090000,4.114090087890625,-0.4300828278064728,-0.3511773645877838,0.0006103662308305502
1761505856298246000,4.134245849609375,-0.43289676308631897,-0.32747700810432434,-0.0895150899887085
1761505856318403000,4.154403076171875,-0.41418448090553284,-0.2662351429462433,-0.1545996516942978
1761505856338559000,4.17455908203125,-0.3580140769481659,-0.15130065381526947,-0.163910374045372
1761505856358715000,4.19471484375,-0.2459254413843155,-0.03748108074069023,-0.12986528873443604
1761505856378871800,4.214871826171875,-0.13659735023975372,-0.028223181143403053,-0.08355347067117691
1761505856399027700,4.23502783203125,-0.12379816919565201,-0.12721674144268036,-0.06971854716539383
1761505856419183900,4.255183837890625,-0.1820734590291977,-0.23063509166240692,-0.04401775449514389
1761505856439340800,4.2753408203125,-0.2328306883573532,-0.24685481190681458,0.049693021923303604
1761505856459497000,4.2954970703125,-0.18736791610717773,-0.22682912647724152,0.15747582912445068
1761505856479652900,4.31565283203125,-0.11212138831615448,-0.20298536121845245,0.21488504111766815
1761505856499810000,4.33581005859375,-0.031143903732299805,-0.13596211373806,0.2143847644329071
1761505856519966000,4.355966064453125,-0.01010139100253582,-0.07294444739818573,0.18374034762382507
1761505856540122000,4.3761220703125,-0.056370869278907776,-0.025539960712194443,0.1571795493364334
1761505856560278000,4.396278076171875,-0.09712240099906921,-0.001003366895020008,0.17319917678833008
1761505856580435000,4.41643505859375,-0.11998415738344193,0.01585426740348339,0.19433845579624176
1761505856600593000,4.436593017578125,-0.12148658186197281,0.020246397703886032,0.16808944940567017
1761505856620749000,4.4567490234375,-0.11433719098567963,0.010164422914385796,0.11895237118005753
1761505856640905000,4.476905029296875,-0.12981487810611725,-0.008038103580474854,0.0767914205789566
1761505856661062000,4.497061767578125,-0.12557362020015717,0.010311557911336422,0.0853155106306076
1761505856681217800,4.5172177734375,-0.07591820508241653,0.06431163102388382,0.12681792676448822
1761505856701373700,4.537373779296875,-0.036876335740089417,0.1260817050933838,0.13772031664848328
1761505856721529900,4.55752978515625,-0.06715700030326843,0.12924255430698395,0.07904526591300964
1761505856741686800,4.577686767578125,-0.14999766647815704,0.06967136263847351,-0.02353530377149582
1761505856761843000,4.597843017578125,-0.21614447236061096,0.02498660236597061,-0.11699433624744415
1761505856781998800,4.617998779296875,-0.2695125639438629,0.01511115487664938,-0.19962632656097412
1761505856802156000,4.638156005859375,-0.2803860604763031,0.04023168608546257,-0.23894163966178894
1761505856822312000,4.65831201171875,-0.2503189742565155,0.09042725712060928,-0.24175338447093964
1761505856842468000,4.678468017578125,-0.17094774544239044,0.14271686971187592,-0.2058398425579071
1761505856862624800,4.698624755859375,-0.04119832441210747,0.2246781885623932,-0.0879199206829071
1761505856882781000,4.718781005859375,0.011709080077707767,0.1599995493888855,-0.005580594763159752
1761505856902936800,4.738936767578125,-0.03592789173126221,-0.0343887060880661,0.04799108952283859
1761505856923094000,4.759093994140625,-0.10366056114435196,-0.17951688170433044,0.08580105006694794
1761505856943250000,4.77925,-0.1508694440126419,-0.19352692365646362,0.1188824474811554
1761505856963409200,4.7994091796875,-0.15867798030376434,-0.16768963634967804,0.08315127342939377
1761505856983565300,4.8195654296875,-0.11919225007295609,-0.11569657176733017,-0.0279458649456501
1761505857003722200,4.83972216796875,-0.07326745986938477,-0.037098828703165054,-0.13361510634422302
1761505857023878400,4.85987841796875,-0.035998787730932236,0.021464835852384567,-0.1960325688123703
1761505857044034300,4.880034423828125,-0.0022275664377957582,0.07980772852897644,-0.20463672280311584
1761505857064191200,4.900191162109375,0.06016017869114876,0.10771606117486954,-0.2167559713125229
1761505857084347100,4.92034716796875,0.16418865323066711,0.14551278948783875,-0.1934564709663391
1761505857104503000,4.9405029296875,0.25883570313453674,0.18762269616127014,-0.13624630868434906
1761505857124660200,4.96066015625,0.3107426166534424,0.20021162927150726,-0.07487713545560837
1761505857144816000,4.980816162109375,0.32086291909217834,0.16231495141983032,-0.005994429811835289
1761505857164972300,5.00097216796875,0.32131558656692505,0.13623766601085663,0.07739786803722382
1761505857185128200,5.021128173828125,0.3326968550682068,0.1341024786233902,0.1552467942237854
1761505857205285400,5.041285400390625,0.3513023555278778,0.1400298774242401,0.20127859711647034
1761505857225441300,5.061441162109375,0.37289151549339294,0.13920415937900543,0.20681098103523254
1761505857245597400,5.081597412109375,0.4173705279827118,0.1849813312292099,0.20623764395713806
1761505857265754000,5.101754150390625,0.5440529584884644,0.24028632044792175,0.2234175205230713
1761505857285910300,5.12191015625,0.6550893187522888,0.17294178903102875,0.20487721264362335
1761505857306066200,5.142066162109375,0.5978568196296692,-0.016930893063545227,0.1381382942199707
1761505857326223000,5.16222314453125,0.4326012134552002,-0.213126540184021,0.15823739767074585
1761505857346379300,5.182379150390625,0.3322385251522064,-0.08792749047279358,0.260872483253479
1761505857366535200,5.20253515625,0.4112393856048584,0.03262734040617943,0.35334473848342896
1761505857386692400,5.2226923828125,0.556662917137146,0.10509932786226273,0.4223470687866211
1761505857406848300,5.24284814453125,0.631078839302063,0.0745815858244896,0.4314201772212982
1761505857427004400,5.26300439453125,0.5882656574249268,0.06591552495956421,0.42398974299430847
1761505857447160300,5.283160400390625,0.46761447191238403,0.08786264061927795,0.3759637475013733
1761505857467317200,5.303317138671875,0.3457934260368347,0.11021361500024796,0.27962517738342285
1761505857487473200,5.32347314453125,0.26562008261680603,0.14971472322940826,0.19883474707603455
1761505857507629000,5.343629150390625,0.25885632634162903,0.21015214920043945,0.16520710289478302
1761505857527786200,5.3637861328125,0.27434659004211426,0.25758612155914307,0.13903334736824036
1761505857547942100,5.383942138671875,0.3044601082801819,0.3508450388908386,0.04744276404380798
1761505857568098300,5.404098388671875,0.39425739645957947,0.4235420525074005,-0.07382950931787491
1761505857588255200,5.424255126953125,0.47257035970687866,0.43178367614746094,-0.14246025681495667
1761505857608411400,5.444411376953125,0.5154777765274048,0.35239508748054504,-0.1980280876159668
1761505857628567300,5.4645673828125,0.4900144934654236,0.21443068981170654,-0.2342030555009842
1761505857648724200,5.48472412109375,0.42456626892089844,0.06568174064159393,-0.21066415309906006
1761505857668880100,5.504880126953125,0.3746951222419739,-0.017577368766069412,-0.1793820858001709
1761505857689036300,5.525036376953125,0.3602801561355591,-0.04154546558856964,-0.20709024369716644
1761505857709192200,5.545192138671875,0.3332850933074951,-0.06506867706775665,-0.26813963055610657
1761505857729349000,5.56534912109375,0.26227378845214844,-0.11170599609613419,-0.3186747431755066
1761505857749505300,5.58550537109375,0.17904722690582275,-0.09362389147281647,-0.38611167669296265
1761505857769661200,5.6056611328125,0.07740431278944016,-0.07791954278945923,-0.4757237434387207
1761505857789818400,5.625818359375,-0.034978095442056656,-0.05301744118332863,-0.5447052121162415
1761505857809974300,5.645974365234375,-0.09808340668678284,0.006744171492755413,-0.539880633354187
1761505857830130400,5.66613037109375,-0.06376789510250092,0.16251565515995026,-0.43550828099250793
1761505857850287000,5.686287109375,0.0454900786280632,0.2664790749549866,-0.30479729175567627
1761505857870443300,5.706443359375,0.17998245358467102,0.317423552274704,-0.2259121537208557
1761505857890599200,5.72659912109375,0.2640025317668915,0.31354159116744995,-0.22401154041290283
1761505857910755000,5.746755126953125,0.25962474942207336,0.21589592099189758,-0.20582111179828644
1761505857930912300,5.766912353515625,0.17962631583213806,0.052980996668338776,-0.13435839116573334
1761505857951064800,5.78706494140625,0.06556814908981323,-0.12348157167434692,-0.05540161579847336
1761505857971220700,5.807220703125,-0.039248988032341,-0.27810555696487427,-0.018539361655712128
1761505857991378000,5.8273779296875,-0.10846602916717529,-0.3403224050998688,-0.02080722153186798
1761505858011533800,5.847533935546875,-0.14680609107017517,-0.23756535351276398,-0.038183391094207764
1761505858031689700,5.867689697265625,-0.16501620411872864,-0.07895533740520477,-0.05073746293783188
1761505858051846700,5.8878466796875,-0.1765052229166031,0.028349190950393677,-0.04944707825779915
1761505858072002600,5.90800244140625,-0.19423553347587585,0.08414880931377411,-0.05567753687500954
1761505858092158700,5.92815869140625,-0.23912520706653595,0.16122645139694214,-0.09284014254808426
1761505858112315600,5.948315673828125,-0.22908732295036316,0.1006414145231247,-0.13109618425369263
1761505858132471800,5.968471923828125,-0.1867257058620453,-0.03369690850377083,-0.11964083462953568
1761505858152627700,5.988627685546875,-0.13562080264091492,-0.16283439099788666,-0.039695799350738525
1761505858172785000,6.008784912109375,-0.07912209630012512,-0.22217942774295807,0.0844554677605629
1761505858192940800,6.02894091796875,-0.04969262704253197,-0.22960472106933594,0.18436601758003235
1761505858213097000,6.049096923828125,0.0021973904222249985,-0.18266162276268005,0.24326865375041962
1761505858233252900,6.0692529296875,0.06308857351541519,-0.1719730794429779,0.2434634417295456
1761505858253409800,6.089409912109375,0.122097447514534,-0.20692643523216248,0.23714180290699005
1761505858273565700,6.109565673828125,0.13981527090072632,-0.252623975276947,0.2179761826992035
1761505858293721600,6.1297216796875,0.10862221568822861,-0.25911015272140503,0.1734369397163391
1761505858313878800,6.149878662109375,0.09223754703998566,-0.15611475706100464,0.12166602909564972
1761505858334034700,6.17003466796875,0.15150125324726105,0.01222455408424139,0.12987300753593445
1761505858354190800,6.19019091796875,0.2787770926952362,0.06095521152019501,0.18155477941036224
1761505858374347800,6.21034765625,0.3775714039802551,-0.010856140404939651,0.2474333941936493
1761505858394504000,6.23050390625,0.4076608419418335,-0.06596815586090088,0.34380903840065
1761505858414659800,6.250659912109375,0.3973710238933563,-0.10967862606048584,0.42456087470054626
1761505858434816800,6.270816650390625,0.39565223455429077,-0.12600776553153992,0.42851996421813965
1761505858454972700,6.29097265625,0.4304457902908325,-0.12266789376735687,0.32480672001838684
1761505858475128600,6.311128662109375,0.4584154784679413,-0.09456003457307816,0.16025310754776
1761505858495284700,6.33128466796875,0.4521560072898865,-0.04982900619506836,0.06277664750814438
1761505858515441700,6.351441650390625,0.43221479654312134,-0.008144676685333252,0.053663045167922974
1761505858535597800,6.371597900390625,0.393717885017395,0.03878648206591606,0.032853834331035614
1761505858555753700,6.391753662109375,0.3605048954486847,0.06235484033823013,-0.04163948446512222
1761505858575911000,6.411910888671875,0.34899842739105225,0.06814543157815933,-0.14588384330272675
1761505858596066800,6.43206689453125,0.3557755947113037,0.07736142724752426,-0.24264012277126312
1761505858616223000,6.452222900390625,0.3780044615268707,0.13375644385814667,-0.2827208638191223
1761505858636379600,6.472379638671875,0.4179656207561493,0.18176396191120148,-0.2390773743391037
1761505858656535800,6.492535888671875,0.4686773121356964,0.25046205520629883,-0.14339213073253632
1761505858676691700,6.512691650390625,0.5426352024078369,0.3272131383419037,-0.07720134407281876
1761505858696849000,6.532848876953125,0.5721232295036316,0.35443633794784546,-0.07513585686683655
1761505858717004800,6.5530048828125,0.57928067445755,0.35959136486053467,-0.0974864810705185
1761505858737160700,6.57316064453125,0.5663923025131226,0.319169819355011,-0.08800700306892395
1761505858757316900,6.59331689453125,0.5487021803855896,0.25984668731689453,-0.05519639328122139
1761505858777473800,6.613473876953125,0.5209872126579285,0.19744083285331726,-0.05990194156765938
1761505858797630000,6.6336298828125,0.49629974365234375,0.13669465482234955,-0.10983514785766602
1761505858817785900,6.653785888671875,0.49097517132759094,0.11743801832199097,-0.1812518686056137
1761505858837942800,6.67394287109375,0.4817158877849579,0.10421457141637802,-0.2522887885570526
1761505858858098700,6.6940986328125,0.476404070854187,0.0876936987042427,-0.32964974641799927
1761505858878254600,6.714254638671875,0.49641603231430054,0.10797904431819916,-0.3950623869895935
1761505858898411800,6.734411865234375,0.5612093806266785,0.170929953455925,-0.40434062480926514
1761505858918567700,6.754567626953125,0.639640748500824,0.18308378756046295,-0.3868679404258728
1761505858938723800,6.774723876953125,0.6727573871612549,0.1340089589357376,-0.36514928936958313
1761505858958881000,6.794881103515625,0.672153651714325,0.08712054789066315,-0.3255819082260132
1761505858979037000,6.815036865234375,0.6758414506912231,0.07808151096105576,-0.3107598125934601
1761505858999192800,6.83519287109375,0.6899392008781433,0.07154367119073868,-0.31954947113990784
1761505859019348700,6.8553486328125,0.7292993068695068,0.09301459789276123,-0.35725492238998413
1761505859039506000,6.875505859375,0.7880017757415771,0.15407130122184753,-0.38227105140686035
1761505859059661800,6.895661865234375,0.8258386254310608,0.17988954484462738,-0.4003011882305145
1761505859079817700,6.915817626953125,0.8466697335243225,0.17466947436332703,-0.38953709602355957
1761505859099975000,6.935974853515625,0.8765034675598145,0.15756462514400482,-0.35281550884246826
1761505859120130800,6.956130859375,0.9278410077095032,0.1606496423482895,-0.30613973736763
1761505859140287000,6.976286865234375,1.0026193857192993,0.16474205255508423,-0.26510778069496155
1761505859160444000,6.99644384765625,1.086950421333313,0.12013012170791626,-0.21807077527046204
1761505859180599800,7.016599853515625,1.1280521154403687,0.08611711114645004,-0.14505164325237274
1761505859200755700,7.036755615234375,1.2316641807556152,0.08420073986053467,-0.06691807508468628
1761505859220913000,7.056912841796875,1.325327754020691,0.04764331132173538,-0.0036788987927138805
1761505859241068800,7.07706884765625,1.4707609415054321,0.10515737533569336,0.045332010835409164
1761505859261225000,7.097224853515625,1.5829520225524902,0.25020912289619446,0.05899975076317787
1761505859281380900,7.117380859375,1.6860206127166748,0.38986486196517944,0.051797959953546524
1761505859301538000,7.1375380859375,1.8179247379302979,0.4823629856109619,-0.0002919354010373354
1761505859321694000,7.15769384765625,1.923532247543335,0.47499382495880127,-0.06633681803941727
1761505859341849900,7.177849853515625,1.9469276666641235,0.4031960666179657,-0.08784878253936768
1761505859362006800,7.1980068359375,1.9042589664459229,0.31742072105407715,-0.08563008904457092
1761505859382162700,7.21816259765625,1.8754512071609497,0.31800150871276855,-0.0732814371585846
1761505859402318800,7.23831884765625,1.8789653778076172,0.4493350088596344,-0.09048321098089218
1761505859422475800,7.258475830078125,1.9000073671340942,0.6104965209960938,-0.12848903238773346
1761505859442632000,7.2786318359375,1.9007649421691895,0.6872169375419617,-0.16034357249736786
1761505859462787800,7.298787841796875,1.8459630012512207,0.6365329027175903,-0.15933829545974731
1761505859482945000,7.318945068359375,1.7491077184677124,0.542827308177948,-0.10285763442516327
1761505859503101000,7.339100830078125,1.6370353698730469,0.4760376214981079,-0.0004658845718950033
1761505859523256800,7.3592568359375,1.526881456375122,0.4207874834537506,0.07817010581493378
1761505859543413000,7.3794130859375,1.4281177520751953,0.33832553029060364,0.08578003197908401
1761505859563569700,7.399569580078125,1.3697645664215088,0.2638384699821472,0.0875474214553833
1761505859583725800,7.419725830078125,1.3660935163497925,0.2673678994178772,0.10453583300113678
1761505859603881700,7.4398818359375,1.390068531036377,0.3012733459472656,0.10784757882356644
1761505859624039000,7.460038818359375,1.3928972482681274,0.29730063676834106,0.08673892915248871
1761505859644194800,7.48019482421875,1.3018913269042969,0.28428715467453003,0.03807154297828674
1761505859664351000,7.50035107421875,1.179162859916687,0.3134223222732544,0.013951537199318409
1761505859684508000,7.5205078125,1.0577651262283325,0.34917089343070984,0.03548737242817879
1761505859704664000,7.5406640625,0.9886277914047241,0.42372822761535645,0.048604145646095276
1761505859724820000,7.560820068359375,0.9817873239517212,0.4703313112258911,0.01633269339799881
1761505859744977000,7.580976806640625,1.0067236423492432,0.503473699092865,-0.05203642323613167
1761505859765132800,7.6011328125,1.0325229167938232,0.5233209133148193,-0.1269771158695221
1761505859785288700,7.621288818359375,0.9980229735374451,0.46034809947013855,-0.18503881990909576
1761505859805444900,7.64144482421875,0.9431125521659851,0.4119425117969513,-0.20053187012672424
1761505859825601800,7.661601806640625,0.9379764199256897,0.4030899703502655,-0.209504172205925
1761505859845758000,7.681758056640625,0.9819979667663574,0.39038732647895813,-0.2612453103065491
1761505859865913900,7.701913818359375,1.024462342262268,0.3794073164463043,-0.3513758182525635
1761505859886071000,7.722071044921875,1.0676774978637695,0.3742777407169342,-0.43578922748565674
1761505859906227000,7.74222705078125,1.0931050777435303,0.2916547358036041,-0.4806770980358124
1761505859926382800,7.7623828125,1.1010507345199585,0.23465074598789215,-0.4677291512489319
1761505859946542800,7.78254296875,1.0953599214553833,0.2303866744041443,-0.44847092032432556
1761505859966698800,7.80269873046875,1.0911976099014282,0.19743981957435608,-0.45050108432769775
1761505859986855000,7.82285498046875,1.081020474433899,0.16417723894119263,-0.44344422221183777
1761505860007011600,7.843011474609375,1.0548721551895142,0.11904110014438629,-0.4169152081012726
1761505860027167700,7.863167724609375,1.0149692296981812,0.06956423074007034,-0.356269896030426
1761505860047323600,7.88332373046875,0.9563269019126892,0.044475167989730835,-0.29515257477760315
1761505860067479800,7.903479736328125,0.8877044916152954,0.015761010348796844,-0.2584233283996582
1761505860087636700,7.92363671875,0.8008198142051697,-0.03221619129180908,-0.26053178310394287
1761505860107793000,7.94379296875,0.6994842886924744,-0.07225548475980759,-0.2866487503051758
1761505860127948800,7.96394873046875,0.5824756622314453,-0.12181953340768814,-0.3311306834220886
1761505860148106000,7.98410595703125,0.4869197607040405,-0.11142667382955551,-0.2997102439403534
1761505860168262000,8.004261962890626,0.4419202208518982,-0.09008827805519104,-0.22806517779827118
1761505860188416800,8.024416748046875,0.43856146931648254,-0.028242003172636032,-0.14218838512897491
1761505860208573000,8.044572998046876,0.447517991065979,0.03017803654074669,-0.10534799844026566
1761505860228728800,8.064728759765625,0.4665857255458832,0.1497659534215927,-0.08619614690542221
1761505860248885800,8.0848857421875,0.43118706345558167,0.16849587857723236,-0.08613879978656769
1761505860269041700,8.105041748046874,0.4635082483291626,0.14604142308235168,-0.08845654875040054
1761505860289197600,8.125197509765625,0.545461118221283,0.17470619082450867,-0.08023013174533844
1761505860309354800,8.145354736328125,0.620090126991272,0.20810750126838684,-0.06345529854297638
1761505860329510700,8.1655107421875,0.6345459818840027,0.21745182573795319,-0.05255720391869545
1761505860349666800,8.185666748046875,0.6239157915115356,0.18984150886535645,-0.028666919097304344
1761505860369823700,8.20582373046875,0.6177935600280762,0.16227827966213226,-0.00008709356188774109
1761505860389980000,8.22597998046875,0.5966552495956421,0.12522850930690765,0.013825992122292519
1761505860410135800,8.2461357421875,0.5437021255493164,0.05510788410902023,0.018765689805150032
1761505860430291700,8.266291748046875,0.48979830741882324,0.0020238524302840233,0.04079773277044296
1761505860450448600,8.28644873046875,0.44089803099632263,-0.017830422148108482,0.03256010636687279
1761505860470604500,8.3066044921875,0.40115630626678467,-0.0028788503259420395,-0.00448670145124197
1761505860490760700,8.3267607421875,0.3974120318889618,0.05099920183420181,-0.029854025691747665
1761505860510917600,8.346917724609375,0.4063352048397064,0.10006435215473175,-0.02609357237815857
1761505860531073800,8.36707373046875,0.42559579014778137,0.144581139087677,-0.005415637511759996
1761505860551229700,8.387229736328125,0.44568878412246704,0.1568291038274765,0.025254303589463234
1761505860571387600,8.4073876953125,0.4581599831581116,0.13736382126808167,0.08316303044557571
1761505860591543600,8.42754345703125,0.4564211368560791,0.07275354117155075,0.14568279683589935
1761505860611700700,8.44770068359375,0.45760399103164673,-0.008683388121426105,0.19102917611598969
1761505860631856600,8.467856689453125,0.4721958041191101,0.0012571653351187706,0.1987403780221939
1761505860652012800,8.4880126953125,0.4931904077529907,0.05310700833797455,0.17000950872898102
1761505860672169700,8.508169677734376,0.5133256316184998,0.11354526877403259,0.1408088654279709
1761505860692326000,8.528325927734375,0.5125576257705688,0.12590505182743073,0.14044202864170074
1761505860712481800,8.548481689453125,0.48987483978271484,0.12793898582458496,0.17683550715446472
1761505860732637700,8.5686376953125,0.45456403493881226,0.09976691752672195,0.18258962035179138
1761505860752794600,8.588794677734375,0.42943477630615234,0.06926338374614716,0.17537513375282288
1761505860772950500,8.608950439453125,0.3952525854110718,0.006545761600136757,0.15149381756782532
1761505860793106700,8.629106689453126,0.36028748750686646,-0.01370482612401247,0.1377202570438385
1761505860813263600,8.649263671875,0.3175279498100281,-0.02778434008359909,0.11604709923267365
1761505860833419800,8.669419677734375,0.28793999552726746,-0.029550675302743912,0.12089438736438751
1761505860853575700,8.68957568359375,0.28685611486434937,-0.023480355739593506,0.1533815711736679
1761505860873732900,8.70973291015625,0.2934320271015167,-0.030519399791955948,0.1927737146615982
1761505860893888800,8.729888671875,0.2748357057571411,-0.02813582494854927,0.2226293534040451
1761505860914045000,8.750044921875,0.2579476237297058,-0.025550078600645065,0.17909497022628784
1761505860934200800,8.770200927734376,0.27113714814186096,0.012621545232832432,0.10044064372777939
1761505860954354200,8.790354248046874,0.2973334491252899,0.1286078542470932,-0.0057937633246183395
1761505860974510000,8.810510009765625,0.31656983494758606,0.22165292501449585,-0.09934283792972565
1761505860994666200,8.830666259765625,0.2986777722835541,0.21578460931777954,-0.1352197825908661
1761505861014823200,8.8508232421875,0.24325965344905853,0.13509699702262878,-0.09580162912607193
1761505861034979300,8.870979248046876,0.19786463677883148,0.1036360040307045,-0.03484653681516647
1761505861055135200,8.89113525390625,0.19089360535144806,0.1540859043598175,0.003578102681785822
1761505861075292400,8.91129248046875,0.23229745030403137,0.2276502400636673,-0.030896741896867752
1761505861095448300,8.9314482421875,0.27892154455184937,0.27234548330307007,-0.08660383522510529
1761505861115604500,8.9516044921875,0.30516383051872253,0.2708852291107178,-0.10246270895004272
1761505861135761200,8.97176123046875,0.3222942650318146,0.2572685778141022,-0.04946402832865715
1761505861155917300,8.991917236328124,0.33259835839271545,0.19928964972496033,0.006140752695500851
1761505861176073200,9.0120732421875,0.36467209458351135,0.13382261991500854,0.032804787158966064
1761505861196229000,9.03222900390625,0.4177842438220978,0.08961339294910431,0.03408938646316528
1761505861216386300,9.05238623046875,0.4449476897716522,0.050406962633132935,0.005995478015393019
1761505861236542200,9.072542236328125,0.44923943281173706,0.044110849499702454,-0.026869727298617363
1761505861256698400,9.092698486328125,0.4689953327178955,0.03421836346387863,-0.03590711951255798
1761505861276855300,9.112855224609374,0.4890512228012085,0.027664367109537125,-0.020322412252426147
1761505861297011500,9.133011474609376,0.5194512009620667,0.0814727395772934,-0.010645817033946514
1761505861317167400,9.15316748046875,0.5555829405784607,0.13723492622375488,-0.046560075134038925
1761505861337323300,9.1733232421875,0.5787498354911804,0.16567914187908173,-0.12582823634147644
1761505861357480200,9.193480224609376,0.5762997269630432,0.16461604833602905,-0.20894761383533478
1761505861377636000,9.213635986328125,0.5575694441795349,0.1654006540775299,-0.2514766752719879
1761505861397792300,9.233792236328124,0.5464372038841248,0.17588694393634796,-0.2526897192001343
1761505861417949200,9.25394921875,0.5712070465087891,0.1938691884279251,-0.24398593604564667
1761505861438105300,9.274105224609375,0.606872022151947,0.18902888894081116,-0.23756878077983856
1761505861458261200,9.29426123046875,0.6611195802688599,0.19206927716732025,-0.22446130216121674
1761505861478418400,9.31441845703125,0.7156471014022827,0.1718398630619049,-0.2029404640197754
1761505861498574300,9.33457421875,0.7486604452133179,0.0852976143360138,-0.19729584455490112
1761505861518730500,9.35473046875,0.7583575248718262,0.0005512107163667679,-0.1879226267337799
1761505861538887200,9.37488720703125,0.7670472860336304,-0.017826907336711884,-0.17360103130340576
1761505861559043300,9.395043212890625,0.7735270261764526,0.006770710460841656,-0.1776704043149948
1761505861579199200,9.41519921875,0.7799169421195984,0.04773359373211861,-0.22720199823379517
1761505861599355100,9.435355224609374,0.7693508267402649,0.03499431908130646,-0.2787645757198334
1761505861619512300,9.45551220703125,0.7666508555412292,0.03869353607296944,-0.25314342975616455
1761505861639668200,9.475668212890625,0.7664327621459961,0.08729702979326248,-0.20357029139995575
1761505861659824400,9.495824462890624,0.7652950882911682,0.15548940002918243,-0.18851050734519958
1761505861679981300,9.515981201171876,0.741741955280304,0.1919430047273636,-0.20654277503490448
1761505861700137500,9.536137451171875,0.7159033417701721,0.2076936513185501,-0.1907968819141388
1761505861720293400,9.55629345703125,0.6743875741958618,0.2245302051305771,-0.14750078320503235
1761505861740449300,9.57644921875,0.6250327825546265,0.27086853981018066,-0.1288459450006485
1761505861760606200,9.596606201171875,0.5929496884346008,0.3188856840133667,-0.15414965152740479
1761505861780762000,9.61676220703125,0.5658136606216431,0.3417714238166809,-0.18834416568279266
1761505861800918300,9.636918212890626,0.5425421595573425,0.33719775080680847,-0.18161408603191376
1761505861821075200,9.6570751953125,0.5226340293884277,0.3284624218940735,-0.1386130452156067
1761505861841231400,9.6772314453125,0.5159777402877808,0.3082272410392761,-0.11311431229114532
1761505861861387300,9.69738720703125,0.5054982900619507,0.2596253752708435,-0.13655543327331543
1761505861881544400,9.71754443359375,0.4941596984863281,0.2085622400045395,-0.15282878279685974
1761505861901700400,9.737700439453125,0.4895409047603607,0.19138392806053162,-0.13322852551937103
1761505861921856500,9.7578564453125,0.49021196365356445,0.18238620460033417,-0.10868734121322632
1761505861942012400,9.778012451171875,0.5054168105125427,0.1720288246870041,-0.08945203572511673
1761505861962169600,9.798169677734375,0.5197415351867676,0.14239032566547394,-0.07065300643444061
1761505861982325500,9.818325439453124,0.5315844416618347,0.1362278014421463,-0.021517138928174973
1761505862002481700,9.838481689453126,0.5447651147842407,0.14938382804393768,0.028370801359415054
1761505862022638600,9.858638671875,0.5677859783172607,0.17988936603069305,0.03510332107543945
1761505862042794800,9.878794677734374,0.5935482382774353,0.18611441552639008,0.04410702362656593
1761505862062950700,9.89895068359375,0.584713876247406,0.09028948843479156,0.05319792032241821
1761505862083106600,9.9191064453125,0.4908308684825897,-0.06833314150571823,0.07476301491260529
1761505862103263700,9.939263671875,0.35546013712882996,-0.060386043041944504,0.09648121148347855
1761505862123419600,9.959419677734376,0.29916998744010925,0.1712743490934372,0.19466395676136017
1761505862143575600,9.979575439453125,0.3640954792499542,0.29340359568595886,0.32904648780822754
1761505862163732500,9.999732421875,0.4454682469367981,0.28019198775291443,0.3914213478565216
1761505862183888600,10.019888671875,0.45880118012428284,0.2809782922267914,0.3437516391277313
1761505862204044500,10.04004443359375,0.39210450649261475,0.29834073781967163,0.28099143505096436
1761505862224201700,10.06020166015625,0.3140377998352051,0.31680765748023987,0.2404492199420929
1761505862244357600,10.080357666015624,0.2634352743625641,0.4013420641422272,0.16235458850860596
1761505862264513800,10.100513671875,0.23351924121379852,0.3853003978729248,0.05800348520278931
1761505862284669700,10.120669677734375,0.24035435914993286,0.3392750322818756,0.015004441142082214
1761505862304826600,10.14082666015625,0.28957152366638184,0.31841841340065,0.044949933886528015
1761505862324982500,10.160982421875,0.36551526188850403,0.32327812910079956,0.07850600779056549
1761505862345138400,10.181138427734375,0.4358256757259369,0.2851150631904602,0.0484546534717083
1761505862365295600,10.201295654296874,0.48276734352111816,0.2607249617576599,-0.00913997646421194
1761505862385451500,10.221451416015626,0.5317317843437195,0.30218255519866943,-0.022208821028470993
1761505862405607700,10.241607666015625,0.5728262066841125,0.3604280650615692,-0.0130469910800457
1761505862425764600,10.2617646484375,0.6248658299446106,0.3761431574821472,-0.01812814548611641
1761505862445920800,10.281920654296876,0.7325058579444885,0.3683674931526184,-0.00578056275844574
1761505862466076700,10.30207666015625,0.7536499500274658,0.2858074903488159,0.007072586566209793
1761505862486232600,10.322232666015625,0.7514151930809021,0.22063866257667542,0.0010329659562557936
1761505862506389500,10.342389404296876,0.6824402809143066,0.12364500761032104,-0.02989019826054573
1761505862526545400,10.36254541015625,0.5598242282867432,0.03435751050710678,-0.047712717205286026
1761505862546701600,10.38270166015625,0.4135339856147766,-0.03580586612224579,-0.03921603038907051
1761505862566858500,10.4028583984375,0.3069642186164856,0.000851927325129509,-0.041907068341970444
1761505862587014700,10.4230146484375,0.32198619842529297,0.09921178966760635,-0.10486406087875366
1761505862607170600,10.443170654296875,0.3561922013759613,0.17915384471416473,-0.1922316700220108
1761505862627326700,10.46332666015625,0.3797438442707062,0.3197021782398224,-0.2713502049446106
1761505862647483600,10.483483642578125,0.3995644152164459,0.3711070716381073,-0.31629395484924316
1761505862667639800,10.503639892578125,0.3283795118331909,0.3717176616191864,-0.3157138228416443
1761505862687795700,10.523795654296874,0.21436887979507446,0.2797045111656189,-0.2768116593360901
1761505862707952600,10.54395263671875,0.07804729789495468,0.1555275171995163,-0.25046998262405396
1761505862728108500,10.564108642578125,0.011646304279565811,0.05039013922214508,-0.26219603419303894
1761505862748264400,10.584264404296874,-0.016725532710552216,-0.02780967950820923,-0.2919907569885254
1761505862768421600,10.604421630859376,-0.016225522384047508,-0.038735076785087585,-0.29433339834213257
1761505862788577500,10.62457763671875,-0.06358839571475983,0.06536540389060974,-0.25428178906440735
1761505862808733700,10.644733642578124,-0.08776194602251053,0.21329912543296814,-0.2178649604320526
1761505862828889600,10.6648896484375,-0.19109024107456207,0.2780658006668091,-0.12164552509784698
1761505862849046800,10.685046875,-0.23757880926132202,0.011097462847828865,-0.08869437128305435
1761505862869202700,10.70520263671875,-0.2542838156223297,-0.05726206302642822,-0.05508243665099144
1761505862889358600,10.725358642578126,-0.2581564486026764,-0.04198506474494934,-0.08569318801164627
1761505862909515500,10.745515625,-0.28481972217559814,-0.05758954584598541,-0.06090259552001953
