time,seconds_elapsed,z,y,x
1761432044705666800,0.084666748046875,0.49470834777057165,-0.6156959033682942,-0.018372618971392512
1761432044725609700,0.104609619140625,0.4305716834247112,-0.6258481718093156,-0.0733902303814888
1761432044745551600,0.124551513671875,0.3562573239356279,-0.5909080835923552,0.0024278116688132285
1761432044765494500,0.14449462890625,0.3597539338797331,-0.39573622462600466,-0.05668700592704117
1761432044785436700,0.164436767578125,0.16157529431283474,-0.40142157678604123,-0.005173237919434905
1761432044805379600,0.184379638671875,0.18115970022678374,-0.3815528009727597,-0.24720362296607343
1761432044825321700,0.20432177734375,0.3817898245990276,-0.18435878852903842,-0.3713872346587479
1761432044845264600,0.2242646484375,0.6521896507680416,-0.0032528643161058423,-0.498063613015227
1761432044865206800,0.244206787109375,0.9009475539714098,0.03139174808561802,-0.4287028573455289
1761432044885149700,0.264149658203125,1.0170523059636354,-0.001393207924067974,-0.4397941602023318
1761432044905091800,0.284091796875,1.097819202592969,-0.20743980438709259,-0.37682084054742004
1761432044925034800,0.30403466796875,1.1068857216238974,-0.28751813423037526,-0.3501011028608307
1761432044944976600,0.3239765625,1.284375208905339,-0.4459332109466195,-0.44039179730191824
1761432044964919600,0.34391943359375,1.429883165514469,-0.6684247462540864,-0.5962553629044443
1761432044984861700,0.36386181640625,1.362709325429797,-0.6619082039669155,-0.7794738222919404
1761432045004804600,0.3838046875,0.6530722788214683,-0.4789917232006788,-0.8362092704705893
1761432045024746800,0.403746826171875,0.12735329123735428,-0.19662205777466296,-0.7034008556324988
1761432045044689700,0.423689697265625,0.41193829462528225,-0.15036884064376355,-0.4137438827425241
1761432045064631800,0.4436318359375,0.9869809928268194,-0.5658534295737743,-0.4502816884797066
1761432045084574700,0.46357470703125,0.8437877429008483,-1.2181766435936092,-0.7769856587380171
1761432045104516900,0.483516845703125,0.1011836617141962,-1.5206491858497262,-1.0058093196764588
1761432045124459800,0.503459716796875,-0.04209200579822063,-1.667391652689874,-0.6502792871020734
1761432045144401700,0.523401611328125,0.10759878945350647,-1.653503412590921,-0.5767073800107464
1761432045164344800,0.5433447265625,0.2774240257173776,-1.7269389434188602,-0.7655045528460294
1761432045184286700,0.56328662109375,0.06735854900181293,-1.7887724453888831,-1.1021508020564914
1761432045204229600,0.583229736328125,-0.5214461325705051,-1.7143483419150114,-1.2497732666015624
1761432045224171500,0.603171630859375,-0.9454173948168754,-1.6280993606127798,-0.9205550485000014
1761432045244114700,0.62311474609375,-0.6222802501946687,-1.3925995829112827,-0.9238738176591694
1761432045264056600,0.643056640625,-0.017297171759605406,-1.2032460548348725,-1.0909246207736432
1761432045283999700,0.662999755859375,-0.10829203241467475,-0.7919080641902982,-1.6973517605371773
1761432045303941600,0.682941650390625,-1.5048831691801547,-0.4330008102677762,-1.149704799587652
1761432045323884800,0.702884765625,-2.630102419874072,-0.6087497374922036,0.5125348406339064
1761432045343826700,0.72282666015625,-2.6230261978775262,-1.241841158428043,1.6167591975614428
1761432045363769900,0.742769775390625,-1.422973532256484,-1.0055508148707448,0.14642482485887592
1761432045383711500,0.76271142578125,-0.9564110825181007,-0.819896725834161,-0.8849307774111628
1761432045403654700,0.782654541015625,-1.2049030282616615,-0.43214638539552686,-0.39031536862105126
1761432045423596500,0.802596435546875,-1.044603160712123,0.22760376375466584,0.3392468236302957
1761432045443539700,0.822539794921875,-0.5825614032685756,0.8429325873762369,0.6193056182980538
1761432045463481600,0.842481689453125,-0.17100012526214123,0.5356467996194958,0.9805508136488497
1761432045483424800,0.8624248046875,0.4658645306020975,0.19373802677094934,0.8746647463973611
1761432045503366700,0.88236669921875,1.0942781689852477,-0.18858575857430696,0.7246340516667813
1761432045523309800,0.902309814453125,1.4555635502159594,-0.5429094840988516,0.48982919742688535
1761432045543251700,0.922251708984375,1.6152695435255764,-0.5527782594233751,0.34964554111305624
1761432045563194600,0.942194580078125,1.2357114235013722,-0.26941753713339567,0.11852929399171844
1761432045583136500,0.962136474609375,0.9663543843835591,0.07121405538618564,0.20676603331137447
1761432045603079700,0.98207958984375,0.828458071821928,0.13690145630538464,0.46014425325915215
1761432045623021300,1.002021240234375,0.8858809177428484,0.11400368805974721,0.7465721080347896
1761432045642964500,1.021964599609375,0.9129460348010062,-0.05011339969038963,0.7387181065987796
1761432045662906400,1.04190625,0.8352706744462252,-0.23863281503021716,0.5386435337500647
1761432045682849300,1.061849365234375,0.6550894638627767,-0.4192828121691942,0.6369154362034052
1761432045702791400,1.08179150390625,0.3606804010748863,-0.551719105759263,0.7469215790595859
1761432045722734300,1.101734375,-0.06214812087714672,-0.6852171833619475,0.5916194832647219
1761432045742676500,1.121676513671875,-0.26978666270673274,-0.7024591178029775,0.34557558826040474
1761432045762619400,1.141619384765625,0.16729601004719732,-0.7822638914018869,0.4161914220251143
1761432045782561500,1.1615615234375,1.0413292536079883,-0.8026844558790326,0.1645584383094683
1761432045802504400,1.18150439453125,1.349059570261836,-0.9273299494624138,-0.08545321868150495
1761432045822446300,1.2014462890625,0.9045786039501428,-1.246002808152139,-0.05841529102437198
1761432045842389200,1.22138916015625,0.4158224425822496,-1.3164654606491326,0.02757677464103326
1761432045862331400,1.241331298828125,-0.22210370503365992,-1.126154193456471,0.046053968231752514
1761432045882274300,1.2612744140625,-1.1270061341106892,-0.6991358185991644,0.12473620407413691
1761432045902216400,1.281216552734375,-1.794708411309123,-0.3633113341003656,0.17949841595105825
1761432045922159400,1.301159423828125,-2.243010981735587,-0.266134569939971,0.6358141969632357
1761432045942101500,1.3211015625,-2.1979887677043677,-0.8588684076547622,1.7483369746260344
1761432045962044400,1.34104443359375,-0.9542202944755553,-1.319377840964496,1.6368702576979994
1761432045981986600,1.360986572265625,0.27430852404534817,-0.6946116191729903,-0.49917643309533594
1761432046001929500,1.380929443359375,0.5762251859843731,-0.33601971480995413,-1.8609196899719536
1761432046021871400,1.400871337890625,-0.7048077267557382,0.9080486181482672,-1.723315784485638
1761432046041814300,1.420814208984375,-1.4838362894982098,1.7651529387399554,-0.7167552080504596
1761432046061756400,1.44075634765625,-1.5075959352701902,1.7769544356927274,0.20611447406746447
1761432046081699300,1.46069921875,-0.2728501419305801,1.252627486988902,-0.08385121771181002
1761432046101641500,1.480641357421875,0.9454735089182853,0.4666720475926995,-0.4787424611473456
1761432046121584400,1.50058447265625,1.6231564973831176,0.02849982603639364,-0.4429739958148449
1761432046141526500,1.520526611328125,1.8227637084484098,0.06279606339186429,-0.24431849598381666
1761432046161469400,1.540469482421875,1.6434762318342924,0.23217151006162165,0.11736893584229982
1761432046181411600,1.56041162109375,0.9197358410716057,0.4243737055674195,0.17903012258587403
1761432046201354500,1.5803544921875,0.515437247544527,0.4580450890228152,-0.12848095269356855
1761432046221296400,1.60029638671875,0.4462140737146139,0.04685381337255239,-0.3974335300631821
1761432046241239300,1.6202392578125,0.6199713887304067,-0.3890732596054673,-0.6143796331379562
1761432046261181400,1.640181396484375,0.6074275489777327,-0.6201818166106939,-0.5766682901093736
1761432046281124400,1.660124267578125,0.45391631865501403,-0.6878621449127793,-0.6072967987375334
1761432046301066500,1.68006640625,0.1753752716064453,-0.6833218711346387,-0.7375529352769256
1761432046321009400,1.700009521484375,-0.27194296395778655,-0.7168143908917903,-0.6389239995468408
1761432046340951600,1.71995166015625,-0.5203378790676594,-0.7860249975010752,-0.2422643399329856
1761432046360894500,1.73989453125,0.03987432974874973,-0.6847898978605866,-0.2468930774458684
1761432046380836600,1.759836669921875,0.7482604995131492,-0.5131640419155359,-0.25260493402034045
1761432046400779500,1.779779541015625,0.5930693532794714,-0.3113312637552619,-0.29438904291316864
1761432046420721400,1.799721435546875,-0.2933633531272411,-0.02054915929287672,-0.09523958555273711
1761432046440664600,1.81966455078125,-0.8329132976651191,0.05256868388801813,0.14817595197567715
1761432046460606500,1.8396064453125,-0.9422130458176136,-0.020281740528345107,0.31702980419043447
1761432046480549400,1.85954931640625,-0.4926028999239206,-0.35591391732543703,0.1922208271410316
1761432046500491300,1.8794912109375,-0.20192484035789965,-1.3268795948967336,1.1806097140043974
1761432046520434400,1.899434326171875,0.20769699401855468,-1.9935846777513622,1.6083673629216848
1761432046540376300,1.919376220703125,0.7270534608334303,-1.9147654080584644,0.44210886688549067
1761432046560319500,1.939319580078125,0.564623010995984,-1.4366861235275863,-0.2820514115233905
1761432046580261400,1.959261474609375,-0.44496202782690525,-0.28008418483734127,-0.07889090102384798
1761432046600204500,1.97920458984375,-1.198120820775628,0.8017410375490784,0.10429253271603957
1761432046620147700,1.999147705078125,-0.6228396376430988,0.900851984642446,0.7565786843948066
1761432046640090600,2.019090576171875,1.192680675548315,0.4260296560809016,0.3302442001484334
1761432046660032800,2.03903271484375,2.1454630461752413,-0.03131605250090361,-0.3452343736073002
1761432046679975700,2.0589755859375,2.152539852693677,-0.4856906363174319,-0.09121000124309211
1761432046699917600,2.07891748046875,1.2055664606064558,-0.480084194612503,0.3979877664124593
1761432046719860500,2.098860595703125,0.4182803571283817,-0.048699441239237785,1.1663487681355327
1761432046739802600,2.118802734375,0.20410744509398937,0.47448944334536786,1.2437291641317307
1761432046759745500,2.13874560546875,0.5348357754975557,0.7822194677382707,0.8246778956960886
1761432046779687700,2.158687744140625,0.5506079296469688,0.7345566760703921,0.7211142800427973
1761432046799630600,2.178630615234375,0.512609915164113,0.43101621232181786,0.7761242196030914
1761432046819572700,2.19857275390625,0.6135638597756624,0.22454349940121174,0.5801280386418104
1761432046839515600,2.218515625,0.7485702961146831,-0.09344283832907677,0.6205276343736797
1761432046859457800,2.238457763671875,0.3967518314093351,-0.2881225298643112,0.8064930543817579
1761432046879400700,2.258400634765625,-0.0656646045655012,-0.2192176282033324,0.8981010054338723
1761432046899342600,2.278342529296875,-0.1505541340827942,-0.0053739481233060354,1.3497681569226085
1761432046919285500,2.298285400390625,0.11380056670308113,0.21259499519318342,1.2728102971874176
1761432046939227600,2.3182275390625,0.12087211252450943,0.12275018135607242,0.7256833415240049
1761432046959170600,2.338170654296875,-0.32542204068899155,-0.3239358937844634,0.15449565651649608
1761432046979112700,2.35811279296875,-0.9964385570019483,-0.49914691473990674,-0.22521186364945023
1761432046999055600,2.3780556640625,-1.5102210230767725,-0.5485182638913393,-0.34600440813172606
1761432047018997800,2.397997802734375,-1.4805243884712458,-0.5160629782274365,-0.18873506738450377
1761432047038940700,2.417940673828125,-1.4426888710737227,-0.5562088183939456,0.28503307594899085
1761432047058882800,2.4378828125,-1.1706629050076007,-0.277859786786139,0.10206929457546211
1761432047078825700,2.45782568359375,-0.6745575499206781,0.17966390871107576,-0.5893431358305737
1761432047098767600,2.477767578125,-0.7314514035314321,0.22204437606185673,-0.7673127713117748
1761432047118709500,2.49770947265625,-1.5642062957644463,0.6436737513571977,-1.1114598246064036
1761432047138652700,2.517652587890625,-2.35561444760859,1.3365890880063176,-1.2139184016272424
1761432047158594600,2.537594482421875,-2.283572709226608,1.3056953525707125,-0.29940829584728923
1761432047178537700,2.557537841796875,-0.7296756260305642,1.164397707132995,0.2502231169177219
1761432047198479600,2.577479736328125,0.5262222609311342,1.036788395307958,-0.1737064616113901
1761432047218422500,2.597422607421875,1.158665008699894,0.519223195824027,-0.3237793880484998
1761432047238364700,2.61736474609375,1.5774989080578088,0.3241851923704147,-0.6841334797784686
1761432047258307600,2.6373076171875,1.714216824489832,0.35874914075136183,-0.6571130055796355
1761432047278249700,2.657249755859375,1.1614859113395213,0.5925055819168686,-0.02323625208553858
1761432047298192600,2.677192626953125,0.6901052476644516,0.6907432533070444,0.23147503396375105
1761432047318134500,2.697134521484375,0.8370920446544885,0.5787716555967927,0.10045518304286524
1761432047338077400,2.717077392578125,1.4207102634996176,0.16727642856389283,-0.2158958451031707
1761432047358019600,2.73701953125,1.7841572066783904,-0.18148878605067728,-0.4329716937711462
1761432047377962500,2.75696240234375,1.2268348740845918,-0.30505145283341406,-0.32828663633987304
1761432047397904600,2.776904541015625,0.2924392240196466,-0.21230828720629213,-0.0655731451560743
1761432047417847600,2.79684765625,-0.08957038080990314,-0.11274521243125199,0.061577070390386505
1761432047437789700,2.816789794921875,0.04838555298447609,-0.3656707567080855,0.11800590943843126
1761432047457732600,2.836732666015625,0.4909656541109085,-0.4587304409384727,-0.1585183544276282
1761432047477674800,2.8566748046875,0.3662053019762039,-0.6256620015874504,-0.624450579971075
1761432047497617700,2.87661767578125,-0.34124212563335893,-0.8595666190519928,-0.6458382359147071
1761432047517559600,2.8965595703125,-1.121959372115135,-0.7631196304708718,-0.5590069246798753
1761432047537502500,2.91650244140625,-1.4767448699325323,-0.30078064364641904,-0.5294805320747197
1761432047557444600,2.936444580078125,-1.8004764733165501,-0.04736673133075237,-0.35219409308470784
1761432047577387500,2.956387451171875,-1.7375684739828108,-0.3909264862567186,0.4740622309092432
1761432047597329700,2.97632958984375,-0.765480514383316,-1.0975663968756795,0.8054525323528796
1761432047617271300,2.996271240234375,0.17724515713155267,-1.2291159707590937,0.03245002496689558
1761432047637213200,3.016213134765625,0.25348551624715326,-1.1589794814765453,-0.26401313907289875
1761432047657156400,3.03615625,-0.20983283700346944,-0.6119982178941369,-0.12226210557818412
1761432047677098200,3.05609814453125,-0.6013625498503447,0.2682557998776436,0.1197405146786943
1761432047697041200,3.076041259765625,-0.35642508171796794,0.39582331838756796,0.7746236057817936
1761432047716983300,3.0959833984375,0.3850479496121406,0.6294570099562407,0.42779677535127847
1761432047736926200,3.11592626953125,0.6650239978998899,0.4156067540049553,0.10636390476315281
1761432047756868400,3.135868408203125,0.32444939626455305,0.16246376758515835,0.40401111835520714
1761432047776811300,3.155811279296875,-0.005113982012867928,0.03220774064362049,0.7151563945516943
1761432047796753400,3.17575341796875,0.20130524715483186,0.2048185159727931,0.7569226024616509
1761432047816696300,3.1956962890625,0.8125573228567838,0.588211684115231,0.5178369656300172
1761432047836638200,3.21563818359375,1.1447674162507055,0.9477464222863315,0.6168444158162921
1761432047856581000,3.2355810546875,1.2870318608939646,1.0097463668644429,0.9155294023577123
1761432047876523300,3.255523193359375,1.4386539164692163,0.6063496906131506,0.8317934998549521
1761432047896466200,3.275466064453125,1.626451447275281,0.029358488692343233,0.18951741340123116
1761432047916408300,3.295408203125,1.395636027997732,-0.34007278959304094,-0.30808081059195097
1761432047936351200,3.315351318359375,0.712195498919487,-0.30749183172285555,-0.3136745389457792
1761432047956293400,3.33529345703125,0.028258126235008237,-0.018790332926809785,0.22988803876694291
1761432047976236300,3.355236328125,-0.03751110774874687,0.24522417611926792,0.6761027335360645
1761432047996178400,3.375178466796875,0.3113110977500677,0.3485530331686139,0.562507187885791
1761432048016121300,3.395121337890625,0.3676139997303486,0.2797244116142392,0.37185653267093
1761432048036063200,3.415063232421875,0.10747136368155479,-0.0056105333581566805,0.16405416031545028
1761432048056005000,3.435005126953125,-0.3369125719964504,-0.29842531269192696,-0.11323666747631504
1761432048075948300,3.4549482421875,-0.6266629953235388,-0.37184155429750676,-0.590046790587902
1761432048095890200,3.47489013671875,-1.1205717171490193,-0.38602614699453114,-0.5837049838131293
1761432048115833300,3.494833251953125,-1.4329635958731173,-0.7623319872245192,0.5406658698905259
1761432048135775200,3.514775146484375,-1.2919471054643392,-0.9923436889037489,1.3188153847761452
1761432048155718400,3.534718505859375,-0.3997989440202713,-0.051257309028506275,-0.4070203831737861
1761432048175660300,3.554660400390625,-0.29457272891700265,-0.06589665975570679,-1.243994390939176
1761432048195603500,3.574603515625,-1.2056290044486522,0.48093905787616964,-1.5783780289798974
1761432048215545300,3.59454541015625,-1.7320447421252727,1.1641808495119212,-1.4974854601442813
1761432048235488500,3.614488525390625,-1.656779950043559,1.3498536432489752,-0.732600573566556
1761432048255430100,3.63443017578125,-0.6657488050431013,0.8932356644198298,0.01808212985852733
1761432048275373300,3.654373291015625,0.8044412364184856,0.39347120230346916,-0.5139420040180906
1761432048295315200,3.674315185546875,1.6560738476008177,-0.08789894046634435,-1.1417256374020128
1761432048315258400,3.69425830078125,1.920461866134405,-0.3500795120835304,-1.3359963828101753
1761432048335200300,3.7142001953125,1.3369886087179184,-0.11444207947701215,-0.9203324187252669
1761432048355143400,3.734143310546875,0.4206622838288545,0.3236369108378887,-0.4823340193659067
1761432048375085300,3.754085205078125,0.05866144780516624,0.6266323079243302,-0.3539941282439977
1761432048395028500,3.774028564453125,0.3432908748567104,0.8180103275656699,-0.3729662109458819
1761432048414970400,3.793970458984375,0.6757470519661903,0.7350041275769472,-0.33704120334479953
1761432048434913300,3.813913330078125,0.7888917851090431,0.2604106393352151,-0.5330065142437815
1761432048454855200,3.833855224609375,0.774100458690524,-0.2277595388382673,-0.8020099906835705
1761432048474798000,3.853798095703125,0.46404900561273094,-0.5567477475762367,-0.8916475184455513
1761432048494740200,3.873740234375,-0.07057692652642726,-0.6065881755441427,-0.5806357324356213
1761432048514683100,3.89368310546875,-0.055363575303554534,-0.6344067413181066,-0.03648139709153911
1761432048534625300,3.913625244140625,0.333397841873765,-0.6632140258684754,0.2287570071767084
1761432048554568200,3.933568115234375,0.8189566685050725,-0.9356722458720207,-0.17253840421270578
1761432048574510300,3.95351025390625,0.6985720472365617,-1.0735621286928654,-0.7339077106423676
1761432048594453200,3.973453369140625,0.021679916888475415,-0.8305293251380323,-0.46554370114989574
1761432048614394000,3.99339404296875,-1.0616185929208992,-0.6508136862397194,-0.48299127769824113
1761432048634336500,4.01333642578125,-1.6716232989102602,-0.3864648306727409,-0.48718489346317945
1761432048654279400,4.033279541015625,-1.8520938478291034,-0.10799480303376913,-0.3645395607210696
1761432048674221300,4.05322119140625,-1.5107710581749676,-0.14411708677262067,0.5899699259594082
1761432048694164200,4.073164306640625,-0.3252835090011358,-0.31544571333676574,0.9982404187921434
1761432048714106400,4.0931064453125,0.28219898503422736,-1.0262313454583287,1.2354188702955842
1761432048734049300,4.11304931640625,0.1859679772913456,-1.6368758106559513,1.2709369045309722
1761432048753991400,4.132991455078125,0.48671091927587984,-1.3015814875110983,0.045014469116181136
1761432048773934300,4.152934326171875,0.4706207852184772,-0.36096857036650176,-1.4064927914462984
1761432048793876500,4.17287646484375,-0.6309481252968311,0.41662323757112024,-0.7260399729419499
1761432048813819400,4.1928193359375,-1.1021148539602756,1.060412724262476,0.5592643335070461
1761432048833761500,4.212761474609375,-0.4855062196612358,1.1448685385376214,0.9344887351758777
1761432048853704400,4.232704345703125,0.7997311590313911,0.6912734146609902,0.5444971916817128
1761432048873646600,4.252646484375,1.5264397519499062,0.04828267713189125,0.30573326108511534
1761432048893589500,4.272589599609375,1.462319454216957,-0.174055421179533,0.35543146757073696
1761432048913531400,4.292531494140625,1.0534545756876468,-0.10600538278222084,0.5293672809585929
1761432048933474300,4.312474365234375,0.728922761836648,0.11818681896328925,0.530928977317363
1761432048953416400,4.33241650390625,0.643162294703722,0.4057406090289354,0.27897048797439783
1761432048973359400,4.352359375,0.6792711344391107,0.6325619902342557,0.0795724078814499
1761432048993302300,4.37230224609375,0.7363420981824398,0.4916559744626283,0.08598833933835849
1761432049013244400,4.392244384765625,0.7044727957129479,0.09283464330285787,0.09206038926104083
1761432049033186600,4.4121865234375,0.5420563744008541,-0.24715105252861974,-0.14010270003210754
1761432049053129500,4.43212939453125,0.8074883490294218,-0.3723459966883063,-0.10660717546711675
1761432049073071400,4.4520712890625,1.239581542932987,-0.23738456853479145,0.1720249382652342
1761432049093014500,4.4720146484375,1.2909504956424236,-0.04211217180341482,0.41163638906925915
1761432049112956200,4.4919560546875,0.6992331414937972,-0.08849018435776233,0.40061559416539966
1761432049132899300,4.5118994140625,0.2833908251672983,-0.13539602017849683,0.3923892157530412
1761432049152841200,4.53184130859375,0.21122224553525445,-0.28054508034735914,0.26346957024810835
1761432049172784400,4.551784423828125,0.178399003341794,-0.3201838477745652,-0.19859642658755183
1761432049192726300,4.571726318359375,-0.45317397585511204,-0.40346857244372364,-0.33604141518510877
1761432049212669400,4.59166943359375,-1.263209671279788,-0.23745588020533323,-0.3488941747564822
1761432049232611300,4.611611328125,-1.5500538517713547,-0.3684957510009408,-0.0391099212475121
1761432049252554500,4.631554443359375,-0.9798813899546861,-1.001373675316572,0.5515461968777701
1761432049272496400,4.651496337890625,-0.016057400831580162,-0.8948162116095423,-0.4904843733999878
1761432049292439600,4.671439453125,-0.3296533946484327,-0.3853390415132045,-1.576338632106781
1761432049312381200,4.691381103515625,-1.7135387790977954,0.7414841372460127,-1.3033341763973236
1761432049332324400,4.711324462890625,-2.7760546131193635,1.7182754522308705,-0.7712376896705478
1761432049352266200,4.731266357421875,-2.6797271592646834,1.6284323919594288,0.1265514002699405
1761432049372209400,4.75120947265625,-0.6159259127318859,1.2886775822743772,-0.1992508901746012
1761432049392151300,4.7711513671875,0.7445861949145793,0.4778676876068115,-0.9163976365596056
1761432049412094500,4.791094482421875,1.1592454389363527,-0.13882161071300506,-0.860164877206087
1761432049432036400,4.811036376953125,0.6215811620146036,-0.1967053521439433,-0.36801556626856324
1761432049451979500,4.8309794921875,0.02747077524960041,0.24084727620929477,-0.30853885655775665
1761432049471921400,4.85092138671875,-0.4521569077670574,0.5639186621189117,-0.5271455132558942
1761432049491864300,4.8708642578125,-0.36256489964723587,0.7070075748875737,-0.45251310079358514
1761432049511806500,4.890806396484375,-0.18806465730965136,0.6887491568803786,0.08465471611442044
1761432049531749400,4.910749267578125,0.6414777026176453,0.3626382571443915,0.024341226785909383
1761432049551691300,4.930691162109375,1.4328069440066813,-0.17118951035439967,-0.35059023808464407
1761432049571634200,4.95063427734375,1.7062188114732504,-0.570964196716249,-0.8224452412731945
1761432049591576300,4.970576416015625,1.5583903029620647,-0.7899103145018219,-0.844921642301604
1761432049611519200,4.990519287109375,0.7911398562967776,-0.8396215631321072,-0.6409534595478326
1761432049631461000,5.010461181640625,0.15734510939717292,-0.6669318773478269,-0.2829753945005126
1761432049651404000,5.030404052734375,-0.04424889157116413,-0.09291092340946197,0.12577906419057397
1761432049671346000,5.050345947265625,0.1311766489177942,-0.010094108512997626,0.6684365828223526
1761432049691288000,5.0702880859375,0.3121937258034944,-0.36413989387899637,0.608492328665033
1761432049711231000,5.09023095703125,0.3125380091965198,-0.6013444296717644,-0.28823786333967
1761432049731173000,5.110173095703125,-0.05315992777943611,-0.5861304939270019,-0.5181363504353911
1761432049751116000,5.130115966796875,-0.6714402946829795,-1.3509510830968618,0.2070652719862759
1761432049771058200,5.15005810546875,-1.2869798384457827,-2.0446017482832075,0.32182807131763547
1761432049791001000,5.1700009765625,-0.5116752646625041,-1.8329720909908414,-0.36088176886588336
1761432049810943200,5.189943115234375,0.15602642801404,-1.47345722656399,-0.7328310213215649
1761432049830886100,5.20988623046875,-0.4345844261974096,-0.5171390830263495,-0.29252220786167304
1761432049850828000,5.229828125,-1.4283832823455334,0.8869479624524712,0.17957354528019204
1761432049870771000,5.24977099609375,-1.5651573128789662,1.6946783035442232,0.6371542864605784
1761432049890713000,5.269713134765625,-1.0842430971831083,1.2952768344089387,0.7195222616109996
1761432049910656000,5.289656005859375,-0.46699908758997916,0.7983817902490496,0.07439608295578509
1761432049930598100,5.30959814453125,-0.38434652334451674,0.3096224140107631,0.07134327125642448
1761432049950541000,5.329541015625,-0.14997662645578383,0.25895371852517124,0.5578058052618057
1761432049970483000,5.34948291015625,0.19886253017783165,0.29934067397117614,0.9360896675664931
1761432049990426000,5.369426025390625,0.7183586977243424,0.40404987946301696,0.782291290865466
1761432050010368000,5.389367919921875,1.010771618258953,0.8312363043636083,0.28310028125550596
1761432050030311200,5.409311279296875,1.0398568429678678,0.940257820096612,0.32263745147176087
1761432050050253000,5.429253173828125,0.8733160352021455,0.7362380532860755,0.461412994553335
1761432050070196200,5.4491962890625,0.9889023162782191,0.11313421174883842,0.5664526741085574
1761432050090137900,5.469137939453125,1.1502174983501434,-0.06860065801739693,-0.18108363931588828
1761432050110080000,5.489080078125,0.9138725019961595,-0.04293693218976259,-0.471490261529386
1761432050130023000,5.50902294921875,0.27869243821799755,0.17444938893318176,0.03591149053238332
1761432050149966000,5.528966064453125,-0.019017419680953024,0.4562392086446285,0.7170950344640761
1761432050169908000,5.548907958984375,0.4275035280257463,0.45345951479822394,0.8638798060759901
1761432050189850000,5.56885009765625,0.861366069689393,0.46526334983855483,0.26967885495070365
1761432050209793000,5.58879296875,0.7912047382265329,0.04265723846554756,-0.074098862708034
1761432050229735200,5.608735107421875,0.5217699576973914,-0.3186068077161908,0.06527303883149288
1761432050249678000,5.628677978515625,0.5178928240031003,-0.23445991325974463,0.025926399918389506
1761432050269620000,5.648619873046875,0.45221828256547447,-0.0985933529600501,-0.08781308881379664
1761432050289563000,5.66856298828125,0.16731646831333635,0.274543794105947,-0.39144068285655226
1761432050309505000,5.688505126953125,-0.5445113663375377,0.3115583505094051,-0.29112638785541056
1761432050329448000,5.708447998046875,-1.1656523833692074,-0.3352271031275391,0.4655218546442687
1761432050349390000,5.72839013671875,-1.3995599234431981,-0.7307920628398656,0.7658432832811027
1761432050369333000,5.7483330078125,-0.6063748250544071,-0.49667497166842217,0.03291249137949198
1761432050389275100,5.768275146484375,-0.08498071493208408,-0.09848200154006481,-0.4467691868467256
1761432050409218000,5.788218017578125,-0.4836942018032074,0.007827040363848209,-1.0199816374137998
1761432050429160200,5.80816015625,-1.0208657267719508,0.43041853868961333,-1.7916567686535416
1761432050449103000,5.82810302734375,-1.175332650384307,0.3431470824718475,-1.1228366664063185
1761432050469045200,5.848045166015625,-0.6135358027249574,0.34193566085547206,-0.35327059974242
1761432050488988200,5.86798828125,0.14877484945058822,0.16175649609863757,-0.14718666694369167
1761432050508930000,5.887929931640625,0.6478156734675169,0.10239157619923353,-0.3305118746412918
1761432050528873000,5.907873046875,0.6968161434799433,-0.08667933554351329,-0.35207189147714524
1761432050548815000,5.927815185546875,0.33742519769370555,0.07815934447944164,-0.35399456663541495
1761432050568758000,5.947758056640625,0.010800795477628708,0.4835711599454283,-0.22909389271456748
1761432050588700200,5.9677001953125,0.17349486468732356,0.8981745821267366,-0.13703582327477634
1761432050608643000,5.98764306640625,0.4873632457047701,0.9701941086769104,0.06278373363325372
1761432050628588300,6.00758837890625,0.7297644733577966,0.5656888866618275,0.10633359182327985
1761432050648530200,6.0275302734375,1.114115088355541,-0.00561491727232933,-0.15180230751298368
1761432050668473300,6.047473388671875,1.4746008436411617,-0.34760815353393554,-0.4001594844283536
1761432050688415200,6.067415283203125,1.2881623262286186,-0.4568894892469048,-0.5147670931980014
1761432050708358400,6.0873583984375,0.1710048014372587,-0.46481034537404775,-0.2528763896391727
1761432050728300000,6.107300048828125,-0.42843467139601704,-0.3559554183796048,0.3772485644401982
1761432050748243200,6.1272431640625,0.030444238102436065,-0.24051965169012546,0.487293212675862
1761432050768185000,6.14718505859375,0.7271954996526241,-0.4762158287465572,0.10253493019267916
1761432050788128300,6.167128173828125,0.7008353159934282,-0.8252999000519513,-0.4085497116329148
1761432050808070100,6.187070068359375,-0.050555298238992685,-0.74199267129004,-0.7610297455195337
1761432050828013000,6.207012939453125,-1.1129530588388443,-0.5006871299192309,-0.5112054917262867
1761432050847955200,6.226955078125,-1.3856810356944798,-0.3328761560872197,-0.1741605437881313
1761432050867898000,6.246898193359375,-1.3735276565641164,-0.6215732709690928,0.3602842048315331
1761432050887840300,6.26684033203125,-1.1211614997357129,-1.0101026329562068,0.49921044496279204
1761432050907783200,6.286783203125,-1.0230214435011147,-1.072348661249876,0.6433381627272814
1761432050927725000,6.30672509765625,-0.7110153492242097,-0.6062491528481244,0.7077741753458976
1761432050947668000,6.32666796875,-0.41884149814248084,0.009309095615148543,0.6260622529514134
1761432050967610000,6.346610107421875,-0.6106131932765245,0.6549620380908251,0.5314624996721744
1761432050987553000,6.366552978515625,-0.9026099342256784,0.5139166138485074,0.43526992424353955
1761432051007495200,6.3864951171875,-0.6896124957114458,-0.06764671829342842,0.35667127503138035
1761432051027437300,6.406437255859375,-0.1604652872443199,-0.28687048397660253,0.15073592039048672
1761432051047380200,6.426380126953125,0.4187146568924188,-0.40709114685505626,0.3455944756239652
1761432051067322400,6.446322265625,0.5862140805572271,-0.26206512854397296,0.47165188183188433
1761432051087265300,6.466265380859375,0.36589550537467,-0.03218143715858459,0.6356487042032182
1761432051107207200,6.486207275390625,0.372732657918334,0.23227526269704102,0.7563678181231022
1761432051127150000,6.506150146484375,0.8642875100940466,0.5193807244732975,0.626379575272277
1761432051147092200,6.52609228515625,1.1132914970129728,0.8081494432866573,0.4293772129431367
1761432051167035100,6.54603515625,0.9381979649573564,0.8651531870126724,0.6057054013602435
1761432051186977000,6.56597705078125,0.8035100930482149,0.653641603142023,0.833354757822305
1761432051206920200,6.585920166015625,0.9788888717859983,0.22067864066660403,0.7675923919707536
1761432051226862000,6.605862060546875,1.121450838071108,0.07436608967632055,0.3774294374324381
1761432051246805200,6.62580517578125,1.0299345838904381,-0.012950374726951121,0.14638185336682943
1761432051266747100,6.6457470703125,0.8766109850943088,0.01856149260699749,0.42375352784246206
1761432051286690300,6.665690185546875,0.9022732496172189,0.06766863786429167,0.8422355450227856
1761432051306632200,6.685632080078125,0.8955190991818904,0.004822597850859165,0.8407711715586483
1761432051326575400,6.705575439453125,0.5915484273225069,-0.07127981409877539,0.26399436130719256
1761432051346517000,6.72551708984375,0.27744214589595795,-0.2287424123957753,0.042917295907530933
1761432051366460200,6.745460205078125,0.08109890506267547,-0.21194909850507973,0.22042950647743417
1761432051386402000,6.765402099609375,-0.025902503019571303,-0.02971767739355564,0.24506427284982055
1761432051406344200,6.78534423828125,-0.7284370241463184,0.06382511417865752,-0.06457478176848963
1761432051426287000,6.805287109375,-1.8759248052716253,0.2076174990415573,-0.305440634814091
1761432051446229200,6.825229248046875,-2.037729816687107,0.5592869106650352,-0.3147203216716647
1761432051466172200,6.845172119140625,-1.2949217373609543,0.5441767275556921,0.33036176211349666
1761432051486114300,6.8651142578125,-0.3951800520479679,-1.0180608984842896,1.5294186216302215
1761432051506057200,6.88505712890625,0.23748130690753458,-1.535989086061716,0.5290707091648131
1761432051525999000,6.9049990234375,1.1292635576486587,-1.2241647780925036,-0.738060154146701
1761432051545942000,6.92494189453125,1.4050877469539642,-0.18090017250776289,-1.6780395956933498
1761432051565884200,6.94488427734375,-0.18231997617781162,0.9154416510090231,-0.9560537935130298
1761432051585827000,6.9648271484375,-1.4299720128417015,1.4794094129666686,0.3474716311400756
1761432051605769200,6.984769287109375,-1.405184777587652,1.6278066612765192,0.7433511732269078
1761432051625708800,7.004708740234375,-0.4823679216355085,0.9433829663798212,0.3265085938166827
1761432051645651000,7.02465087890625,0.10982231072187423,0.18966858537495135,0.14745678912196308
1761432051665593900,7.04459375,0.3558604335725307,-0.24184826994538305,0.4061935769608244
1761432051685536000,7.064535888671875,0.22134441109895706,-0.00865443109869957,0.4095448966827243
1761432051705479000,7.08447900390625,-0.09914075770974158,0.18444880490005014,0.3456248342296108
1761432051725421000,7.104421142578125,0.028601240584254263,0.32151188150793314,0.29486301710046825
1761432051745363000,7.124363037109375,0.47119420119225974,0.27170067963451144,0.2860407916868105
1761432051765306000,7.14430615234375,0.7195400164633989,0.14620996739864348,0.05215506158582866
1761432051785247700,7.164247802734375,0.6611936259567737,-0.2063496710628271,-0.30131135298963635
1761432051805191000,7.18419091796875,0.6727180595338345,-0.48744683233499525,-0.43178730629216877
1761432051825132800,7.2041328125,0.7836608987182379,-0.8060986482366919,-0.7550665262661874
1761432051845076000,7.224075927734375,0.8053793940514326,-0.7955208478599787,-1.178533638382703
1761432051865017900,7.244017822265625,0.2292459780037403,-0.5902481583788991,-0.8436153089433908
1761432051884960800,7.263960693359375,-0.29715514662563797,-0.12714052526950836,-0.2302410899883136
1761432051904903000,7.28390283203125,-0.26937223668694493,0.27636282622665165,-0.11742657518051564
1761432051924845800,7.303845703125,0.014174655824899672,0.2191068613052368,-0.08899079082366079
1761432051944788000,7.3237880859375,0.3062771952360868,-0.3736123633623123,-0.02603575574411079
1761432051964731000,7.34373095703125,0.26393969024419783,-0.26515023507773877,-0.7105296115338802
1761432051984672800,7.3636728515625,-0.5134235696345567,0.0860340233772993,-1.0945928609576077
1761432052004615700,7.38361572265625,-1.024686746364832,0.28277415457367894,-0.9963014866188168
1761432052024557800,7.403557861328125,-1.1408452743709088,0.36522301294058557,0.09214894432732836
1761432052044500000,7.4235,-0.8214958315938711,-0.9102864602029324,2.36672489355728
1761432052064443000,7.44344287109375,-0.027250410497188567,-0.8569698805570601,1.2071259650081396
1761432052084385000,7.463385009765625,0.11516600983738899,-1.6662994735389947,0.729568804655224
1761432052104328000,7.483327880859375,-0.43630467411875723,-1.4517308401852844,-0.009928042647533584
1761432052124270000,7.50327001953125,-0.9739572606027126,-1.1030609026387332,-0.6509187540493905
1761432052144213000,7.523212890625,-1.1982646131604908,0.00013239420801401138,-0.5395571779962629
1761432052164155000,7.54315478515625,-0.9665519527822732,1.3801499973133207,0.9635617579903453
1761432052184097800,7.563097900390625,-0.7559229969650506,1.8904916752845047,2.154650415106863
1761432052204040000,7.5830400390625,-0.40320378402769563,1.4431293083176016,2.199470822955668
1761432052223982800,7.60298291015625,0.1839765112131834,0.48263738622665403,1.6168613427616654
1761432052243924700,7.6229248046875,0.7656056020677089,-0.1727086827456951,1.046799136386439
1761432052263868000,7.642867919921875,0.9940963777899742,-0.25582038893550635,0.8542352679613977
1761432052283809800,7.662809814453125,1.2117711604654788,0.32870266979485746,0.22451657486166804
1761432052303753000,7.6827529296875,1.162336975210905,0.8509381991773843,0.14521748576257376
1761432052323694800,7.70269482421875,1.0569570308506488,1.1091440219447015,0.49184915894716974
1761432052343638000,7.722637939453125,0.8737626099258661,1.0700424301341176,0.732156629191339
1761432052363580000,7.742579833984375,1.2300783860504627,0.653708823159337,0.6889630188267678
1761432052383521800,7.762521728515625,1.4873141947418451,-0.008785948523879051,0.3908002660611644
1761432052403464700,7.782464599609375,1.0770517243742943,-0.6733502199575304,0.039637159992009396
1761432052423406800,7.80240673828125,0.34167700991928573,-0.6412073612436652,-0.016472338308021424
1761432052443349800,7.822349853515625,-0.029765023666620254,-0.2889063737183809,0.6737042940922081
1761432052463292000,7.8422919921875,0.4722241287618875,0.03867401404827833,0.983177947282046
1761432052483234800,7.86223486328125,0.8365273965090513,0.11115268254280089,0.5947768147844821
1761432052503177000,7.882177001953125,0.5556763189524412,-0.3201660198569298,0.38001302418485283
1761432052523119900,7.902119873046875,0.18329437416791916,-0.6169409349933266,0.0028511516474187372
1761432052543062000,7.92206201171875,-0.11212941862046719,-0.6669517510920763,-0.21346662692856042
1761432052563005000,7.9420048828125,-0.3638344811916351,-0.5691285057216883,-0.5651974864156917
1761432052582946800,7.96194677734375,-0.6960831530302762,-0.13958967247605322,-0.6915553003422915
1761432052602889700,7.9818896484375,-1.1550514943778514,0.43068128127902744,-0.45405839400682596
1761432052622833000,8.0018330078125,-1.319033265310526,0.19636749849170446,0.6478695956118404
1761432052642774500,8.0217744140625,-0.47441433228254315,-1.0842404668346046,1.2378837991043925
1761432052662717700,8.0417177734375,0.4405231685966253,-1.1195081795707345,-0.7387503283679485
1761432052682659600,8.06165966796875,-0.07754092032015324,-0.5898676346287131,-1.6085557251006364
1761432052702601700,8.081601806640625,-1.693602491006255,0.22048457939922808,-0.7210010289266705
1761432052722544600,8.101544677734376,-2.2224112612992526,1.472947815737128,-1.0579377124510705
1761432052742486800,8.12148681640625,-1.8463982665359973,1.853280427265167,-0.7995533182464539
1761432052762429700,8.1414296875,-0.4667272849112749,1.384668059259653,-0.5200599023764952
1761432052782371800,8.161371826171875,0.5023813666164875,0.6115002052441239,-0.36101810859665273
1761432052802314800,8.181314697265625,0.7342389884233474,-0.014686112478375434,-0.1577954287142493
1761432052822256600,8.201256591796875,0.6525520543396472,-0.24738252319693563,-0.28544799515912306
1761432052842199600,8.221199462890626,0.5165560224413871,-0.08219517586678265,-0.5046393746763468
1761432052862141700,8.2411416015625,0.27022154699265954,0.13142799333035945,-0.39426637126915154
1761432052882084600,8.261084716796875,0.25321488261222835,0.03321984029561281,-0.2191513215014711
1761432052902026800,8.28102685546875,0.43443303502798075,0.08056056040227413,-0.3575182837821543
1761432052921969700,8.3009697265625,0.7094318794250488,0.07048223398029804,-0.3215456741796806
1761432052941911800,8.320911865234375,1.024295116698742,-0.042722704917192454,-0.20975003582453353
1761432052961853700,8.340853759765626,1.0290642307966946,-0.43950522372573614,-0.3331740795878693
1761432052981796900,8.360796875,0.7352285839825868,-0.7724939002767205,-0.9075657300021499
1761432053001740800,8.38074072265625,0.2054436621338129,-0.7176788987666368,-1.0969755913756787
1761432053021682700,8.4006826171875,-0.2914905449926853,-0.1954293408587575,-0.5950313010022044
1761432053041625900,8.4206259765625,-0.26793022118508814,0.1220730127468705,0.20386342547135428
1761432053061567700,8.440567626953126,0.4908393973827362,0.11681582287102937,0.4266178312323987
1761432053081509600,8.460509521484376,1.0703694701313973,-0.4579641327410936,0.2386027486855164
1761432053101452500,8.48045263671875,0.9152619105279445,-0.8979340513691305,-0.5177868063453585
1761432053121394700,8.500394775390625,-0.07511749256551266,-0.8382181260749697,-0.8163883523870259
1761432053141337600,8.520337646484375,-1.087002040502429,-0.3900216463714838,-0.4448580559957772
1761432053161279700,8.54027978515625,-1.4914467645019291,-0.18983049793839454,0.5214445251353085
1761432053181222700,8.56022265625,-1.671284276214242,-0.8308736085310577,1.4097874490775166
1761432053201164800,8.580164794921876,-1.25041214902699,-1.014361751705408,0.2666165082380175
1761432053221107700,8.600107666015624,-0.8823498210072517,-1.3549351842969655,-0.3850741800319403
1761432053241049900,8.6200498046875,-0.7698971617817878,-0.9104241151079535,-0.7314224696978926
1761432053260992800,8.63999267578125,-0.941022374728322,-0.0076028762191534035,-0.3437802658088505
1761432053280934700,8.6599345703125,-1.2236012989908456,1.095726321966946,0.10472995601892471
1761432053300877600,8.679877685546876,-0.9036194035291671,0.9055266984552145,1.2864488003090022
1761432053320819700,8.69981982421875,0.2010299373447895,0.5837699022755026,0.5007116067733616
1761432053340761600,8.71976171875,0.9033598758101463,0.130153151088953,-0.25880459237806497
1761432053360704800,8.739704833984375,0.4338835844516754,-0.12185936999619007,0.009427059439010918
1761432053380646700,8.759646728515625,-0.589231967073679,0.4483873261004686,0.684322134218365
1761432053400589800,8.77958984375,-0.9502011219620704,0.8902116404235363,1.3038377420052885
1761432053420531700,8.79953173828125,-0.3140630268067121,1.1395254239439963,1.144098357882723
1761432053440474600,8.819474609375,0.852798147830367,1.0586346086740492,0.5158447323668748
1761432053460416500,8.83941650390625,1.5514900220543146,1.000111108034849,0.33388675790186967
1761432053480359700,8.859359619140625,1.5674053840667008,0.8071066562354564,0.5279023595051839
1761432053500301600,8.879301513671875,1.3862743254125118,0.3131500036150217,0.6433620550595224
1761432053520244500,8.899244384765625,1.2775579301059246,-0.2640659469723701,0.5590450647331774
1761432053540186600,8.9191865234375,1.442039467254281,-0.5048340204656124,0.1708649180425331
1761432053560128800,8.939128662109376,1.9134972878187895,-0.3237336492106318,-0.1587566201629117
1761432053580071700,8.95907177734375,2.002447490903735,-0.1300309860140085,-0.02406947890613228
1761432053600013800,8.979013916015624,1.0635802483826875,-0.04695230531096458,0.6581063274659216
1761432053619956200,8.998956298828125,0.3505500522047281,0.041814357900619506,0.634389205661416
1761432053639898400,9.0188984375,-0.4270815032213926,-0.030616672059893605,0.555796145939827
1761432053659841300,9.03884130859375,-0.42202889600694177,-0.1034755720436573,0.18794176158234477
1761432053679783400,9.058783447265625,-0.23166940575838088,-0.26647213133126496,-0.1677530878986232
1761432053699726300,9.078726318359376,-0.32092472926974297,-0.3584329144090414,-0.25603087161472066
1761432053719668200,9.098668212890624,-0.7480664382457732,-0.18205781811028718,-0.04897593835936859
1761432053739611100,9.118611083984375,-0.8612135094761848,0.3195066791653633,0.03458130137454718
1761432053759553300,9.13855322265625,-0.8565104463517665,0.07653057423382997,0.7769628623843192
1761432053779495200,9.1584951171875,-0.5661030204206705,-0.4107373944029212,0.9164696788825094
1761432053799438300,9.178438232421875,-0.820595083361864,-0.5080222951129079,0.3805793528307229
1761432053819380200,9.198380126953126,-1.3726672403424978,0.10279168143272399,-0.21028353991303592
1761432053839323400,9.218323486328124,-1.8966893608808517,0.5501224842175841,0.14597578418343327
1761432053859265300,9.238265380859374,-1.9195307227641343,1.2072367319062351,-0.36376470389105375
1761432053879208400,9.25820849609375,-1.1750053181260824,1.470344355240464,-0.7034263553999364
1761432053899150300,9.278150390625,-0.4353723617047071,1.149369649349153,-0.3623452655471861
1761432053919093200,9.29809326171875,0.0299111541390419,0.7473091901376843,-0.08319432470565662
1761432053939035100,9.31803515625,0.22492928384840488,0.33272476491779085,-0.03407615573084913
1761432053958978300,9.337978271484374,0.4176081569552421,-0.11302169128507375,-0.10733433896419592
1761432053978920200,9.357920166015624,0.2127145299196243,-0.011628770734369754,-0.4782193505886942
1761432053998863000,9.377863037109375,-0.168665544834733,0.470824491097033,-0.6871173178948462
1761432054018805200,9.39780517578125,-0.3706564361661672,0.9382225148767233,-0.5232833579350262
1761432054038747400,9.417747314453125,-0.11011807879805564,0.9871329685181379,-0.36290384927801783
1761432054058690300,9.437690185546876,0.26910978635847566,0.6404585887029767,-0.3360345105202868
1761432054078632400,9.457632568359376,0.8866028022766113,0.02548953830450773,-0.39365200223047286
1761432054098575400,9.477575439453124,1.4765554848402738,-0.33565497315078974,-0.7733162495102733
1761432054118517200,9.497517333984375,1.4947487286567687,-0.45590486212372777,-1.1426837418444453
1761432054138460200,9.517460205078125,0.9235609523177146,-0.3329422070607543,-0.7951089791234582
1761432054158402300,9.53740234375,0.47047582378983493,-0.21938070981055496,-0.4310926750915125
1761432054178345200,9.55734521484375,0.5717039091676474,-0.1926853028476238,-0.08191150008719414
1761432054198287400,9.577287353515626,0.5151081617206335,-0.2081070361241698,-0.6352323784872889
1761432054218229200,9.597229248046874,0.2143055985033512,-0.3039376463726163,-1.2148080439433455
1761432054238172400,9.61717236328125,-0.23848960716724393,-0.1949824738740921,-1.1569025290720165
1761432054258114300,9.6371142578125,-0.2318120290994644,0.20305413664877414,-0.799808388986066
1761432054278057200,9.65705712890625,0.04159633123576641,0.4231266281157732,-0.3010884309539571
1761432054297999000,9.6769990234375,0.2068675574570894,0.20265110880583523,0.005152560457587242
1761432054317942000,9.69694189453125,-0.513421231546998,-1.0195078824222088,0.7164960456576198
1761432054337884200,9.71688427734375,-1.096726146659255,-0.8927946426540613,-1.1777671840548514
1761432054357827000,9.7368271484375,-1.169893674200773,-0.6630515287831426,-1.9688962266966699
1761432054377769200,9.756769287109375,-1.7254145103305578,-0.021801497441530225,-0.8380337094187736
1761432054397712100,9.776712158203125,-1.4722007967621087,0.007264438045024872,-0.20793021825253963
1761432054417654300,9.796654296875,-1.0254799425691365,0.46682110067456956,-0.7205290275007485
1761432054437596400,9.816596435546876,-0.5592448250889778,0.9985603714615106,-1.1024401403918862
