time,seconds_elapsed,z,y,x
1761432090712979200,0.068979248046875,0.15836685366034506,-0.20876403872817753,0.5692567717438564
1761432090732921300,0.08892138671875,0.583081043228507,0.016346154645085334,0.5667965191101655
1761432090752863500,0.108863525390625,0.3267185102403164,-0.21508184357285498,0.8552082777120172
1761432090772805000,0.12880517578125,-0.34136896688342094,-0.26864772180467844,0.6992505310200154
1761432090792748300,0.148748291015625,-0.9739327106833457,-0.012400631889700888,0.7207460312522947
1761432090812690200,0.168690185546875,-0.48544776747226714,0.7720014405846596,-0.1129800532335881
1761432090832632300,0.18863232421875,0.300823606005311,0.18732465259730816,0.23127931046225128
1761432090852574500,0.208574462890625,0.8163491163551807,-0.21083207717388866,0.6633537996653467
1761432090872516400,0.228516357421875,0.8877747686654329,-0.14877368040680886,0.848050076520443
1761432090892458500,0.24845849609375,0.6738929485321045,0.27636837918460366,0.4652820545390248
1761432090912400100,0.268400146484375,0.5744114145606756,-0.027666005560755727,0.4969430845526978
1761432090932342300,0.28834228515625,0.5925222407907247,-0.32694121308028695,0.5012345346689224
1761432090952284400,0.308284423828125,0.7473088978767395,-0.5197764457926154,0.21983011581217868
1761432090972227300,0.328227294921875,0.6805956610411406,-0.47291444911360736,0.460029833099246
1761432090992169500,0.34816943359375,0.44032910732924935,-0.23519436501413582,0.6148617175664752
1761432091012111400,0.368111328125,0.24210195244550703,-0.2585395847663283,0.5050805791052058
1761432091032053200,0.38805322265625,0.08464344580173493,-0.7210600656375289,0.6147305654674768
1761432091051995400,0.407995361328125,0.1757891131043434,-1.0002326885879038,0.49489115699157116
1761432091071937300,0.427937255859375,0.19690964254438875,-1.129115381349623,0.14451268936092965
1761432091091879400,0.44787939453125,-0.03223404412865639,-1.1168471436679364,0.07880982601111754
1761432091111821300,0.4678212890625,0.1488929228723049,-1.0445341871291398,0.25059233382260426
1761432091131763200,0.48776318359375,0.23974516018629072,-1.092100824946165,0.30969292196370657
1761432091151706000,0.5077060546875,0.2539899586379528,-1.1945806639507413,0.28090083498246965
1761432091171648300,0.527648193359375,0.24815292304754255,-1.192156359413266,0.27530573665546254
1761432091191590400,0.54759033203125,0.32528117091357706,-1.0563120109453796,0.21484467381611466
1761432091211532300,0.5675322265625,0.3824655319035053,-0.8477145609557628,0.10553005688805132
1761432091231474400,0.587474365234375,0.018935002094507217,-0.916059198385477,0.01186732873059809
1761432091251416300,0.607416259765625,-0.3916144685208797,-1.0897948860913516,0.0352112698411569
1761432091271358200,0.627358154296875,-0.6243026959329843,-1.1714330125972627,-0.08239913747366517
1761432091291300400,0.64730029296875,-0.7879939594864844,-0.9799795896321535,-0.453808182105422
1761432091311242200,0.6672421875,-1.320301093289256,-0.6852788504213094,-0.37361345934085544
1761432091331185400,0.687185302734375,-1.9052134435981511,-0.6825815741613507,0.16001586297638715
1761432091351127300,0.707127197265625,-1.9575316598564385,-0.8264809265300631,1.0284186994347722
1761432091371069400,0.7270693359375,-0.8676222074747085,-0.8415791269406676,0.9590005875546485
1761432091391011300,0.74701123046875,-0.18448036908209323,-0.8504194360002875,0.3305029972150922
1761432091410953200,0.766953125,0.05548632490038871,-0.6297913564771414,0.021431572717172092
1761432091430895400,0.786895263671875,0.13734452389776705,-0.23343992256224155,-0.3817330529104918
1761432091450837200,0.806837158203125,-0.1850567076653242,0.14143676164746283,-0.9656228552386165
1761432091470779400,0.826779296875,-0.981140450105071,0.5902601410776377,-1.144240031375736
1761432091490721300,0.84672119140625,-1.349035020342469,1.0121654107049107,-0.738264590677619
1761432091510664200,0.866664306640625,-0.8534387838214635,1.0838821549162267,0.2365450489707291
1761432091530606300,0.8866064453125,0.2883832266271114,1.1872872920721769,0.24490429651513695
1761432091550548200,0.90654833984375,0.955733621647954,1.0532070306673644,-0.09557588656870648
1761432091570490400,0.926490478515625,0.779291013070941,0.7574950685873627,-0.09884209442357532
1761432091590432500,0.9464326171875,0.5453074851512909,0.4362681415006518,0.18534504135372115
1761432091610374100,0.9663740234375,0.9184908094465732,0.15124036278128622,0.43190194564778356
1761432091630316300,0.98631640625,1.6099001254469156,0.11128127735853195,0.184460531870462
1761432091650258200,1.006258056640625,1.9574872361928224,0.025317104347050187,-0.19266656161453574
1761432091670197500,1.026197509765625,1.9755968933790922,-0.15246961231529713,-0.1966850765408948
1761432091690140400,1.046140380859375,1.5514058509021997,-0.335751419262588,0.11246589316637255
1761432091710082300,1.066082275390625,1.1262421640008686,-0.5784124668955802,0.25336981744561343
1761432091730024400,1.0860244140625,0.7628986811965703,-0.760726597854495,0.09309086481994018
1761432091749966300,1.10596630859375,0.7896955027073621,-0.6871712400391697,-0.0498566484503448
1761432091769908500,1.125908447265625,0.8807324489384889,-0.5361141248703003,0.06769500984798651
1761432091789850400,1.145850341796875,0.5880225912839174,-0.5628869809836149,0.27895514427479357
1761432091809792500,1.16579248046875,0.31183892101645466,-0.8317439616248011,0.4570383596656844
1761432091829734400,1.185734375,0.4580518110245466,-1.044927570360899,0.08565958230802789
1761432091849676300,1.20567626953125,0.7319026544302701,-1.2920409212276338,-0.10588418582165614
1761432091869619500,1.225619384765625,0.5602741681367158,-1.5202061182573436,0.11945892125833779
1761432091889561300,1.245561279296875,-0.19180209027230738,-1.3451122939407825,0.4969436325419694
1761432091909503500,1.26550341796875,-0.8120622328162193,-0.8294120115458965,0.3509987458202988
1761432091929445600,1.285445556640625,-0.9695470429450272,-0.1485878024458885,-0.0062984071661077905
1761432091949387300,1.30538720703125,-1.1056453661739825,-0.4335553754106164,0.23338221929194405
1761432091969329400,1.325329345703125,-0.7760089226603507,-1.353420103558898,0.8149453139718621
1761432091989271300,1.345271240234375,-0.49056233400702476,-1.943073218654096,1.0842335256371647
1761432092009213400,1.36521337890625,-0.09068506405353545,-1.889085023356974,0.24297539254548026
1761432092029155600,1.385155517578125,-0.19314006087779997,-1.7568094732865691,-0.7347396314218639
1761432092049097200,1.40509716796875,-0.9807038122534751,-1.010038335548341,-1.2725114603713155
1761432092069040400,1.425040283203125,-1.5624825407117604,0.5275006103038787,-0.6150448190484196
1761432092088982300,1.444982177734375,-1.3710603896677493,1.022858654154837,0.991207670611143
1761432092108924400,1.46492431640625,-0.2683586757302284,1.2538652120903133,1.3492976168014108
1761432092128866600,1.484866455078125,0.8425216684877872,0.9045835723862051,1.0697737692605704
1761432092148808400,1.504808349609375,1.0153238747358322,0.46518736199289556,0.6795580616217106
1761432092168750300,1.524750244140625,0.5629553700447082,0.15941460914760827,0.5589410198368132
1761432092188692200,1.544692138671875,-0.1353466280788183,0.10751812543272972,0.6700524935863912
1761432092208634400,1.56463427734375,0.2898112136036157,0.40109570583254095,0.7074955776002257
1761432092228576500,1.584576416015625,1.2145640060544014,0.8315878942802548,0.493868718608655
1761432092248518400,1.604518310546875,1.6035130547583103,0.9993751949757337,0.24658660531258209
1761432092268461600,1.624461669921875,1.3016449081361292,0.9435551080763339,0.31464849854446947
1761432092288403500,1.644403564453125,0.748234780550003,0.5405486001864075,0.24870860243523493
1761432092308345300,1.664345458984375,0.5714011268287896,0.019836042587459086,0.1072678587323986
1761432092328287500,1.68428759765625,0.9449912783592939,-0.19950667330026625,-0.06293419322092085
1761432092348229400,1.7042294921875,1.0094500142663716,-0.1802399550333619,-0.3466088402982801
1761432092368171500,1.724171630859375,0.5203542456805705,-0.028250527450442313,0.016683716036379335
1761432092388113400,1.744113525390625,0.12827215964794159,0.24017039986103772,0.5688454875292256
1761432092408055300,1.76405517578125,0.20144611693024633,0.24278204366415737,0.729318556221202
1761432092427997400,1.78399755859375,0.8022112854093313,-0.010882628542184828,0.363659416885674
1761432092447939300,1.803939208984375,0.9103004887282847,-0.48617900435626504,-0.23414076430797576
1761432092467882500,1.823882568359375,0.3540267884045839,-0.7433908476501703,-0.3390502781448886
1761432092487824400,1.843824462890625,-0.1265676938176155,-0.8694757263869046,0.003953651262912899
1761432092507766500,1.8637666015625,-0.16593465856611728,-0.6204375449374318,0.1074499190347269
1761432092527708400,1.88370849609375,-0.3524661149591207,-0.2926484828561544,0.03083900957368314
1761432092547650300,1.903650390625,-1.1282120027691125,0.25372633926570415,-0.17519184133093804
1761432092567592400,1.923592529296875,-2.447443421000242,0.36644524821192026,0.11725507280481978
1761432092587534300,1.943534423828125,-3.2462919519782063,0.09851678059250116,0.327785116558522
1761432092607476500,1.9634765625,-2.303013322755694,-0.30294863533526656,0.1664824286419898
1761432092627418600,1.983418701171875,-0.5584451991438866,-1.2905875075489281,0.7371313488639891
1761432092647360300,2.0033603515625,0.5818471175193787,-1.373694245302677,0.20537132754996418
1761432092667301600,2.023301513671875,0.893088072642684,-0.41062458167821164,-1.1571605224210768
1761432092687244500,2.04324462890625,-0.33622166712284085,0.5254965770050883,-0.8968024900559335
1761432092707186700,2.063186767578125,-1.3643775509029625,1.0326359518036246,-0.07750743817565962
1761432092727128800,2.08312890625,-1.4141794004261492,1.0109195022970436,0.32211244121696797
1761432092747070500,2.103070556640625,0.013846154522895813,0.6792392779961228,0.006219793538522208
1761432092767012600,2.1230126953125,1.1193442211806774,0.16373597947806118,-0.3889789689181372
1761432092786954800,2.142954833984375,1.5226438667982816,-0.006891220818459987,-0.5121866117181256
1761432092806896600,2.162896728515625,1.2817781781494617,0.21223756005764005,-0.3586809708859771
1761432092826838800,2.1828388671875,0.6883546046048402,0.46721594521105286,-0.02295686432200018
1761432092846780400,2.202780517578125,0.26409692663252354,0.8420324236661195,-0.07386154225424398
1761432092866722600,2.22272265625,-0.1483136616796255,0.9979860787048935,-0.13369072323110884
1761432092886664700,2.242664794921875,0.30547464668154717,0.7749079756811261,-0.37618228691555555
1761432092906607600,2.262607666015625,1.0908809277623892,0.21565467502474783,-0.5222292092395946
1761432092926549800,2.2825498046875,1.5586036534518002,-0.21666823598146437,-0.776461269537732
1761432092946491600,2.30249169921875,1.2869605492234228,-0.4001885278597474,-0.9603844431284815
1761432092966433800,2.322433837890625,0.7793944734454155,-0.4493889043584466,-0.7379110279995947
1761432092986375700,2.342375732421875,0.5404688129484653,-0.5949962296888232,-0.14985724699296987
1761432093006317600,2.362317626953125,1.080090069156885,-0.7247153732746839,0.1429458875687793
1761432093026259700,2.382259765625,1.596611020284891,-0.9355445278391241,0.21352056733919306
1761432093046201600,2.40220166015625,1.1506903765588998,-1.0775386311084032,0.010286018922482617
1761432093066143700,2.422143798828125,-0.13345979141891,-1.0747934240534902,-0.10825888819689862
1761432093086085600,2.442085693359375,-1.5750725576937197,-0.9280638166949152,-0.06483179787001572
1761432093106027500,2.462027587890625,-2.9113813674539326,-0.44752427953034635,-0.17635993526224045
1761432093125970700,2.481970703125,-3.6042619250506163,-0.1911041711360216,0.277165265183337
1761432093145912600,2.50191259765625,-2.9849592293620106,-0.7555994640991092,1.3649229098260403
1761432093165854700,2.521854736328125,-1.2618845601558684,-0.8852455424487591,1.0176558248147367
1761432093185796900,2.541796875,-0.36531039896309375,-1.0102744823917746,0.38747159656248986
1761432093205738500,2.561738525390625,-0.18587562283277512,-1.025699430538714,-0.17832498825751245
1761432093225680600,2.5816806640625,-1.336726158389449,-0.5308817771747708,-0.2140335766289383
1761432093245622500,2.60162255859375,-2.248392090252042,0.24563129561543462,-0.42648744631838054
1761432093265564700,2.621564697265625,-1.8227233764380215,0.6860819834977387,0.44450284934993833
1761432093285506800,2.6415068359375,-0.5469114132165909,0.9091554103463888,0.4854516033971682
1761432093305448700,2.66144873046875,0.5458727178186178,0.5274401122882962,0.15120672537316568
1761432093325390600,2.681390625,0.8505103291541337,0.014946224719285963,0.17887812862824648
1761432093345333500,2.70133349609375,0.5959919627279043,-0.12874883724898098,0.3934729193365201
1761432093365275600,2.721275634765625,0.7872475250333547,0.18755758457034824,0.39737869460340586
1761432093385217800,2.7412177734375,1.449700795662403,0.771884828467667,0.15471742777470499
1761432093405159700,2.76115966796875,1.834858050867915,1.2078455114543438,0.27110249454565344
1761432093425101800,2.781101806640625,1.512106106171012,1.1516451930657028,0.7467356280334293
1761432093445043500,2.80104345703125,1.2242173850625753,0.66933192422688,0.7366041101194918
1761432093464985600,2.820985595703125,1.289925828769803,0.3283490340515971,0.15706925159785895
1761432093484927700,2.840927734375,1.35815297729969,0.15510317568928003,-0.07864457071311771
1761432093504869600,2.86086962890625,1.185783901771903,0.18396657434105873,0.18398213723637163
1761432093524811800,2.880811767578125,0.8674141176819801,0.42510844958275557,0.6557810993887484
1761432093544753700,2.900753662109375,0.9088619803577661,0.5692398571416736,0.901546177451685
1761432093564695600,2.920695556640625,1.143964867696166,0.3803171216979623,0.7996756294518709
1761432093584638700,2.940638671875,1.3587030123978852,0.12392594713717699,0.32600992357954384
1761432093604580600,2.96058056640625,1.075860468763113,-0.22803397186547517,-0.15138212760584427
1761432093624522800,2.980522705078125,0.38638007499873633,-0.40949645443111654,-0.240589849115815
1761432093644464600,3.000464599609375,-0.2982482025593519,-0.3342231867820024,-0.18353032008195294
1761432093664407600,3.020407470703125,-0.7675614123106003,-0.14956892243772743,0.059130270893312985
1761432093684349400,3.040349365234375,-1.1129437064886092,0.05048340204656124,0.2805037436899729
1761432093704291300,3.060291259765625,-1.2114864983052014,-0.11902122396081685,0.6347277169007808
1761432093724233500,3.0802333984375,-0.9577174889415502,-0.548533753721416,0.9277103270821273
1761432093744175400,3.10017529296875,-0.5676736307382584,-0.2962432924777269,0.2963743897777982
1761432093764117500,3.120117431640625,-0.5724509281426667,-0.2638584417015314,-0.11419705520737916
1761432093784059600,3.1400595703125,-0.8674649710863828,-0.277757203194499,-0.7385729990396648
1761432093804001300,3.160001220703125,-0.9876835881382227,0.019752455957233905,-1.8530531943805515
1761432093823943400,3.179943359375,-1.1292530362546442,0.4020464306861162,-2.3993439914807677
1761432093843886300,3.19988623046875,-1.4114847545146942,0.5512094026714563,-1.2940714041419326
1761432093863828500,3.219828369140625,-1.0002274278908967,0.7001230760708451,-0.46768166302666064
1761432093883770400,3.239770263671875,-0.01945581109821796,0.5078308641940354,-0.477880327892676
1761432093903712500,3.25971240234375,0.7300199094235896,-0.016370412303507328,-0.8297292608015239
1761432093923654700,3.279654541015625,0.8787193555504084,-0.13811959992349146,-1.1080533771637826
1761432093943596300,3.29959619140625,0.8136211526960134,-0.07657558241933583,-0.8120530265964567
1761432093963538400,3.319538330078125,0.6639987465053796,0.4622068848773837,-0.5522269091509282
1761432093983480600,3.33948046875,0.5997141981214285,0.8187178913131355,-0.15353285763263702
1761432094003422500,3.35942236328125,0.6194137548476457,0.7418816121309996,0.08493210828369482
1761432094023364600,3.379364501953125,0.928812296974659,0.3802674373373389,-0.12922862012255937
1761432094043306200,3.39930615234375,1.3944605544775723,0.041802959723770614,-0.44965935533028095
1761432094063249400,3.41924951171875,1.3869330815821885,-0.15955343309640885,-0.7063372744105756
1761432094083191300,3.43919140625,0.7735884175151586,-0.23751345561146736,-0.6186765266142785
1761432094103133400,3.459133544921875,0.18695289667546747,-0.18343875107467172,-0.14983563794936053
1761432094123075600,3.47907568359375,0.2406131751924753,-0.217215348470211,0.2548495528756641
1761432094143017500,3.499017578125,0.6842085908412933,-0.49018502512723205,0.07414661997305229
1761432094162959400,3.51895947265625,0.8072539557516575,-0.6929922012776136,-0.6091303343076259
1761432094182901500,3.538901611328125,-0.01530979733467102,-0.7863774642005562,-0.7246746759381145
1761432094202843400,3.558843505859375,-1.195254325428605,-0.430256918387115,-0.7307697048775851
1761432094222785500,3.57878564453125,-2.0495681385189295,-0.06849339825063944,-0.7594484676774591
1761432094242727400,3.5987275390625,-2.413240122625232,0.36392245173603294,-0.04843714160781819
1761432094262669600,3.618669677734375,-2.640294728064537,-0.6280842602983117,1.0225228463292122
1761432094282611500,3.638611572265625,-1.7155214773476122,-1.4415592825219035,1.0919329940985887
1761432094302553300,3.65855322265625,-0.24149463420212267,-0.9609221302017569,0.015617413395561743
1761432094322496500,3.67849658203125,-0.10833937868773937,-0.6743979754447936,-0.38790564059820026
1761432094342438400,3.6984384765625,-1.5159487530738114,-0.4465393601462245,0.34127515112012624
1761432094362380500,3.718380615234375,-2.1609803487807513,0.3439353102400899,0.02842384732388891
1761432094382322400,3.738322509765625,-1.6855542091071605,0.9722127550229429,-0.17365288652693853
1761432094402264300,3.758264404296875,-0.5779875194817781,0.907295461693406,0.28864704692875964
1761432094422206500,3.77820654296875,0.3735200089037418,0.787530433627963,0.4110723254457116
1761432094442148400,3.7981484375,1.122278521066904,0.39645898594260215,0.32494463243559
1761432094462090500,3.818090576171875,1.6371394300282,0.0992360347777605,0.1994344300479628
1761432094482032600,3.83803271484375,1.826692864590883,-0.18247370543479918,0.25799932214347643
1761432094501974300,3.857974365234375,1.6899819624215364,0.16934709735810755,0.17790190400723366
1761432094521916400,3.87791650390625,1.3378688986837863,0.6660176851123571,0.4331040514465421
1761432094541858600,3.897858642578125,1.1556576435774564,1.0188558482542633,0.6862785289831459
1761432094561800400,3.917800537109375,1.08886491176486,0.9724883570939302,0.6696495388086885
1761432094581742600,3.93774267578125,1.0900585054636,0.570195842692256,0.4264896748080849
1761432094601685500,3.957685546875,1.0860445936471224,0.22741145605295895,-0.08467663568528369
1761432094621627400,3.97762744140625,0.7927168963551521,0.058692719726264476,-0.10583073860136792
1761432094641568500,3.997568603515625,0.3243716548532247,0.043889702869951724,0.3489907304661348
1761432094661510400,4.017510498046875,0.1645218691587448,0.18172931680828333,0.6662728289172053
1761432094681451800,4.03745166015625,0.3336538624614477,0.1228121406763792,0.5826204034468159
1761432094701394000,4.057393798828125,0.24101941790580747,-0.07378536717891693,0.19263481476940214
1761432094721336800,4.0773369140625,0.2696446238875389,-0.1837523470684886,0.09262615165133029
1761432094741279000,4.097279052734375,0.6733499276965856,-0.35108225938528775,0.2621763338334858
1761432094761220900,4.117220947265625,1.070228015834093,-0.6172562845528126,0.08760130922663957
1761432094781163000,4.1371630859375,0.7228998482853174,-0.6979030619338155,-0.2354892563074827
1761432094801105000,4.15710498046875,-0.4075678244560957,-0.5149956412568688,-0.53302331924811
1761432094821046800,4.177046875,-1.3983838654011487,-0.1591015976756811,-0.34960254222154613
1761432094840989000,4.196989013671875,-1.733151826584339,0.2143427156433463,-0.033528650516457856
1761432094860930800,4.216930908203125,-1.3919050247758626,0.23011779240220784,0.6349743120729923
1761432094880873000,4.236873046875,-0.6784265003085136,-0.19581600208878516,0.6261482507344335
1761432094900815000,4.256815185546875,-0.6199936005622149,-0.8796233186528086,0.5775238474927842
1761432094920756700,4.2767568359375,-0.6666431235343218,-1.116025305891037,0.03327200887426734
1761432094940699000,4.296698974609375,-0.564828178179264,-0.7934455028906464,-0.8381937222860752
1761432094960641000,4.31664111328125,-0.37202071025669575,-0.2972097994223237,-1.226624592334777
1761432094980584000,4.336583984375,-1.0297522130608558,0.6134747201874852,-1.874962536110729
1761432095000526800,4.35652685546875,-1.450239724844694,1.0774188041210173,-1.2227090993914753
1761432095020469000,4.376468994140625,-0.9591787936657666,0.9452806166946888,0.021537878069281577
1761432095040411000,4.396410888671875,0.39862463954389094,0.7001105088502169,0.3029687830741517
1761432095060352800,4.416352783203125,1.1463199063897132,0.26785598690509793,0.1167218427109532
1761432095080295000,4.436294921875,1.4077134192824363,0.0724099871724844,0.18589841918647287
1761432095100236800,4.45623681640625,1.476739609235525,-0.02146247474551201,0.5411243542477489
1761432095120179000,4.476178955078125,1.1525818893939257,0.13873305564671753,0.9108575380891561
1761432095140121000,4.49612109375,0.8810223717957735,0.5973156125470995,0.6917723040938377
1761432095160062700,4.516062744140625,0.4462053058862686,1.013516825313866,0.47996023943927135
1761432095180004900,4.5360048828125,-0.08726151934564114,1.0696753503873944,0.4851801295120269
1761432095199947000,4.555947021484375,-0.2730512174606323,0.5901794770568609,0.32110695396885275
1761432095219889000,4.575888916015625,0.33281448902785776,-0.1952092683672905,-0.2791654625572264
1761432095239831000,4.5958310546875,1.317913905891776,-0.5617021551132202,-0.7824794338487088
1761432095259774000,4.61577392578125,1.3530951093882322,-0.3891583075404167,-0.3887888897061348
1761432095279716000,4.635716064453125,0.43011108017563815,-0.266541104914248,0.3374345865765586
1761432095299657700,4.65565771484375,-0.1532324133813381,-0.22931641289144752,0.7748043691761791
1761432095319599900,4.675599853515625,0.20749299587905407,-0.22777298284173012,0.7247285980824381
1761432095339542000,4.6955419921875,0.8995826953589916,-0.4693398054972291,0.3097374552251771
1761432095359484000,4.71548388671875,0.9996610261797905,-0.7403545486941934,-0.04263951101261191
1761432095379426000,4.735426025390625,0.40461306630373,-0.7812742958426475,0.07995208224826492
1761432095399368000,4.755367919921875,-0.5618868640303611,-0.6402572209119797,-0.1563458692267537
1761432095419309800,4.775309814453125,-1.1040057822734117,-0.37038083409518,-0.41985418231636285
1761432095439252000,4.795251953125,-1.7916133679032324,-0.14306173250079154,-0.2353903077113442
1761432095459193900,4.81519384765625,-2.382580780467391,-1.0007131655812262,1.6299072868175803
1761432095479136000,4.835135986328125,-1.2863432941079138,-0.7507727745950221,1.178842777397111
1761432095499078000,4.855077880859375,0.026785131072998045,-1.1069336524188518,0.8558371502000838
1761432095519019800,4.875019775390625,0.4324544284313917,-0.7494926716566085,0.17374734161105007
1761432095538963000,4.894962890625,-0.4955144034564495,-0.16639175468385217,0.3102382808867842
1761432095558904800,4.91490478515625,-1.561407020434737,0.5456152359262109,0.5770470237612724
1761432095578847000,4.934846923828125,-1.3676923745393752,0.6517378153473139,0.9848466111466287
1761432095598788900,4.954788818359375,0.03880407016873359,0.5742687912195921,0.6913418037220835
1761432095618731000,4.97473095703125,1.0503571941941976,0.30005379067659377,0.16598774046022444
1761432095638673000,4.9946728515625,0.9613970542371273,-0.161524440908432,0.45918892529569566
1761432095658614800,5.01461474609375,0.2687766088813543,-0.15070172585994004,0.5945287948401644
1761432095678557700,5.0345576171875,-0.09172960467040538,0.025614041467010972,0.46316192057989536
1761432095698499300,5.054499267578125,0.30345220094323155,0.4643862747430801,0.14013265677895395
1761432095718441500,5.07444140625,0.8996084143221378,0.8257324462503194,0.07571342176520265
1761432095738383600,5.094383544921875,1.1301911938875913,0.895465907689929,0.4330666055129841
1761432095758325500,5.114325439453125,1.1321803218781947,0.7783052169039845,0.4096974568959325
1761432095778267600,5.134267578125,1.1407412294745445,0.36932723338901996,0.30654527158774436
1761432095798209500,5.15420947265625,1.202788812586665,0.11881050381958484,0.14430444430457426
1761432095818151400,5.1741513671875,1.085605033186078,0.018725450997054575,0.08033396683847531
1761432095838093600,5.194093505859375,0.7257879709422588,-0.0431280708476901,0.22687946806810794
1761432095858036500,5.214036376953125,0.3627975393593311,0.02954115178287029,0.3785094146888703
1761432095877978600,5.233978515625,0.3552040154904127,0.22790713061541318,0.23974406420774758
1761432095897920500,5.25392041015625,0.5857037929475307,0.24409984826445577,0.2495229327591136
1761432095917862400,5.2738623046875,0.8002449537724255,-0.14437632223069666,0.08256210948303341
1761432095937804500,5.293804443359375,0.7631564553499222,-0.6016010347813368,-0.43943530029468236
1761432095957746400,5.313746337890625,0.11471826606988907,-0.3955778191938996,-0.9213738175369799
1761432095977688600,5.3336884765625,-0.9062748864740133,0.184684074960649,-0.9015997342698275
1761432095997630700,5.353630615234375,-2.2657482987225053,0.18770020791143177,0.17465088458834216
1761432096017572600,5.373572509765625,-2.790850615713,0.10016980849653481,1.166762682698667
1761432096037514500,5.393514404296875,-1.3398755623310803,-0.8568617440074682,1.9032929969295858
1761432096057456400,5.413456298828125,0.5557318485319614,-0.5792343046724796,0.10898522057691588
1761432096077398500,5.4333984375,1.1404553982704877,-0.3949333838105201,-1.2174253868348897
1761432096097340700,5.453340576171875,-0.7251438278198242,0.43001960249990223,-1.4709921516247093
1761432096117282600,5.473282470703125,-2.65683143684566,0.9339195569857954,-0.9492910944450647
1761432096137224400,5.493224365234375,-3.3680607210814952,0.8202759344100952,-0.585935409746319
1761432096157166600,5.51316650390625,-1.5426386070787905,0.2950619737386703,-0.7474576586976647
1761432096177108500,5.5331083984375,0.35813480824530125,-0.07561550521552562,-1.0809317806780339
1761432096197051600,5.5530517578125,1.1449492025583983,-0.1708224306076765,-0.9017143736254424
1761432096216993500,5.57299365234375,1.0323433985978365,0.0587023643374443,-0.38360147713087495
1761432096236935700,5.592935791015625,0.46894262287318705,0.1988116767734289,0.020909156278264708
1761432096256877300,5.612877197265625,0.45897710917592044,0.09675795422643423,0.3864584739971906
1761432096276819500,5.6328193359375,0.5200649073451757,0.33224867183864115,0.00738567153820768
1761432096296761600,5.65276171875,1.4935148029476404,0.9447361345544457,-0.15133573118085042
1761432096316703500,5.672703369140625,2.0812112310171127,1.0958782976582646,-0.31658531182594596
1761432096336645600,5.692645751953125,2.3293127161383627,0.8890531180381774,-0.6996974710699171
1761432096356587800,5.712587890625,2.148680839177966,0.5299748914629221,-1.107179809199646
1761432096376529400,5.732529296875,1.528191564053297,0.0970318027317524,-1.0724234069865197
1761432096396471600,5.752471435546875,0.8713058644235133,-0.14019523715376853,-0.8850085188224911
1761432096416413400,5.772413330078125,0.7003460711717605,0.03574585164189339,-0.6079777667390183
1761432096436355600,5.79235546875,0.544833437898755,0.0018240005567669868,-0.6931453460127115
1761432096456297700,5.812297607421875,0.30910394309461114,-0.3412242977157235,-0.5637217878399416
1761432096476239400,5.8322392578125,0.06142682086527347,-0.6418664096742868,-0.23181159070804713
1761432096496181500,5.852181396484375,-0.004376315388083457,-0.8195569724857806,-0.4363484036626294
1761432096516123600,5.87212353515625,-0.4297089291155338,-0.8355547520846128,-0.953368646082282
1761432096536065500,5.8920654296875,-1.3314005794525146,-0.5647688492074608,-1.1861860528320074
1761432096556007700,5.912007568359375,-2.2497440893828866,-0.3316010215848684,-0.6735254303939641
1761432096575950600,5.93195068359375,-2.7589135087043046,-0.7945476189136504,0.9366045582860708
1761432096595892500,5.951892578125,-1.7977432489603757,-0.3882043678164482,0.715454646845907
1761432096615834400,5.97183447265625,-0.7451993583768606,-0.7992834152638911,0.5743715209417045
1761432096635776500,5.991776611328125,-0.6272171220749616,-0.7138619708269834,0.13430274504907427
1761432096655718700,6.01171875,-0.8357552430927753,-0.4670736141309142,0.17891886249743402
1761432096675660300,6.031660400390625,-0.9861258373022079,0.05419453152418136,-0.24753024283824487
1761432096695602200,6.051602294921875,-0.8349567861914634,0.6783467130705714,-0.5298728193279355
1761432096715544300,6.07154443359375,-0.6419950044900179,0.7941539434209466,0.07459437287370674
1761432096735486200,6.091486328125,-0.30253859322965143,0.7589812154918909,0.390222393107973
1761432096755428400,6.111428466796875,-0.0187222361266613,0.306547244349122,0.6881901347581296
1761432096775370200,6.131370361328125,0.2577314832538366,0.17804039916247127,0.3588272109562531
1761432096795312000,6.15131201171875,0.4334305799871683,0.02292407173067331,-0.18606411287588998
1761432096815254300,6.171254150390625,0.5107751009523869,0.07713935378193855,-0.5108915669389069
1761432096835196200,6.191196044921875,0.7732710221290587,0.4113730619579553,-0.48215489993933586
1761432096855138300,6.21113818359375,1.0170236643910406,0.7809443332359194,-0.46577520835082975
1761432096875080400,6.23108056640625,0.6831289789110422,0.9588774726316333,-0.19047376427799462
1761432096895022300,6.251022216796875,0.1632148782134056,0.886344151340425,0.18963143170233815
1761432096914964200,6.270964111328125,0.5025216518700123,0.4451259862169623,0.49956331352107225
1761432096934906400,6.29090625,1.2803718184828758,-0.029625615195930002,0.11858522543003781
1761432096954848300,6.31084814453125,1.6572598425149916,-0.20468173785060642,-0.39205348099265247
1761432096974790400,6.330790283203125,0.9134054690062999,-0.1794710164874792,-0.4580807448580861
1761432096994732300,6.350732177734375,-0.08245616489052772,0.22300649909228085,0.3217232957689091
1761432097014675500,6.370675537109375,-0.2439291678726673,0.23612258577495812,0.9385074692979455
1761432097034617000,6.3906171875,0.7353840668052435,-0.6557821223020553,1.3258942371211946
1761432097054559200,6.410559326171875,1.6297773768275976,-0.9093310591742396,-0.08920211375309153
1761432097074501400,6.43050146484375,1.0642916115224361,-0.8667366568118333,-0.8920219047158956
1761432097094443300,6.450443359375,-0.6167904206067323,-0.4519689839795232,-0.28315221237214283
1761432097114385400,6.470385498046875,-1.4416677113324403,0.06355535732656717,0.5498943014848977
1761432097134327300,6.490327392578125,-1.2922680079817772,-0.10228636225908994,0.9194695182856172
1761432097154269200,6.510269287109375,0.1489145501822233,-0.5661363381683826,-0.14908022560533135
1761432097174211300,6.53021142578125,0.7046335392326116,-0.5415247517421842,-1.6120248625159264
1761432097194153200,6.5501533203125,-0.8862766390621661,-0.5389616232559085,-1.4367181261010467
1761432097214095400,6.570095458984375,-2.059826497682929,-0.9213611041858791,0.37625633853245527
1761432097234037200,6.590037353515625,-2.1412176636904476,-1.3641501718878746,1.0235942018877715
1761432097253979100,6.609979248046875,-0.027312369817495345,-1.0097989738345146,-0.0055501061245216985
1761432097273921300,6.62992138671875,1.0619336502194403,-0.2813841615200043,-1.426101016627252
1761432097293863400,6.649863525390625,-0.1295961017280817,0.9898664851352572,-2.1068559598833323
1761432097313805300,6.669805419921875,-2.149764542761445,1.5022165803194045,-1.0316105542786418
1761432097333747500,6.68974755859375,-2.9876474455326796,1.4309060788214205,0.20617530087660996
1761432097353689000,6.709689208984375,-1.6684353165239094,1.065934702554345,0.30147395967282353
1761432097373631200,6.72963134765625,0.29112755689918995,0.3015910832464695,-0.2472063446461223
1761432097393573400,6.749573486328125,1.5818950971901415,-0.14004647633284328,-0.6349467664789408
1761432097413515300,6.769515380859375,2.2507734324306248,0.05119213483780622,-0.974856401399523
1761432097433457400,6.78945751953125,1.5125333916723727,0.7146446456372737,-0.3694089933883399
1761432097453399300,6.8093994140625,0.556512185254693,1.1573688314095139,0.08811784391403198
1761432097473341200,6.829341064453125,0.26155133380293843,1.1487748983263968,0.47578160204775627
1761432097493284400,6.849284423828125,0.9055161770612001,0.42632776224464175,0.6230380097594111
1761432097513226200,6.869226318359375,1.9215759648561477,-0.24513942044526338,-0.0036490788257680833
1761432097533168400,6.88916845703125,2.0624159296542404,-0.5935293720066547,-0.6043109147945419
1761432097553110300,6.9091103515625,1.2998428271502256,-0.6725079239144921,-0.7618322940740734
1761432097573052200,6.92905224609375,0.33094927967786786,-0.31434944253265856,-0.5018695446368306
1761432097592994300,6.948994384765625,0.017155717462301254,-0.40312545809447764,0.5055355563310906
1761432097612936200,6.968936279296875,0.6433201156139373,-0.4738797870144248,0.6241755624219775
1761432097632878300,6.98887841796875,1.012778281906247,-0.36853666753321884,-0.24179284996371714
1761432097652820200,7.0088203125,0.3597276303946972,-0.4355915574133396,-0.5469355247445404
1761432097672762600,7.0287626953125,-0.465126863977313,-0.2647720494151115,-0.3790688021373004
1761432097692704500,7.04870458984375,-0.8907862254410982,-0.0022813889354467392,-0.5199401484543458
1761432097712646400,7.068646484375,-1.0813269174754618,-0.12667290775775908,-0.5813629872642457
1761432097732588500,7.088588623046875,-1.2395236752659082,-0.36581951752901076,-0.500797020034492
1761432097752530700,7.10853076171875,-1.2211457225322722,-0.8502502169132232,0.23311321135852484
1761432097772472600,7.12847265625,-0.5366337648302316,-0.7211135493904351,0.29537012637238946
1761432097792414500,7.14841455078125,-0.1588011534243822,-1.4792445777937768,1.2043643182750792
1761432097812356400,7.1683564453125,-0.1303150636523962,-1.0086503883212805,0.6527456041503698
1761432097832298500,7.188298583984375,-0.7352905433028936,-0.7248173723444342,0.3290923266995698
1761432097852240600,7.20824072265625,-1.3204963236004112,0.2678013341084122,-0.24036124625802038
1761432097872182500,7.2281826171875,-1.5928133815675973,0.9412301722601055,0.30724629599656905
1761432097892124400,7.24812451171875,-0.8940893586397171,1.054839892566204,1.1121089361649006
1761432097912066600,7.268066650390625,0.5083282923221588,0.7610857865557074,1.1709938905276358
1761432097932008400,7.288008544921875,1.1903086857199667,0.5880635078161954,0.49126361414417624
1761432097951950600,7.30795068359375,1.036503440886736,0.341900297281146,0.44873621260337526
1761432097971892500,7.327892578125,0.5715700536549091,0.2918368742123246,0.8454796415105461
1761432097991834600,7.347834716796875,0.6997562885850668,0.44731531295478344,1.0957597858451307
1761432098011777500,7.367777587890625,1.2595353666812181,0.6281868438899517,0.7094330484688282
1761432098031719400,7.387719482421875,1.4214929383099077,0.7236351768225431,0.2498240345975384
1761432098051661600,7.40766162109375,1.3111913196384906,0.7375105574399232,0.18437354770675302
1761432098071603500,7.427603515625,0.7854384297847747,0.5561436442032456,0.43242103761844336
1761432098091545600,7.447545654296875,0.5744365490019321,0.10667202999740838,0.7159096971370279
1761432098111487700,7.46748779296875,0.7235825698524713,-0.36428982374370095,0.6639172057017684
1761432098131429400,7.487429443359375,0.6702133832365273,-0.44010815805494785,0.48510969462431963
1761432098151371500,7.50737158203125,0.16046411820054055,-0.2095826616346836,0.616136340612173
1761432098171313400,7.5273134765625,0.20483575936853884,-0.01244680911898613,0.7653156792104244
1761432098191255600,7.547255615234375,0.7208008301794528,-0.18447335481941698,0.8524753456167876
1761432098211197700,7.56719775390625,1.0153887566655873,-0.5037228443533182,0.7718756222479045
1761432098231139300,7.587139404296875,0.7604501190006733,-0.6840571996718645,0.5878236346457153
1761432098251081500,7.60708154296875,-0.23143033630549906,-0.6311430633470416,0.3708998895332217
1761432098271023600,7.627023681640625,-0.6833826614111661,-0.27189707898944615,0.3159079605536535
1761432098290965500,7.646965576171875,-0.34124154111146926,0.09566460603177547,0.2577564715646207
1761432098310907600,7.66690771484375,0.24041677583754062,0.5448255468532442,0.21812738528121262
1761432098330849500,7.686849609375,0.012368483185768126,0.3658578037127852,0.7241355275601148
1761432098350791400,7.70679150390625,-0.8345791850507259,-0.4110150423005223,1.0285269821148366
1761432098370733600,7.726733642578125,-1.204241934004426,-0.598277151055634,0.13722513530179858
1761432098390675500,7.746675537109375,-1.0348486594170332,-1.332492758603394,0.010748042377084493
1761432098410617600,7.76661767578125,-0.44483518657684323,-1.1880483395725487,-0.6563696398664266
1761432098430559700,7.786559814453125,-0.5581026693165302,-0.46951457754224535,-1.2796398509465157
1761432098450501400,7.80650146484375,-1.6149170768260954,0.7159566050186753,-0.9906359351377934
1761432098470443500,7.826443603515625,-1.9660364533513783,1.1926374209284782,-0.2657912363950163
1761432098490385400,7.846385498046875,-2.1421949842900037,1.0065502011716365,0.3505237487196922
1761432098510327600,7.86632763671875,-0.9710790748178958,0.17601240046620367,0.014836992191150783
1761432098530269700,7.886269775390625,0.19883914930224417,-0.16259645405411718,-0.48707821821831165
1761432098550211300,7.90621142578125,0.9009966538101434,-0.14003653946071862,-0.43282004687339065
1761432098570153500,7.926153564453125,0.6253413913309573,-0.03499503327459097,-0.00923150033429265
1761432098590095600,7.946095703125,0.039517186874151226,0.39509003567695616,0.2488669165357947
1761432098610037500,7.96603759765625,-0.2753565717935562,0.7053425642848015,0.6051417030628771
1761432098629978400,7.985978271484375,-0.16161796441078186,0.6933750631153583,0.35732294387314467
1761432098649920500,8.00592041015625,0.5363385812759399,0.34805531277954577,-0.2930478574372828
1761432098669862000,8.02586181640625,1.308814653635025,-0.0545329696983099,-0.8308311576288193
1761432098689803500,8.045803466796874,1.4844061983406542,-0.5246782463595271,-0.8922826014786959
1761432098709745700,8.06574560546875,0.8851637093842029,-0.8307964516416192,-0.6174252844441682
1761432098729687800,8.085687744140625,0.471973368871212,-0.7840364540323614,-0.4808689517820254
1761432098749629700,8.105629638671875,0.5522603730291128,-0.5208803153812885,-0.7356002668391912
1761432098769572600,8.125572509765625,0.7873749508053064,-0.19870792413800953,-0.4893012280300259
1761432098789514800,8.1455146484375,0.8879612311482429,-0.2327279749006033,0.28345850184233856
1761432098809456600,8.16545654296875,0.8581143744170665,-0.43740386753231286,0.45103798673972484
1761432098829398500,8.1853984375,0.8538608086258173,-0.43666123247146604,-0.22336117601515723
1761432098849340700,8.205340576171874,0.04587678503394126,-0.26709640070945023,-0.9433999175146222
1761432098869282800,8.22528271484375,-1.3402718681722878,0.07474135272949933,-0.8014382552102207
1761432098889224700,8.245224609375,-2.520533791652322,0.49826048729419703,-0.2657675997911021
1761432098909166800,8.265166748046875,-2.6935622078716754,-0.08935527675449847,1.2983408981546758
1761432098929108700,8.285108642578125,-0.8362602700054645,-0.7031289798885584,1.4147257822625339
1761432098949050600,8.305050537109375,0.4069400479465723,-0.6411456941843032,-0.4891546226335689
1761432098968992800,8.32499267578125,-0.6357166548728943,-1.0821014089792966,-0.963394950056076
1761432098988934700,8.3449345703125,-2.036927852654457,-0.26164661087095736,-0.4480303293563425
1761432099008877800,8.3648779296875,-2.0673709217131138,0.9877341492816806,0.1756196748215705
1761432099028819700,8.38481982421875,-1.228356384563446,1.2812488935783504,1.0103826920066028
1761432099048761600,8.40476171875,-0.18330431104004383,0.9629822776019573,1.152073209219426
1761432099068703700,8.424703857421875,0.6376064141422509,0.7829968818515539,0.22301877405196427
1761432099088645600,8.444645751953125,1.2893693639308212,0.43833559542447326,0.121224433093518
1761432099108587800,8.464587890625,1.446968740350008,0.28699177226871253,0.47211296000499275
1761432099128529700,8.48452978515625,1.0058931985676287,0.3997019133865833,0.7681972259961068
1761432099148471600,8.504471435546876,0.500752304109931,0.6085466161355376,0.8557781865544617
1761432099168413700,8.52441357421875,0.6194137548476457,0.9642226330518722,0.8821542253699153
1761432099188355600,8.54435546875,0.9293862974703312,1.0914476217344402,0.9494413896359503
1761432099208297700,8.564297607421874,1.2620002954900265,0.789887810409069,0.8513340666271746
1761432099228240000,8.584239990234375,1.4203946216791867,0.26044424934387206,0.506725825561583
1761432099248181500,8.604181396484375,1.2008201428622007,-0.32756226758807894,0.16689999646693468
1761432099268123600,8.62412353515625,0.9033505234599113,-0.5789066801533103,0.1769030291629955
1761432099288065800,8.644065673828125,0.7791378683358431,-0.3492483219563961,0.8043390181530267
1761432099308007700,8.664007568359375,0.5197609559625387,0.022617782260477542,1.243848844988644
1761432099327949800,8.68394970703125,0.7656020949363708,0.1988607766121626,1.168774899303913
1761432099347891700,8.7038916015625,0.9372820191562176,0.1361614515930414,1.1347826863963155
1761432099367833600,8.72383349609375,0.6296569164425134,-0.23239421290159223,1.2187372000858188
1761432099387775700,8.743775634765624,-0.034361703807115555,-0.7189741992741823,0.9738347302015871
1761432099407717600,8.763717529296875,-0.02573006906211376,-0.7323930682957172,0.06310111075304448
1761432099427659800,8.78365966796875,-0.4429547796577215,-0.7238838908866048,-0.5225346584595739
1761432099447602000,8.803601806640625,-1.3554372886002064,-0.7182116904690862,-0.28388014305420217
1761432099467543600,8.82354345703125,-1.8702268858909605,-0.4681353981435299,0.07339158208835869
1761432099487486700,8.84348681640625,-1.7623592163681983,-0.5703238529860973,1.128951422959566
1761432099507428600,8.8634287109375,-1.4672288535684346,-0.17143237919956444,0.9932095850180834
1761432099527370800,8.883370849609374,-1.3250018183261156,0.47177346238493917,0.15393599507343023
1761432099547312600,8.903312744140624,-1.4901801055669783,0.6864242210641502,-0.37528004084620625
1761432099567254800,8.9232548828125,-1.71298932852149,0.8013663590177893,-0.8314213055416941
1761432099587196700,8.94319677734375,-1.6757722352832556,0.5972033843442798,-1.1434188511859624
1761432099607138600,8.963138671875,-1.0926929456204175,0.522649370880425,-1.3687857227340339
1761432099627080700,8.983080810546875,-0.6976455800414085,0.34677111818790435,-1.0733496549859642
1761432099647022800,9.00302294921875,-0.4915238725155592,0.37680677548944946,-0.7449426071368157
1761432099666965200,9.02296533203125,0.2069943987071514,0.39328795469105243,-0.5114731296865269
1761432099686907400,9.042907470703126,1.0741840599834918,0.3301832637414336,-0.2770418579993769
1761432099706849300,9.062849365234374,1.5261404767423867,0.3372548095628619,-0.20405655515696852
1761432099726791400,9.08279150390625,1.2449550526648758,0.6762374658316374,-0.3679809333465993
1761432099746733300,9.1027333984375,0.6290712255090475,1.012929380814731,-0.2052904808660969
1761432099766675200,9.12267529296875,0.3645931906044483,1.096201830524206,-0.11902074903678149
1761432099786617300,9.142617431640625,0.5091735109746456,0.6869865311220288,0.08113872561641038
1761432099806559200,9.162559326171875,1.0295920540630816,0.18194062147140502,-0.15965473804641514
1761432099826501400,9.18250146484375,1.4614865105241537,-0.012811550778150558,-0.7056593020837754
1761432099846443300,9.202443359375,1.2228665549755096,0.02852466821670532,-0.8751223539717495
1761432099866385200,9.22238525390625,0.4362070589631796,0.07902005296200514,-0.4573949545510113
1761432099886327300,9.242327392578124,0.49617666675746436,0.11274813504070043,0.3810538019420579
1761432099906269200,9.262269287109374,1.3062041788756846,-0.05564765294194221,0.5081140285169705
1761432099926211300,9.28221142578125,1.7539111214965581,-0.3638753977239132,-0.14152624829551205
1761432099946153200,9.3021533203125,1.4081401202619075,-0.6095578390046954,-0.7879888449199497
1761432099966095000,9.32209521484375,0.6289426306933165,-0.9096239046409725,-0.7227827977769077
1761432099986037200,9.342037353515625,0.20806582733094692,-1.011555169852078,-0.3284286020938307
1761432100005979400,9.3619794921875,0.025868016228079795,-0.9371551779061555,-0.19601382621582597
1761432100025921300,9.38192138671875,-0.2911626282125711,-0.7347673962116241,-0.4332955188980326
1761432100045863400,9.401863525390626,-1.304372287273407,-0.4404804984986782,-0.5401787439607083
1761432100065805300,9.421805419921874,-2.1553023031443357,0.05481032533496618,0.21195103473383933
1761432100085747200,9.441747314453124,-2.5468828693956134,-0.7456269361391663,1.6988688871018587
1761432100105689300,9.461689453125,-1.6291209587454796,0.07752543049007654,0.8508931179266422
1761432100125631200,9.48163134765625,-1.0155004003465176,-0.8953387741789222,0.996402755036205
1761432100145573400,9.501573486328125,-1.4254215099304914,-0.9030039019793271,0.4134088055692613
1761432100165515300,9.521515380859375,-2.0360650983452797,-0.5737167102947831,0.18752729902993887
1761432100185457200,9.54145703125,-1.9058786295086145,0.4460258576661348,-0.28784557608645406
1761432100205399300,9.5613994140625,-1.3508990606486797,1.1381307547152042,0.11711844081310555
1761432100225341400,9.581341552734376,-0.6185632754981517,0.7317629536986351,1.2435162520334124
1761432100245283300,9.601283447265626,0.3099865711480379,0.3658338383153081,1.316980278303474
1761432100265225200,9.62122509765625,1.0017653049826623,0.044049861867725845,0.8377567921735346
1761432100285167000,9.6411669921875,1.3325883279323578,-0.1951417560890317,0.3049880870073102
1761432100305109200,9.661109130859375,1.3662141186803578,-0.008921265341341494,0.14686298794727773
1761432100325051400,9.681051513671875,0.8738082026332616,0.4013482192888856,0.2498483287885785
1761432100344993300,9.7009931640625,0.4144318650066852,0.8102326793015002,0.29037010786170137
1761432100364935400,9.720935302734375,0.41540567847490306,0.8882546611368656,0.18603163537839426
1761432100384877300,9.740877197265625,0.821512782728672,0.8553072080418467,0.2124409371426329
1761432100404819200,9.760819091796876,1.282419398662448,0.44882834786623715,0.2650377146139741
1761432100424761300,9.78076123046875,1.591661288923025,0.12449351789206266,0.20773747215941546
1761432100444703200,9.800703125,1.8012012804597615,0.00888531724512577,0.2665886338504031
1761432100464645400,9.820645263671874,1.6567466322958468,-0.24766747761815786,-0.009803959610138554
1761432100484587300,9.840587158203125,1.4038380391538143,-0.11834054822027683,-0.14364882994005457
1761432100504529200,9.860529052734375,1.0235779083400964,0.11410013417154549,0.008337971860938705
1761432100524471300,9.88047119140625,-0.08374854278862476,0.005843757592141628,0.664806044300273
1761432100544413400,9.900413330078125,-0.9151280550152063,-0.21675036130696534,1.1178124815687536
1761432100564355300,9.920355224609375,-0.6511866112053394,0.14133008640259503,0.2576402247738093
1761432100584297200,9.940297119140626,0.053552726489305494,-0.1267646776944399,0.43458460886050015
1761432100604239000,9.960239013671876,0.17486907564997672,-0.23590660493671892,0.5246121588533744
1761432100624181200,9.98018115234375,-0.15182780728042125,-0.12904314402043818,0.591961903494224
1761432100644123400,10.000123291015624,-0.23845336681008336,-0.20653847163319586,0.8071472074415534
1761432100664065300,10.020065185546875,-0.03059329118430614,-0.767768917581439,1.46792735722661
1761432100684007400,10.04000732421875,0.2552303140878677,-0.2368906475380063,0.37424108971990644
1761432100703949600,10.059949462890625,-0.27236791137158867,0.2534218033611774,-0.08171471713976934
1761432100723891500,10.079891357421875,-1.7180851903557777,0.671223144800961,-0.12545536692785098
1761432100743833300,10.099833251953125,-2.0773241604506967,0.7814028906583785,-0.12994445850802586
1761432100763775200,10.119775146484375,-1.4710744230806827,0.7420233586892485,0.02546670541819185
