time,seconds_elapsed,z,y,x
1761432090712979200,0.068979248046875,-0.244082510471344,-0.12566013634204865,0.31186237931251526
1761432090732921300,0.08892138671875,-0.23247919976711273,-0.1848100870847702,0.09898670017719269
1761432090752863500,0.108863525390625,-0.17509107291698456,-0.3608696162700653,-0.04967254400253296
1761432090772805000,0.12880517578125,-0.12158247083425522,-0.5787245631217957,0.0033614099957048893
1761432090792748300,0.148748291015625,-0.12912020087242126,-0.5587454438209534,0.2025405764579773
1761432090812690200,0.168690185546875,-0.1766241192817688,-0.48205822706222534,0.28983187675476074
1761432090832632300,0.18863232421875,-0.19366595149040222,0.04405777528882027,0.10693590342998505
1761432090852574500,0.208574462890625,-0.00402447022497654,0.2587555944919586,-0.11874616891145706
1761432090872516400,0.228516357421875,0.09155157953500748,0.1712864637374878,-0.22333525121212006
1761432090892458500,0.24845849609375,0.06652462482452393,-0.07441479712724686,-0.17734886705875397
1761432090912400100,0.268400146484375,-0.004963449202477932,-0.187038853764534,-0.12223752588033676
1761432090932342300,0.28834228515625,-0.06001938506960869,-0.1141062006354332,-0.15515966713428497
1761432090952284400,0.308284423828125,-0.1663040667772293,0.021984202787280083,-0.2668653428554535
1761432090972227300,0.328227294921875,-0.18567366898059845,0.014276587404310703,-0.3412318825721741
1761432090992169500,0.34816943359375,-0.13849245011806488,-0.06001829728484154,-0.30728211998939514
1761432091012111400,0.368111328125,-0.09664898365736008,-0.05453922972083092,-0.24631468951702118
1761432091032053200,0.38805322265625,-0.05366784706711769,0.07559972256422043,-0.2110900729894638
1761432091051995400,0.407995361328125,-0.06672555208206177,0.20781637728214264,-0.22950859367847443
1761432091071937300,0.427937255859375,-0.15647965669631958,0.2651587724685669,-0.25598520040512085
1761432091091879400,0.44787939453125,-0.24781331419944763,0.24852916598320007,-0.18531344830989838
1761432091111821300,0.4678212890625,-0.27556172013282776,0.1332421451807022,-0.11805630475282669
1761432091131763200,0.48776318359375,-0.28616011142730713,0.0039304280653595924,-0.07091394811868668
1761432091151706000,0.5077060546875,-0.290139377117157,0.010841616429388523,-0.06848060339689255
1761432091171648300,0.527648193359375,-0.25991690158843994,0.12214615941047668,-0.10941166430711746
1761432091191590400,0.54759033203125,-0.20849201083183289,0.1925729662179947,-0.14237084984779358
1761432091211532300,0.5675322265625,-0.15391606092453003,0.08121027797460556,-0.11769619584083557
1761432091231474400,0.587474365234375,-0.12014584243297577,-0.08568014949560165,0.0132543770596385
1761432091251416300,0.607416259765625,-0.11489984393119812,-0.24655336141586304,0.17399507761001587
1761432091271358200,0.627358154296875,-0.21054138243198395,-0.4450749456882477,0.2587037682533264
1761432091291300400,0.64730029296875,-0.3929394781589508,-0.6177709102630615,0.2363979071378708
1761432091311242200,0.6672421875,-0.5080068707466125,-0.6577730774879456,0.2407275140285492
1761432091331185400,0.687185302734375,-0.4565480351448059,-0.44093194603919983,0.30475378036499023
1761432091351127300,0.707127197265625,-0.23354889452457428,-0.14884135127067566,0.42570653557777405
1761432091371069400,0.7270693359375,-0.11876221001148224,-0.09697957336902618,0.3532584607601166
1761432091391011300,0.74701123046875,-0.19908636808395386,-0.10694059729576111,0.15861114859580994
1761432091410953200,0.766953125,-0.28322017192840576,-0.1089761033654213,-0.05862415209412575
1761432091430895400,0.786895263671875,-0.3812524080276489,-0.2868112623691559,-0.22462482750415802
1761432091450837200,0.806837158203125,-0.571919322013855,-0.4314582049846649,-0.3104686439037323
1761432091470779400,0.826779296875,-0.6857128143310547,-0.3081243634223938,-0.23100177943706512
1761432091490721300,0.84672119140625,-0.6659659743309021,-0.049644872546195984,0.02499963715672493
1761432091510664200,0.866664306640625,-0.49390891194343567,0.021602202206850052,0.2848128378391266
1761432091530606300,0.8866064453125,-0.3840607702732086,-0.12114381790161133,0.3346797227859497
1761432091550548200,0.90654833984375,-0.3634280860424042,-0.19996792078018188,0.17479734122753143
1761432091570490400,0.926490478515625,-0.31469759345054626,-0.031335555016994476,0.0365581214427948
1761432091590432500,0.9464326171875,-0.2064453810453415,0.18851377069950104,0.025677084922790527
1761432091610374100,0.9663740234375,-0.10022399574518204,0.31190747022628784,0.04820064455270767
1761432091630316300,0.98631640625,-0.05519768223166466,0.2906474471092224,-0.002528927056118846
1761432091650258200,1.006258056640625,-0.1123833879828453,0.13161474466323853,-0.10734747350215912
1761432091670197500,1.026197509765625,-0.2050371766090393,-0.08181580156087875,-0.224940687417984
1761432091690140400,1.046140380859375,-0.1792314201593399,-0.14704139530658722,-0.2597056031227112
1761432091710082300,1.066082275390625,-0.12487652152776718,-0.13497696816921234,-0.24922168254852295
1761432091730024400,1.0860244140625,-0.14830143749713898,-0.07001930475234985,-0.17484448850154877
1761432091749966300,1.10596630859375,-0.19429035484790802,-0.09910966455936432,-0.0920812115073204
1761432091769908500,1.125908447265625,-0.181904137134552,-0.18502871692180634,-0.024312235414981842
1761432091789850400,1.145850341796875,-0.08334383368492126,-0.18674974143505096,0.08495092391967773
1761432091809792500,1.16579248046875,0.06848721206188202,-0.0465116985142231,0.1815548688173294
1761432091829734400,1.185734375,0.10391832888126373,0.09525039047002792,0.1823510378599167
1761432091849676300,1.20567626953125,0.05803589150309563,0.1536453515291214,0.07668695598840714
1761432091869619500,1.225619384765625,-0.04296540841460228,0.07821732759475708,0.004733092617243528
1761432091889561300,1.245561279296875,-0.04295522719621658,-0.03384469822049141,0.10007917135953903
1761432091909503500,1.26550341796875,0.03028799220919609,-0.1555861532688141,0.27094388008117676
1761432091929445600,1.285445556640625,0.1568150669336319,-0.27968063950538635,0.4418701231479645
1761432091949387300,1.30538720703125,0.41307809948921204,0.1483546793460846,0.4591663181781769
1761432091969329400,1.325329345703125,0.6450225710868835,0.5309131741523743,0.32467779517173767
1761432091989271300,1.345271240234375,0.7545917630195618,0.4450819194316864,0.26199963688850403
1761432092009213400,1.36521337890625,0.6100737452507019,0.0691879540681839,0.12218384444713593
1761432092029155600,1.385155517578125,0.13799773156642914,-0.3148482143878937,-0.16831663250923157
1761432092049097200,1.40509716796875,-0.29462605714797974,-0.31941595673561096,-0.28287655115127563
1761432092069040400,1.425040283203125,-0.3555770516395569,-0.19917698204517365,-0.08291348069906235
1761432092088982300,1.444982177734375,-0.04042113572359085,-0.06136971712112427,0.2339470535516739
1761432092108924400,1.46492431640625,0.28648337721824646,0.050981488078832626,0.2961008846759796
1761432092128866600,1.484866455078125,0.3944249749183655,-0.01951242983341217,0.056178439408540726
1761432092148808400,1.504808349609375,0.3535946011543274,-0.04883020371198654,-0.25080445408821106
1761432092168750300,1.524750244140625,0.29923367500305176,0.03061271645128727,-0.38290831446647644
1761432092188692200,1.544692138671875,0.2891111969947815,0.19273416697978973,-0.2231508046388626
1761432092208634400,1.56463427734375,0.28583675622940063,0.15709912776947021,-0.049888234585523605
1761432092228576500,1.584576416015625,0.2807161509990692,-0.02003290317952633,-0.06125172600150108
1761432092248518400,1.604518310546875,0.25618505477905273,-0.1300717443227768,-0.21255671977996826
1761432092268461600,1.624461669921875,0.33836624026298523,-0.07827268540859222,-0.30006861686706543
1761432092288403500,1.644403564453125,0.3945539593696594,0.07297392189502716,-0.2374851107597351
1761432092308345300,1.664345458984375,0.366143137216568,0.15845346450805664,-0.10811200737953186
1761432092328287500,1.68428759765625,0.24280403554439545,0.052123140543699265,-0.05723626911640167
1761432092348229400,1.7042294921875,0.02635953575372696,-0.09080825746059418,-0.07530388981103897
1761432092368171500,1.724171630859375,-0.07274869084358215,-0.09447544068098068,-0.058914270251989365
1761432092388113400,1.744113525390625,0.019778093323111534,-0.02045683190226555,0.05243872106075287
1761432092408055300,1.76405517578125,0.14996884763240814,0.12579412758350372,0.1325806975364685
1761432092427997400,1.78399755859375,0.2238902747631073,0.27796241641044617,0.025467678904533386
1761432092447939300,1.803939208984375,0.09745221585035324,0.24469637870788574,-0.058700550347566605
1761432092467882500,1.823882568359375,-0.08078804612159729,0.03527475520968437,0.006888508331030607
1761432092487824400,1.843824462890625,-0.2409295290708542,-0.17607957124710083,0.10899588465690613
1761432092507766500,1.8637666015625,-0.3307828903198242,-0.2295437604188919,0.017469989135861397
1761432092527708400,1.88370849609375,-0.3684186637401581,-0.17617987096309662,-0.17471294105052948
1761432092547650300,1.903650390625,-0.36017316579818726,-0.1976933479309082,-0.20734764635562897
1761432092567592400,1.923592529296875,-0.2704187333583832,-0.2944563031196594,0.04405175894498825
1761432092587534300,1.943534423828125,-0.08294493705034256,-0.10655374825000763,0.4647335708141327
1761432092607476500,1.9634765625,0.022836172953248024,0.17522263526916504,0.5687941312789917
1761432092627418600,1.983418701171875,0.09029443562030792,0.36229223012924194,0.28612422943115234
1761432092647360300,2.0033603515625,-0.0180819109082222,0.4253707528114319,-0.24123328924179077
1761432092667301600,2.023301513671875,-0.35280558466911316,0.16518068313598633,-0.6853298544883728
1761432092687244500,2.04324462890625,-0.4446367621421814,-0.03221231698989868,-0.5862691402435303
1761432092707186700,2.063186767578125,-0.2721329927444458,-0.03505560755729675,-0.16685114800930023
1761432092727128800,2.08312890625,0.02413606084883213,0.154551699757576,0.2407512664794922
1761432092747070500,2.103070556640625,0.1391812413930893,0.21771210432052612,0.30628982186317444
1761432092767012600,2.1230126953125,0.08135074377059937,0.19465743005275726,0.13035911321640015
1761432092786954800,2.142954833984375,-0.07429619133472443,0.05931471288204193,-0.08550475537776947
1761432092806896600,2.162896728515625,-0.18803942203521729,-0.1116526648402214,-0.2165643721818924
1761432092826838800,2.1828388671875,-0.16539259254932404,-0.13642607629299164,-0.2309933602809906
1761432092846780400,2.202780517578125,-0.0833185538649559,-0.13144975900650024,-0.1465776413679123
1761432092866722600,2.22272265625,0.05095909535884857,-0.04639558121562004,0.05616001412272453
1761432092886664700,2.242664794921875,0.14032846689224243,0.04668064042925835,0.13989345729351044
1761432092906607600,2.262607666015625,0.1448124647140503,0.1272149384021759,0.031240591779351234
1761432092926549800,2.2825498046875,0.0762084573507309,0.15554305911064148,-0.14976619184017181
1761432092946491600,2.30249169921875,-0.016996407881379128,0.15356212854385376,-0.18727125227451324
1761432092966433800,2.322433837890625,-0.08901122957468033,0.03973221033811569,-0.024898052215576172
1761432092986375700,2.342375732421875,-0.05279959365725517,-0.004350997507572174,0.1867670863866806
1761432093006317600,2.362317626953125,0.01822480745613575,0.0008706883527338505,0.1973828226327896
1761432093026259700,2.382259765625,0.06314245611429214,-0.058631282299757004,-0.016552738845348358
1761432093046201600,2.40220166015625,0.03171732276678085,-0.1875091940164566,-0.27658915519714355
1761432093066143700,2.422143798828125,-0.03275839611887932,-0.23947392404079437,-0.4061039090156555
1761432093086085600,2.442085693359375,-0.05947088450193405,-0.20171527564525604,-0.36513620615005493
1761432093106027500,2.462027587890625,-0.017784956842660904,-0.022044844925403595,-0.05753525719046593
1761432093125970700,2.481970703125,0.19173501431941986,0.28627708554267883,0.4419281780719757
1761432093145912600,2.50191259765625,0.4639091193675995,0.42825666069984436,0.7619743943214417
1761432093165854700,2.521854736328125,0.5361846089363098,0.19347476959228516,0.6895267367362976
1761432093185796900,2.541796875,0.4022163152694702,-0.09630733728408813,0.3129931092262268
1761432093205738500,2.561738525390625,0.17204567790031433,-0.2848370671272278,-0.1779552400112152
1761432093225680600,2.5816806640625,0.10108218342065811,-0.09543050080537796,-0.3481379449367523
1761432093245622500,2.60162255859375,0.09745721518993378,0.22873623669147491,-0.10703863203525543
1761432093265564700,2.621564697265625,0.24605663120746613,0.1615024358034134,0.26953256130218506
1761432093285506800,2.6415068359375,0.3266076445579529,-0.046432673931121826,0.4323917031288147
1761432093305448700,2.66144873046875,0.2879699170589447,-0.10762552917003632,0.2898087799549103
1761432093325390600,2.681390625,0.24137729406356812,-0.020484043285250664,0.10974051803350449
1761432093345333500,2.70133349609375,0.23064284026622772,0.10890375077724457,0.10290994495153427
1761432093365275600,2.721275634765625,0.193817600607872,0.095855712890625,0.2032303810119629
1761432093385217800,2.7412177734375,0.11649517714977264,-0.030200950801372528,0.1964716613292694
1761432093405159700,2.76115966796875,0.10483140498399734,-0.17900365591049194,0.11433713138103485
1761432093425101800,2.781101806640625,0.2540697753429413,-0.10652665793895721,0.049778785556554794
1761432093445043500,2.80104345703125,0.36448660492897034,0.05337807908654213,0.016755683347582817
1761432093464985600,2.820985595703125,0.290290504693985,0.06786928325891495,0.006206239107996225
1761432093484927700,2.840927734375,0.1078878864645958,-0.04565763473510742,-0.010833033360540867
1761432093504869600,2.86086962890625,-0.016055667772889137,-0.1279946118593216,-0.0034663984552025795
1761432093524811800,2.880811767578125,0.03215276077389717,-0.07886846363544464,0.046448130160570145
1761432093544753700,2.900753662109375,0.16342611610889435,0.028504082933068275,0.08811595290899277
1761432093564695600,2.920695556640625,0.2524579167366028,0.06915425509214401,0.09851166605949402
1761432093584638700,2.940638671875,0.21992050111293793,0.003065250813961029,0.018171289935708046
1761432093604580600,2.96058056640625,0.09197567403316498,-0.039074383676052094,-0.1084422767162323
1761432093624522800,2.980522705078125,-0.030583351850509644,0.06217464432120323,-0.21037337183952332
1761432093644464600,3.000464599609375,-0.11431928724050522,0.16608157753944397,-0.19814211130142212
1761432093664407600,3.020407470703125,-0.1776500642299652,0.06669160723686218,-0.04527489095926285
1761432093684349400,3.040349365234375,-0.21331509947776794,-0.1407151073217392,0.1677832454442978
1761432093704291300,3.060291259765625,-0.18492992222309113,-0.1866089254617691,0.19979022443294525
1761432093724233500,3.0802333984375,-0.0936359316110611,0.034215349704027176,-0.020302899181842804
1761432093744175400,3.10017529296875,-0.02896982617676258,0.24718065559864044,-0.323469877243042
1761432093764117500,3.120117431640625,0.015980379655957222,0.2839232385158539,-0.5250957608222961
1761432093784059600,3.1400595703125,-0.020443366840481758,0.1869642585515976,-0.5391579270362854
1761432093804001300,3.160001220703125,-0.21377409994602203,0.06942015886306763,-0.4900529384613037
1761432093823943400,3.179943359375,-0.4661661982536316,0.00722997821867466,-0.39105135202407837
1761432093843886300,3.19988623046875,-0.45058244466781616,0.029009010642766953,-0.15022720396518707
1761432093863828500,3.219828369140625,-0.2637948989868164,0.11129892617464066,0.059348251670598984
1761432093883770400,3.239770263671875,-0.15425196290016174,0.1911308467388153,0.07441914081573486
1761432093903712500,3.25971240234375,-0.19762583076953888,0.202911838889122,-0.018245644867420197
1761432093923654700,3.279654541015625,-0.37000572681427,0.0988025963306427,-0.09024833142757416
1761432093943596300,3.29959619140625,-0.5144653916358948,-0.11026562005281448,-0.06912723928689957
1761432093963538400,3.319538330078125,-0.5385920405387878,-0.22770385444164276,-0.01708383671939373
1761432093983480600,3.33948046875,-0.4194277822971344,-0.21219003200531006,0.020034004002809525
1761432094003422500,3.35942236328125,-0.2445051223039627,-0.10848592221736908,0.05168410763144493
1761432094023364600,3.379364501953125,-0.1269131749868393,0.07880785316228867,-0.030837470665574074
1761432094043306200,3.39930615234375,-0.1169138103723526,0.0997440293431282,-0.16693033277988434
1761432094063249400,3.41924951171875,-0.21279843151569366,-0.06837989389896393,-0.22564579546451569
1761432094083191300,3.43919140625,-0.29318177700042725,-0.18631412088871002,-0.13237181305885315
1761432094103133400,3.459133544921875,-0.2305581122636795,-0.17050717771053314,0.06756836175918579
1761432094123075600,3.47907568359375,-0.06778129190206528,-0.09193047136068344,0.16944515705108643
1761432094143017500,3.499017578125,0.022538835182785988,-0.024271193891763687,0.09034771472215652
1761432094162959400,3.51895947265625,-0.05043525621294975,-0.04957016184926033,-0.06251437216997147
1761432094182901500,3.538901611328125,-0.16070975363254547,-0.1861276477575302,-0.08902674168348312
1761432094202843400,3.558843505859375,-0.21764235198497772,-0.2532431185245514,-0.0052060759626328945
1761432094222785500,3.57878564453125,-0.18787041306495667,-0.12021271139383316,0.1306823194026947
1761432094242727400,3.5987275390625,-0.024152448400855064,-0.1536589413881302,0.41208428144454956
1761432094262669600,3.618669677734375,0.22653107345104218,0.1839216649532318,0.6107089519500732
1761432094282611500,3.638611572265625,0.2953535318374634,0.22245065867900848,0.5757195353507996
1761432094302553300,3.65855322265625,0.12901023030281067,-0.03755228593945503,0.20347392559051514
1761432094322496500,3.67849658203125,-0.12197116017341614,-0.352699339389801,-0.1755155622959137
1761432094342438400,3.6984384765625,-0.10466796159744263,-0.33752375841140747,-0.17078787088394165
1761432094362380500,3.718380615234375,-0.050590209662914276,-0.11787087470293045,0.03845681995153427
1761432094382322400,3.738322509765625,0.0720033198595047,0.121005579829216,0.20382075011730194
1761432094402264300,3.758264404296875,0.23533301055431366,0.2833632230758667,0.2302282601594925
1761432094422206500,3.77820654296875,0.35564255714416504,0.32923340797424316,0.22141379117965698
1761432094442148400,3.7981484375,0.37556177377700806,0.21459351480007172,0.2001185566186905
1761432094462090500,3.818090576171875,0.3098054826259613,0.06973572820425034,0.11079200357198715
1761432094482032600,3.83803271484375,0.19685295224189758,-0.04985872283577919,-0.01959260366857052
1761432094501974300,3.857974365234375,0.05825237184762955,-0.15655943751335144,-0.13035377860069275
1761432094521916400,3.87791650390625,0.05280216783285141,-0.20291127264499664,-0.12566085159778595
1761432094541858600,3.897858642578125,0.14723241329193115,-0.2060810923576355,-0.09110407531261444
1761432094561800400,3.917800537109375,0.24743258953094482,-0.12621228396892548,-0.1003892570734024
1761432094581742600,3.93774267578125,0.2739444077014923,-0.034969642758369446,-0.1865754872560501
1761432094601685500,3.957685546875,0.1484546810388565,0.042776793241500854,-0.32887643575668335
1761432094621627400,3.97762744140625,0.03239034488797188,0.07723647356033325,-0.3785102367401123
1761432094641568500,3.997568603515625,0.00013653284986503422,0.0347481369972229,-0.23707589507102966
1761432094661510400,4.017510498046875,0.06813620030879974,0.0023934906348586082,-0.05087818205356598
1761432094681451800,4.03745166015625,0.12960860133171082,0.0178933497518301,0.004345552064478397
1761432094701394000,4.057393798828125,0.11463844776153564,0.1409316509962082,0.0368419773876667
1761432094721336800,4.0773369140625,0.10935070365667343,0.22322437167167664,0.10784361511468887
1761432094741279000,4.097279052734375,0.12460239231586456,0.16419729590415955,0.14850379526615143
1761432094761220900,4.117220947265625,0.059956446290016174,0.02005039155483246,0.04498961940407753
1761432094781163000,4.1371630859375,-0.09868331253528595,-0.21099351346492767,-0.05320894718170166
1761432094801105000,4.15710498046875,-0.2808672785758972,-0.33983278274536133,-0.00694258650764823
1761432094821046800,4.177046875,-0.3536503314971924,-0.3200398087501526,0.16820599138736725
1761432094840989000,4.196989013671875,-0.3238118588924408,-0.2803969383239746,0.3826720714569092
1761432094860930800,4.216930908203125,-0.14628514647483826,-0.26001107692718506,0.4907130300998688
1761432094880873000,4.236873046875,-0.048960424959659576,-0.25209879875183105,0.36554667353630066
1761432094900815000,4.256815185546875,-0.010345879010856152,-0.21693997085094452,0.15642420947551727
1761432094920756700,4.2767568359375,-0.07868029922246933,-0.1622278392314911,-0.08007758110761642
1761432094940699000,4.296698974609375,-0.2044808566570282,-0.043096382170915604,-0.33549320697784424
1761432094960641000,4.31664111328125,-0.3584924340248108,-0.048979226499795914,-0.5303491950035095
1761432094980584000,4.336583984375,-0.49881502985954285,0.021108683198690414,-0.4108830392360687
1761432095000526800,4.35652685546875,-0.49161040782928467,0.04545099288225174,-0.0273064486682415
1761432095020469000,4.376468994140625,-0.305981308221817,0.05413277819752693,0.35431933403015137
1761432095040411000,4.396410888671875,-0.1898716539144516,0.038692373782396317,0.4376559555530548
1761432095060352800,4.416352783203125,-0.22691267728805542,0.057158537209033966,0.33634430170059204
1761432095080295000,4.436294921875,-0.3206053078174591,0.00934687815606594,0.15614719688892365
1761432095100236800,4.45623681640625,-0.3923065960407257,-0.10468589514493942,-0.006569612771272659
1761432095120179000,4.476178955078125,-0.3703896105289459,-0.17049291729927063,-0.11180078983306885
1761432095140121000,4.49612109375,-0.32575538754463196,-0.16729694604873657,-0.22980229556560516
1761432095160062700,4.516062744140625,-0.21292713284492493,-0.09301849454641342,-0.3075810968875885
1761432095180004900,4.5360048828125,-0.006869753357023001,0.04407208040356636,-0.23603469133377075
1761432095199947000,4.555947021484375,0.19072343409061432,0.22428733110427856,-0.07790784537792206
1761432095219889000,4.575888916015625,0.13144028186798096,0.2794433832168579,-0.025815105065703392
1761432095239831000,4.5958310546875,-0.0828862115740776,0.18465556204319,-0.18387471139431
1761432095259774000,4.61577392578125,-0.19546131789684296,-0.06384167820215225,-0.2658645510673523
1761432095279716000,4.635716064453125,-0.13971444964408875,-0.1467142105102539,-0.09019710123538971
1761432095299657700,4.65565771484375,0.04701335355639458,0.037606362253427505,0.14744368195533752
1761432095319599900,4.675599853515625,0.20154239237308502,0.15098102390766144,0.30170977115631104
1761432095339542000,4.6955419921875,0.2030273824930191,0.1361866295337677,0.26051414012908936
1761432095359484000,4.71548388671875,0.10514248162508011,0.13311588764190674,0.07854647189378738
1761432095379426000,4.735426025390625,0.07605530321598053,0.08570055663585663,-0.03368128463625908
1761432095399368000,4.755367919921875,0.042093709111213684,0.07751119136810303,0.013529828749597073
1761432095419309800,4.775309814453125,-0.018020953983068466,0.05037442594766617,0.08961238712072372
1761432095439252000,4.795251953125,-0.0035288173239678144,0.13817381858825684,0.2603393793106079
1761432095459193900,4.81519384765625,0.2748253345489502,0.28170329332351685,0.5405294299125671
1761432095479136000,4.835135986328125,0.35119667649269104,0.22137457132339478,0.5445921421051025
1761432095499078000,4.855077880859375,0.2859105169773102,0.12818889319896698,0.18281470239162445
1761432095519019800,4.875019775390625,0.10790040343999863,0.02733081951737404,-0.2904580235481262
1761432095538963000,4.894962890625,0.10650910437107086,0.07032482326030731,-0.4182550609111786
1761432095558904800,4.91490478515625,0.2517608106136322,0.17913703620433807,-0.11307224631309509
1761432095578847000,4.934846923828125,0.45235779881477356,0.1763116717338562,0.2454434633255005
1761432095598788900,4.954788818359375,0.5196067690849304,0.06880480796098709,0.2747219502925873
1761432095618731000,4.97473095703125,0.4448612630367279,-0.03716333582997322,0.018521364778280258
1761432095638673000,4.9946728515625,0.41902419924736023,-0.07370394468307495,-0.21024547517299652
1761432095658614800,5.01461474609375,0.4288330078125,-0.014312640763819218,-0.2500590682029724
1761432095678557700,5.0345576171875,0.42293959856033325,0.057386189699172974,-0.13868607580661774
1761432095698499300,5.054499267578125,0.3580714464187622,0.025899427011609077,-0.02755698189139366
1761432095718441500,5.07444140625,0.30204764008522034,-0.059391703456640244,-0.011639302596449852
1761432095738383600,5.094383544921875,0.3563193082809448,-0.11306674778461456,-0.0034516039304435253
1761432095758325500,5.114325439453125,0.40652015805244446,-0.10608236491680145,0.012032443657517433
1761432095778267600,5.134267578125,0.4025895893573761,0.010821908712387085,-0.03175099566578865
1761432095798209500,5.15420947265625,0.31347766518592834,0.05282192304730415,-0.08363961428403854
1761432095818151400,5.1741513671875,0.18693765997886658,-0.01062060333788395,-0.0854080319404602
1761432095838093600,5.194093505859375,0.07570966333150864,-0.10621373355388641,-0.021589631214737892
1761432095858036500,5.214036376953125,0.03634485974907875,-0.0842917412519455,0.07034862786531448
1761432095877978600,5.233978515625,0.024496760219335556,0.012921423651278019,0.11511820554733276
1761432095897920500,5.25392041015625,0.06156642362475395,0.13288860023021698,0.08969572931528091
1761432095917862400,5.2738623046875,0.021501785144209862,0.14170363545417786,0.01867246814072132
1761432095937804500,5.293804443359375,-0.1829078197479248,-0.01617574132978916,-0.09313060343265533
1761432095957746400,5.313746337890625,-0.45882371068000793,-0.22305531799793243,-0.16672345995903015
1761432095977688600,5.3336884765625,-0.6570843458175659,-0.30710411071777344,-0.14644604921340942
1761432095997630700,5.353630615234375,-0.5808842182159424,-0.12356371432542801,0.08660507202148438
1761432096017572600,5.373572509765625,-0.30340954661369324,0.1811513602733612,0.40610697865486145
1761432096037514500,5.393514404296875,-0.033150721341371536,0.2689037322998047,0.35583826899528503
1761432096057456400,5.413456298828125,-0.11541920900344849,0.1693553626537323,-0.18249362707138062
1761432096077398500,5.4333984375,-0.41803380846977234,-0.08834316581487656,-0.9300116896629333
1761432096097340700,5.453340576171875,-0.5019493103027344,-0.06927025318145752,-1.144409418106079
1761432096117282600,5.473282470703125,-0.31914451718330383,0.0851319208741188,-0.6878043413162231
1761432096137224400,5.493224365234375,-0.057597603648900986,0.23721040785312653,0.1109815314412117
1761432096157166600,5.51316650390625,-0.02610388584434986,0.12589611113071442,0.5031193494796753
1761432096177108500,5.5331083984375,-0.17353978753089905,0.012769434601068497,0.3882886469364166
1761432096197051600,5.5530517578125,-0.35640862584114075,-0.0865645557641983,0.11497650295495987
1761432096216993500,5.57299365234375,-0.4039013683795929,-0.12327630817890167,-0.018287472426891327
1761432096236935700,5.592935791015625,-0.39559438824653625,-0.06095267832279205,0.06969360262155533
1761432096256877300,5.612877197265625,-0.33652108907699585,0.09738757461309433,0.17884670197963715
1761432096276819500,5.6328193359375,-0.3085353374481201,0.3621816039085388,0.2910313904285431
1761432096296761600,5.65276171875,-0.24459272623062134,0.22472505271434784,0.24259930849075317
1761432096316703500,5.672703369140625,-0.14024454355239868,0.05350315943360329,0.10478515923023224
1761432096336645600,5.692645751953125,-0.06164514273405075,0.05634015426039696,-0.1158885657787323
1761432096356587800,5.712587890625,-0.08473793417215347,0.08717398345470428,-0.3215658366680145
1761432096376529400,5.732529296875,-0.18366879224777222,0.0028084837831556797,-0.34560418128967285
1761432096396471600,5.752471435546875,-0.2842639088630676,-0.17456506192684174,-0.20314013957977295
1761432096416413400,5.772413330078125,-0.2539259195327759,-0.32300078868865967,-0.08838687837123871
1761432096436355600,5.79235546875,-0.21233989298343658,-0.37356945872306824,-0.07140294462442398
1761432096456297700,5.812297607421875,-0.16091318428516388,-0.23152866959571838,-0.12591558694839478
1761432096476239400,5.8322392578125,-0.0537111833691597,-0.013253426179289818,-0.17011597752571106
1761432096496181500,5.852181396484375,-0.030757425352931023,-0.0016034538857638836,-0.24092181026935577
1761432096516123600,5.87212353515625,-0.14325879514217377,-0.15128231048583984,-0.26026126742362976
1761432096536065500,5.8920654296875,-0.27664947509765625,-0.24735486507415771,-0.2154531031847
1761432096556007700,5.912007568359375,-0.28246650099754333,-0.10897906124591827,-0.04315720498561859
1761432096575950600,5.93195068359375,-0.017721643671393394,0.1966772824525833,0.23599399626255035
1761432096595892500,5.951892578125,0.12543846666812897,0.20577572286128998,0.3247878849506378
1761432096615834400,5.97183447265625,0.11162256449460983,0.01444814633578062,0.16809064149856567
1761432096635776500,5.991776611328125,-0.005780824925750494,-0.07114618271589279,-0.03611808642745018
1761432096655718700,6.01171875,-0.020204059779644012,-0.062227070331573486,-0.15032966434955597
1761432096675660300,6.031660400390625,-0.03435027599334717,0.018824327737092972,-0.1575714349746704
1761432096695602200,6.051602294921875,0.0031120022758841515,0.14279699325561523,-0.13147683441638947
1761432096715544300,6.07154443359375,0.12009825557470322,0.06911824643611908,0.005037488415837288
1761432096735486200,6.091486328125,0.24333225190639496,-0.0642678514122963,0.12490468472242355
1761432096755428400,6.111428466796875,0.34286847710609436,-0.14471976459026337,0.18384453654289246
1761432096775370200,6.131370361328125,0.3977600634098053,-0.13840290904045105,0.1527492254972458
1761432096795312000,6.15131201171875,0.33726441860198975,-0.07151183485984802,0.05611730366945267
1761432096815254300,6.171254150390625,0.2434178590774536,-0.0042310236021876335,-0.01597278006374836
1761432096835196200,6.191196044921875,0.15317079424858093,-0.1292049139738083,-0.06207410618662834
1761432096855138300,6.21113818359375,0.07605136185884476,-0.29648298025131226,-0.15596622228622437
1761432096875080400,6.23108056640625,0.11399071663618088,-0.2745644152164459,-0.1555628776550293
1761432096895022300,6.251022216796875,0.250017374753952,-0.08007046580314636,0.007527823094278574
1761432096914964200,6.270964111328125,0.38558170199394226,0.009488323703408241,0.12522341310977936
1761432096934906400,6.29090625,0.3389727473258972,-0.03464311361312866,0.05786002427339554
1761432096954848300,6.31084814453125,0.14177994430065155,-0.12460239976644516,-0.1643640249967575
1761432096974790400,6.330790283203125,-0.10425252467393875,-0.173005148768425,-0.19951608777046204
1761432096994732300,6.350732177734375,-0.04287109151482582,-0.04418795555830002,0.025110138580203056
1761432097014675500,6.370675537109375,0.1532648503780365,0.1359597146511078,0.31428149342536926
1761432097034617000,6.3906171875,0.2757565677165985,0.16976439952850342,0.32069772481918335
1761432097054559200,6.410559326171875,0.04406222701072693,0.13073591887950897,-0.04274042695760727
1761432097074501400,6.43050146484375,-0.33832719922065735,0.08474957197904587,-0.3675501346588135
1761432097094443300,6.450443359375,-0.45807796716690063,0.10221762955188751,-0.2503710091114044
1761432097114385400,6.470385498046875,-0.26875200867652893,0.13450095057487488,0.1597306728363037
1761432097134327300,6.490327392578125,0.05904808267951012,0.31102046370506287,0.49053695797920227
1761432097154269200,6.510269287109375,0.05519581958651543,0.24568912386894226,0.35163232684135437
1761432097174211300,6.53021142578125,-0.22737137973308563,-0.10148397088050842,0.008318602107465267
1761432097194153200,6.5501533203125,-0.3685262203216553,-0.25452902913093567,-0.00416936818510294
1761432097214095400,6.570095458984375,-0.1625320166349411,-0.12099195271730423,0.20245231688022614
1761432097234037200,6.590037353515625,0.05945839360356331,0.17687322199344635,0.39432528614997864
1761432097253979100,6.609979248046875,0.03572521358728409,0.13211120665073395,0.09384962916374207
1761432097273921300,6.62992138671875,-0.2685527503490448,-0.3179335594177246,-0.5014382004737854
1761432097293863400,6.649863525390625,-0.43400925397872925,-0.4395967721939087,-0.7702104449272156
1761432097313805300,6.669805419921875,-0.28942596912384033,-0.39008671045303345,-0.40479347109794617
1761432097333747500,6.68974755859375,0.12725119292736053,-0.10858684033155441,0.3260417878627777
1761432097353689000,6.709689208984375,0.38777533173561096,0.02669789083302021,0.7421031594276428
1761432097373631200,6.72963134765625,0.34811365604400635,0.07577220350503922,0.6760382652282715
1761432097393573400,6.749573486328125,0.06937925517559052,0.04066111147403717,0.2747405171394348
1761432097413515300,6.769515380859375,-0.2705134451389313,-0.12559400498867035,-0.18793675303459167
1761432097433457400,6.78945751953125,-0.3275200426578522,-0.14681625366210938,-0.32078251242637634
1761432097453399300,6.8093994140625,-0.21579962968826294,-0.05255712941288948,-0.15166792273521423
1761432097473341200,6.829341064453125,0.010800004005432129,0.12853814661502838,0.1059141680598259
1761432097493284400,6.849284423828125,0.16639523208141327,0.23633015155792236,0.18025986850261688
1761432097513226200,6.869226318359375,0.1305815577507019,0.21204957365989685,-0.029580825939774513
1761432097533168400,6.88916845703125,-0.028126483783125877,0.12022256851196289,-0.2856931686401367
1761432097553110300,6.9091103515625,-0.19581109285354614,-0.014151736162602901,-0.30839353799819946
1761432097573052200,6.92905224609375,-0.2275262475013733,-0.033020373433828354,-0.1160423532128334
1761432097592994300,6.948994384765625,-0.054053619503974915,0.00012605544179677963,0.10040947049856186
1761432097612936200,6.968936279296875,0.09504406899213791,-0.0014525717124342918,0.08344904333353043
1761432097632878300,6.98887841796875,0.08801144361495972,0.0014039119705557823,-0.10879761725664139
1761432097652820200,7.0088203125,0.04496550187468529,0.018235405907034874,-0.169342502951622
1761432097672762600,7.0287626953125,0.07999721169471741,-0.034787893295288086,-0.024039864540100098
1761432097692704500,7.04870458984375,0.1347033828496933,-0.08256228268146515,0.16911888122558594
1761432097712646400,7.068646484375,0.18180985748767853,-0.04882490634918213,0.2811983525753021
1761432097732588500,7.088588623046875,0.20800676941871643,0.017760731279850006,0.380191832780838
1761432097752530700,7.10853076171875,0.26812347769737244,0.008094355463981628,0.4677269160747528
1761432097772472600,7.12847265625,0.27109408378601074,-0.03445138782262802,0.3452335000038147
1761432097792414500,7.14841455078125,0.27317100763320923,-0.07656990736722946,0.06991146504878998
1761432097812356400,7.1683564453125,0.21643687784671783,-0.12781022489070892,-0.22550737857818604
1761432097832298500,7.188298583984375,0.11237316578626633,-0.095134437084198,-0.3820602297782898
1761432097852240600,7.20824072265625,0.015021380968391895,-0.01567336544394493,-0.3235042989253998
1761432097872182500,7.2281826171875,0.09990065544843674,0.0584733709692955,-0.04081302508711815
1761432097892124400,7.24812451171875,0.3318018615245819,0.1051541119813919,0.19032400846481323
1761432097912066600,7.268066650390625,0.4361521303653717,-0.03239370882511139,0.1695430427789688
1761432097932008400,7.288008544921875,0.3486042022705078,-0.19099850952625275,-0.01199549250304699
1761432097951950600,7.30795068359375,0.2561374306678772,-0.2716568112373352,-0.11696309596300125
1761432097971892500,7.327892578125,0.2596648037433624,-0.21485747396945953,-0.06109568849205971
1761432097991834600,7.347834716796875,0.36883625388145447,-0.019542865455150604,-0.04685147851705551
1761432098011777500,7.367777587890625,0.3939017653465271,0.0634346753358841,-0.12407419830560684
1761432098031719400,7.387719482421875,0.3174434006214142,-0.0061860233545303345,-0.20102283358573914
1761432098051661600,7.40766162109375,0.24607475101947784,-0.11234194785356522,-0.25170978903770447
1761432098071603500,7.427603515625,0.263244092464447,-0.010886188596487045,-0.1982908844947815
1761432098091545600,7.447545654296875,0.3009597361087799,0.13697990775108337,-0.14778316020965576
1761432098111487700,7.46748779296875,0.24429087340831757,0.16380804777145386,-0.18595969676971436
1761432098131429400,7.487429443359375,0.12513884902000427,0.04699614271521568,-0.19181138277053833
1761432098151371500,7.50737158203125,0.11438266932964325,0.05282584950327873,-0.06592647731304169
1761432098171313400,7.5273134765625,0.21478046476840973,0.24388593435287476,0.008866148069500923
1761432098191255600,7.547255615234375,0.27558162808418274,0.32702702283859253,-0.01823669672012329
1761432098211197700,7.56719775390625,0.23361800611019135,0.275300532579422,-0.10272131115198135
1761432098231139300,7.587139404296875,0.1191783994436264,0.06673520058393478,-0.13642866909503937
1761432098251081500,7.60708154296875,-0.04447906091809273,-0.13937276601791382,0.06432168185710907
1761432098271023600,7.627023681640625,-0.14799772202968597,-0.26277512311935425,0.30353641510009766
1761432098290965500,7.646965576171875,-0.20110151171684265,-0.25181153416633606,0.36520493030548096
1761432098310907600,7.66690771484375,-0.14523980021476746,-0.17989438772201538,0.2261703908443451
1761432098330849500,7.686849609375,0.056297533214092255,-0.1944022923707962,0.13931693136692047
1761432098350791400,7.70679150390625,0.21366919577121735,-0.2734743058681488,0.193719282746315
1761432098370733600,7.726733642578125,0.23328879475593567,-0.18107984960079193,0.1893882304430008
1761432098390675500,7.746675537109375,0.16695401072502136,-0.04098450765013695,0.006167395040392876
1761432098410617600,7.76661767578125,-0.06653019040822983,-0.00838986225426197,-0.40250834822654724
1761432098430559700,7.786559814453125,-0.3380773961544037,-0.012320009991526604,-0.7607671618461609
1761432098450501400,7.80650146484375,-0.3507196009159088,0.05058259516954422,-0.6922323703765869
1761432098470443500,7.826443603515625,-0.13937260210514069,0.015606115572154522,-0.34311380982398987
1761432098490385400,7.846385498046875,0.21935755014419556,0.15144485235214233,0.13535533845424652
1761432098510327600,7.86632763671875,0.2450200468301773,0.14790044724941254,0.3008248805999756
1761432098530269700,7.886269775390625,0.10537759959697723,0.15230466425418854,0.15891312062740326
1761432098550211300,7.90621142578125,-0.10060834884643555,0.010678008198738098,-0.13833491504192352
1761432098570153500,7.926153564453125,-0.1591079831123352,0.08559449762105942,-0.32725614309310913
1761432098590095600,7.946095703125,-0.1249987930059433,0.08144202828407288,-0.2781347334384918
1761432098610037500,7.96603759765625,0.053008727729320526,0.051592759788036346,-0.05243859067559242
1761432098629978400,7.985978271484375,0.22794778645038605,0.14284171164035797,0.11561353504657745
1761432098649920500,8.00592041015625,0.29692143201828003,0.40513235330581665,0.06359661370515823
1761432098669862000,8.02586181640625,0.24498936533927917,0.6075497269630432,-0.1468050330877304
1761432098689803500,8.045803466796874,0.13260452449321747,0.6036887168884277,-0.28051266074180603
1761432098709745700,8.06574560546875,0.01824336126446724,0.38364267349243164,-0.13677431643009186
1761432098729687800,8.085687744140625,-0.044269539415836334,0.17888635396957397,0.1235419362783432
1761432098749629700,8.105629638671875,-0.13986867666244507,0.01575530134141445,0.2962426543235779
1761432098769572600,8.125572509765625,-0.1348699927330017,-0.03698308393359184,0.34037691354751587
1761432098789514800,8.1455146484375,0.028452027589082718,-0.010691341012716293,0.3125525116920471
1761432098809456600,8.16545654296875,0.16124282777309418,0.054647985845804214,0.2076532542705536
1761432098829398500,8.1853984375,0.13226419687271118,-0.025203678756952286,0.0016120580257847905
1761432098849340700,8.205340576171874,-0.04625950753688812,-0.2208789587020874,-0.11340382695198059
1761432098869282800,8.22528271484375,-0.12420269846916199,-0.3084425628185272,0.016194306313991547
1761432098889224700,8.245224609375,0.00918840616941452,-0.17059679329395294,0.440647155046463
1761432098909166800,8.265166748046875,0.39719995856285095,0.14051732420921326,0.833711564540863
1761432098929108700,8.285108642578125,0.6479641795158386,0.1955360770225525,0.6937872171401978
1761432098949050600,8.305050537109375,0.4393174350261688,-0.004651437047868967,0.16621914505958557
1761432098968992800,8.32499267578125,-0.031118985265493393,-0.1485031247138977,-0.11430653929710388
1761432098988934700,8.3449345703125,-0.20902736485004425,-0.16665641963481903,0.012168432585895061
1761432099008877800,8.3648779296875,-0.11352162808179855,-0.10605517029762268,0.258537232875824
1761432099028819700,8.38481982421875,0.21820957958698273,0.11718790233135223,0.36507222056388855
1761432099048761600,8.40476171875,0.438529908657074,0.26709938049316406,0.3122074007987976
1761432099068703700,8.424703857421875,0.35357925295829773,0.24838946759700775,0.13829872012138367
1761432099088645600,8.444645751953125,0.19294147193431854,0.01616111770272255,-0.06562135368585587
1761432099108587800,8.464587890625,0.11516541242599487,-0.18674756586551666,-0.21620415151119232
1761432099128529700,8.48452978515625,0.13889768719673157,-0.14245833456516266,-0.26241087913513184
1761432099148471600,8.504471435546876,0.20060235261917114,0.03927714005112648,-0.2098945677280426
1761432099168413700,8.52441357421875,0.2647309899330139,0.05123875290155411,-0.1174650490283966
1761432099188355600,8.54435546875,0.3437967002391815,-0.022683529183268547,-0.02915157750248909
1761432099208297700,8.564297607421874,0.39554333686828613,-0.03127186372876167,-0.027253909036517143
1761432099228240000,8.584239990234375,0.3573709726333618,0.0644746646285057,-0.14806117117404938
1761432099248181500,8.604181396484375,0.22006431221961975,0.23422011733055115,-0.278806209564209
1761432099268123600,8.62412353515625,0.02454441785812378,0.27513056993484497,-0.2963753044605255
1761432099288065800,8.644065673828125,-0.04646557569503784,0.11429962515830994,-0.20788829028606415
1761432099308007700,8.664007568359375,-0.02982383593916893,0.020465731620788574,-0.0998029112815857
1761432099327949800,8.68394970703125,0.039181653410196304,0.05214887484908104,-0.1667705476284027
1761432099347891700,8.7038916015625,0.2013598382472992,0.198288694024086,-0.31288373470306396
1761432099367833600,8.72383349609375,0.37936607003211975,0.30463775992393494,-0.3651072382926941
1761432099387775700,8.743775634765624,0.49655553698539734,0.4467470049858093,-0.253620982170105
1761432099407717600,8.763717529296875,0.3810370862483978,0.27974724769592285,-0.21057020127773285
1761432099427659800,8.78365966796875,0.10011109709739685,-0.14277689158916473,-0.1568848043680191
1761432099447602000,8.803601806640625,-0.13441012799739838,-0.41868630051612854,0.03197278454899788
1761432099467543600,8.82354345703125,-0.17710553109645844,-0.29126352071762085,0.17083843052387238
1761432099487486700,8.84348681640625,0.033277299255132675,-0.07388774305582047,0.16826218366622925
1761432099507428600,8.8634287109375,0.1388731300830841,-0.10634617507457733,0.0865507572889328
1761432099527370800,8.883370849609374,0.1677325814962387,-0.17689934372901917,-0.05085846036672592
1761432099547312600,8.903312744140624,0.17747333645820618,-0.24098114669322968,-0.11948876827955246
1761432099567254800,8.9232548828125,0.18740929663181305,-0.2606382369995117,-0.06284769624471664
1761432099587196700,8.94319677734375,0.1887054145336151,0.012105369940400124,0.013555250130593777
1761432099607138600,8.963138671875,0.12760433554649353,0.17880389094352722,0.03550146147608757
1761432099627080700,8.983080810546875,0.008537806570529938,0.04464871063828468,0.1470373570919037
1761432099647022800,9.00302294921875,-0.07432865351438522,-0.03342938423156738,0.315662682056427
1761432099666965200,9.02296533203125,-0.14514325559139252,0.009038882330060005,0.30207931995391846
1761432099686907400,9.042907470703126,-0.17920233309268951,0.12091437727212906,0.07562848925590515
1761432099706849300,9.062849365234374,-0.22391541302204132,0.15684765577316284,-0.1955985277891159
1761432099726791400,9.08279150390625,-0.3131880760192871,0.017011158168315887,-0.2897515892982483
1761432099746733300,9.1027333984375,-0.31357336044311523,-0.10852936655282974,-0.1772501915693283
1761432099766675200,9.12267529296875,-0.21399888396263123,-0.044272154569625854,-0.07548940926790237
1761432099786617300,9.142617431640625,-0.07436503469944,0.1878679394721985,-0.07029405981302261
1761432099806559200,9.162559326171875,-0.043537843972444534,0.3512020409107208,-0.15164901316165924
1761432099826501400,9.18250146484375,-0.1610417515039444,0.28062036633491516,-0.2529943287372589
1761432099846443300,9.202443359375,-0.3354923725128174,-0.02420610934495926,-0.2004745453596115
1761432099866385200,9.22238525390625,-0.364848792552948,-0.07560603320598602,0.01782315969467163
1761432099886327300,9.242327392578124,-0.15585750341415405,0.05950595438480377,0.15726403892040253
1761432099906269200,9.262269287109374,0.05901898071169853,0.1652088314294815,0.08237206935882568
1761432099926211300,9.28221142578125,0.10965918749570847,0.13355335593223572,-0.07590457797050476
1761432099946153200,9.3021533203125,0.012433536350727081,-0.007383283227682114,-0.1201310083270073
1761432099966095000,9.32209521484375,-0.10469799488782883,-0.1337493360042572,-0.002769238781183958
1761432099986037200,9.342037353515625,-0.11854453384876251,-0.16628007590770721,0.0988570973277092
1761432100005979400,9.3619794921875,-0.1189967691898346,-0.20844700932502747,0.06662048399448395
1761432100025921300,9.38192138671875,-0.17010752856731415,-0.2489061951637268,-0.07425187528133392
1761432100045863400,9.401863525390626,-0.22864016890525818,-0.1665213704109192,-0.08077538758516312
1761432100065805300,9.421805419921874,-0.12179587036371231,-0.11776275932788849,0.11378918588161469
1761432100085747200,9.441747314453124,0.17771226167678833,0.228690505027771,0.31469833850860596
1761432100105689300,9.461689453125,0.3705705404281616,0.2996726632118225,0.25669029355049133
1761432100125631200,9.48163134765625,0.37390753626823425,0.27233433723449707,-0.03992517665028572
1761432100145573400,9.501573486328125,0.24983404576778412,0.24659912288188934,-0.2010062038898468
1761432100165515300,9.521515380859375,0.10376520454883575,0.18221715092658997,-0.08628464490175247
1761432100185457200,9.54145703125,-0.022731946781277657,0.10560180991888046,0.1394999474287033
1761432100205399300,9.5613994140625,0.08324727416038513,0.16644257307052612,0.3218443989753723
1761432100225341400,9.581341552734376,0.34734195470809937,0.266807496547699,0.40525493025779724
1761432100245283300,9.601283447265626,0.5118150115013123,0.23754486441612244,0.41001299023628235
1761432100265225200,9.62122509765625,0.5114186406135559,0.07200510054826736,0.3507799804210663
1761432100285167000,9.6411669921875,0.36070847511291504,-0.024304453283548355,0.1480448991060257
1761432100305109200,9.661109130859375,0.27006563544273376,-0.0014420128427445889,-0.10005785524845123
1761432100325051400,9.681051513671875,0.21465279161930084,-0.0970185324549675,-0.11732586473226547
1761432100344993300,9.7009931640625,0.16750971972942352,-0.15664969384670258,0.025524413213133812
1761432100364935400,9.720935302734375,0.14347630739212036,-0.08971378207206726,0.18298208713531494
1761432100384877300,9.740877197265625,0.16045509278774261,0.03842107951641083,0.2450697422027588
1761432100404819200,9.760819091796876,0.14342601597309113,0.23275750875473022,0.11489405483007431
1761432100424761300,9.78076123046875,0.21548603475093842,0.6769737601280212,-0.16270644962787628
1761432100444703200,9.800703125,0.24589473009109497,0.7107471227645874,-0.35582059621810913
1761432100464645400,9.820645263671874,0.03887052834033966,0.2502690851688385,-0.4184277355670929
1761432100484587300,9.840587158203125,-0.2258518636226654,-0.16148750483989716,-0.40291449427604675
1761432100504529200,9.860529052734375,-0.32454168796539307,-0.31428664922714233,-0.4069966971874237
1761432100524471300,9.88047119140625,-0.22031885385513306,-0.3076252341270447,-0.2044653743505478
1761432100544413400,9.900413330078125,-0.060103487223386765,-0.19285885989665985,0.19827228784561157
1761432100564355300,9.920355224609375,-0.09012717753648758,0.0335758700966835,0.4565960764884949
1761432100584297200,9.940297119140626,-0.04624318704009056,0.22839264571666718,0.3440261483192444
1761432100604239000,9.960239013671876,0.02716822177171707,0.41214123368263245,0.16415925323963165
1761432100624181200,9.98018115234375,0.06567049771547318,0.37057554721832275,0.16528452932834625
1761432100644123400,10.000123291015624,0.10528776049613953,0.2948417365550995,0.19166213274002075
1761432100664065300,10.020065185546875,0.18365781009197235,0.16630573570728302,0.006515441462397575
1761432100684007400,10.04000732421875,0.048209015280008316,-0.11235827952623367,-0.2577366828918457
1761432100703949600,10.059949462890625,0.005484845954924822,-0.2801242470741272,-0.4187476933002472
1761432100723891500,10.079891357421875,0.022690648213028908,-0.3664136826992035,-0.21027825772762299
1761432100743833300,10.099833251953125,0.06334338337182999,-0.3470340073108673,0.17512881755828857
1761432100763775200,10.119775146484375,0.18328596651554108,-0.15274715423583984,0.2596256732940674
