time,seconds_elapsed,z,y,x
1761432056147815200,0.066815185546875,0.9689175128698349,-1.7101617038801311,0.21257351401373742
1761432056167757300,0.08675732421875,0.5999889234095811,-1.3878729927808044,0.4814439386583864
1761432056187700200,0.1067001953125,0.0382505279392004,-1.4387597149312494,0.8198819666564464
1761432056207642000,0.12664208984375,-0.4013502651154995,-1.2465323849841952,0.725213751250878
1761432056227585000,0.1465849609375,0.012136427995562553,-1.0891136258289218,-0.039518538581021126
1761432056247527200,0.166527099609375,0.25134558160901066,-0.9661313892826437,-0.5206345969919115
1761432056267470000,0.186469970703125,-0.45110009219050407,-0.3209387577950954,0.5399611556872725
1761432056287412200,0.206412109375,-1.6771248189359902,-0.47936873981952666,-0.11164039299450815
1761432056307354000,0.22635400390625,-1.3753215542435646,0.003559738308191299,0.07037479155045002
1761432056327297300,0.24629736328125,-1.1081664090842007,-0.8868374878153205,0.481883572184667
1761432056347239200,0.2662392578125,-0.44650224300622937,-0.7414221779257059,0.88890844887048
1761432056367182300,0.286182373046875,0.1716717409133911,0.6693330932706594,0.002357376781105995
1761432056387124000,0.3061240234375,0.2485778704613447,0.7652820692017674,-0.9578492255624383
1761432056407067100,0.326067138671875,-0.03599719605445861,0.4063394517049193,-0.8651773716058582
1761432056427009000,0.346009033203125,-0.43137657006680963,0.08605389712154865,-0.40821642455793916
1761432056446951200,0.365951171875,-0.3047480859726667,0.22753157530128953,-0.7512529593273997
1761432056466894000,0.38589404296875,-0.3426479007780552,0.4276625179797411,-0.9061034023646265
1761432056486836200,0.405836181640625,-0.08751286375820637,0.7663423919096589,-0.8570248256146907
1761432056506779100,0.425779052734375,-0.22285481566190718,1.200064356058836,-0.610401961678639
1761432056526721300,0.44572119140625,-0.19751871435344218,1.3387994575321673,-0.1380257293612696
1761432056546664200,0.465664306640625,0.38750118798315525,1.446062439160049,-0.09245266738110221
1761432056566606300,0.4856064453125,1.11751174505651,1.5147662652909755,-0.8790944724731147
1761432056586548000,0.5055478515625,1.4683587343811988,1.3234557579278945,-1.1426683250796048
1761432056606491100,0.5254912109375,1.1888999879658222,1.0341960407271982,-0.4200579247275367
1761432056626434000,0.54543408203125,0.8839613478571176,1.080403372889757,-0.2740868441186845
1761432056646377000,0.565376953125,0.8116904768943786,0.5958496316477656,-0.13008322765789926
1761432056666318800,0.58531884765625,1.0437906752854584,-0.3043812984868884,-0.060846281030960375
1761432056686262000,0.605261962890625,1.1885866842329502,-1.013977428562939,-0.0685201401270926
1761432056706204000,0.625203857421875,0.7654419359385967,-1.4520698628813027,-0.09950011080773546
1761432056726146000,0.64514599609375,0.19457447759509086,-1.5064011725276707,-0.37018187745697795
1761432056746089000,0.6650888671875,-0.21147066733837128,-1.5538368774414062,-0.42989539159834383
1761432056766031000,0.685031005859375,-0.32294600596427914,-1.6509850000292061,-0.5321243245817721
1761432056785974000,0.70497412109375,-0.2829758146256208,-1.8093351948156953,-0.5695251768890768
1761432056805916200,0.724916259765625,-0.6361819342970848,-1.7713973860874772,-0.8022050017990171
1761432056825859000,0.744859130859375,-1.0485632965147496,-1.597842315645516,-0.6205782685823739
1761432056845801200,0.76480126953125,-1.24884504584074,-1.2899091698959468,-0.7704024078901857
1761432056865742800,0.784742919921875,-1.7689982159912585,-0.7549047598332166,-1.153714327489957
1761432056885686000,0.80468603515625,-2.2404045986294747,-0.432630954042077,-0.411330318794772
1761432056905628000,0.8246279296875,-2.0638860022068024,-0.6349103069260716,1.2192192845143377
1761432056925571000,0.844571044921875,-0.6853115836471319,-0.7182274725601077,1.3818040481306613
1761432056945513000,0.864512939453125,-0.2971761894136667,-1.131092526641488,0.28042276914194225
1761432056965456100,0.8844560546875,-0.01554068348109722,-1.2144380415871738,-0.9606956279695034
1761432056985398000,0.90439794921875,0.30061376264691353,-0.5029103589266538,-1.727214983881265
1761432057005340200,0.924340087890625,0.205740014731884,0.3586930266499519,-1.5038805680088698
1761432057025283000,0.944282958984375,-0.23801263730525968,0.9048220573171972,-0.9024876960854977
1761432057045225000,0.964224853515625,-0.16981880652308462,0.7595891182571649,-0.27443567582266404
1761432057065168000,0.98416796875,0.42533787442445753,0.290170694565773,0.21665424398873
1761432057085110000,1.004110107421875,1.0878291389763355,-0.05122282223701477,0.44934155808538195
1761432057105053000,1.024052978515625,1.1357125876575709,-0.13264233755618332,0.31183658292889593
1761432057124995000,1.0439951171875,0.6251414848446846,-0.061253217864036556,0.24330265173846854
1761432057144937000,1.06393701171875,0.11898586038649081,0.10879822837114334,0.056678434461518185
1761432057164880100,1.083880126953125,0.1350374159991741,0.35646366016268727,-0.1431785455471836
1761432057184822000,1.103822021484375,0.9103133482098579,0.4329132781147957,-0.2057288905496709
1761432057204765200,1.12376513671875,1.3861480686843395,0.41328444853723045,-0.13424365353928877
1761432057224707000,1.14370703125,1.4420014733314512,0.37279987793564795,0.04480558473900892
1761432057244649000,1.16364892578125,0.9995926371186971,0.29121465066075325,0.2701158215958625
1761432057264592000,1.183591796875,0.6666822865009308,-0.01521218217909336,0.3832951511280611
1761432057284534000,1.203533935546875,0.6964280209451913,-0.12563362783789633,0.5231238199917599
1761432057304477000,1.223476806640625,1.0924404321640728,-0.16558628351986407,0.6520306608140468
1761432057324419000,1.243419189453125,1.1300953322976828,-0.24031857616007327,0.7216969022363424
1761432057344362000,1.263362060546875,0.9883604644864797,-0.31954876474142074,0.7367747905112803
1761432057364304100,1.28330419921875,0.4488362389117479,-0.4182216126784682,0.6668798548996449
1761432057384246000,1.30324609375,0.24587913289666175,-0.5677461114525795,0.7334433080010115
1761432057404189200,1.323189208984375,0.286503988751769,-0.8144725088283419,0.4818048809252679
1761432057424130800,1.343130859375,0.3864227450966835,-0.9203802764549851,0.30232487741373476
1761432057444074000,1.363073974609375,0.044531800165772434,-0.6372858038857578,-0.39357860820069906
1761432057464016000,1.383015869140625,-0.7902431997179985,-0.35372517510950563,-0.5932000669870525
1761432057483958000,1.4029580078125,-1.682377332636714,0.07941928141266107,-0.14079657318093813
1761432057503901000,1.42290087890625,-2.3150474594205614,0.2896846646144986,0.054648138776887206
1761432057523843000,1.442843017578125,-2.5593752712219953,-0.006343231546878814,0.5042205647423863
1761432057543786000,1.462785888671875,-1.463663854563236,-0.8783458460628986,1.713136628037691
1761432057563728100,1.48272802734375,0.4304021720767021,-1.190282089973986,0.031394579363521184
1761432057583671000,1.502671142578125,1.5174363612830637,-1.4431851301580667,-2.3703538977093994
1761432057603613000,1.522613037109375,0.8953589401841163,-0.7387678640246391,-3.625015959265828
1761432057623555000,1.54255517578125,-1.1442957070857285,0.7271466920748353,-2.244031995346397
1761432057643498000,1.562498046875,-1.8750234725177286,1.3010998414739965,-0.6286193170230835
1761432057663440000,1.58243994140625,-1.6827134327232838,1.4376777649134396,-0.3934786184249446
1761432057683383000,1.602383056640625,-0.6871072348922491,0.8668278422266245,-0.7087690316021442
1761432057703324700,1.62232470703125,0.27482231878638264,0.36359862660914655,-0.9455027350127696
1761432057723267800,1.642267822265625,0.9865028539210557,0.10907909113913773,-0.7624003032203763
1761432057743209700,1.662209716796875,1.299209789943695,0.24473083964437245,-0.3930002237908542
1761432057763152000,1.68215185546875,1.2600871553450823,0.4703586271509528,-0.6413127213142812
1761432057783094800,1.7020947265625,0.8444751406431198,0.384715356656909,-1.0359444918297231
1761432057803037000,1.722036865234375,0.4105255052179098,0.19828619159460067,-0.7698713697534054
1761432057822979800,1.741979736328125,0.05905658460259437,0.12791121738106012,-0.3997745402313769
1761432057842922000,1.761921875,0.8141811246663332,0.10296557669490575,-0.15832197333900258
1761432057862864000,1.78186376953125,1.6650357372134923,-0.1740600973546505,-0.2789021719785407
1761432057882806800,1.801806884765625,1.4518565123915672,-0.6309367271199822,-0.29945007089609277
1761432057902749000,1.8217490234375,0.23349779022932052,-0.6341302624642848,0.08178064024914056
1761432057922691800,1.84169189453125,-0.5991343524068594,-0.4943783851638436,0.6980295378576964
1761432057942634000,1.861634033203125,-0.24749533592164516,-0.12829554052352904,0.9240447903119027
1761432057962576000,1.881575927734375,0.618874241143465,0.0304600201934576,0.4820389088768512
1761432057982518800,1.901518798828125,0.6632628334462642,-0.11601853501349686,-0.34329387053139504
1761432058002461000,1.9214609375,-0.2665934196233749,-0.21803806302994488,-0.7724709577925503
1761432058022403800,1.94140380859375,-1.333001584908366,0.1417924432173371,-0.711131522949785
1761432058042346000,1.961345947265625,-2.169395710426569,0.10357786337435244,-0.28096546118389815
1761432058062288000,1.981287841796875,-2.510156190022826,-0.5004784556046128,0.5892619238205253
1761432058082230800,2.001230712890625,-1.3313555712670087,-1.1516814334228633,0.6615074411462992
1761432058102173000,2.0211728515625,-0.1475473534822464,-2.0322925940692422,0.5946083994150161
1761432058122115800,2.04111572265625,0.5767933412611485,-2.012235309946537,-0.3550587618008256
1761432058142058000,2.06105810546875,0.6668401074111461,-1.6611024894177913,-0.9666150080811232
1761432058162001000,2.0810009765625,-0.5373047959595918,-0.43291795428991314,-1.1757121512211859
1761432058181943000,2.100943115234375,-1.7280559647500513,0.6041773150101304,-0.5050129572290927
1761432058201885000,2.120885009765625,-2.145236251682043,0.8232967435359955,0.8052993145525456
1761432058221828000,2.140828125,-1.1322288371950386,1.1056260769516228,1.13045693215169
1761432058241769700,2.160769775390625,0.05516366881728172,0.8956210982516407,1.3933040779188275
1761432058261713000,2.180712890625,0.6113087743252515,0.6756584968999028,1.619162751571834
1761432058281654800,2.20065478515625,0.8381149579614401,0.5213359501942992,1.831297728037834
1761432058301597000,2.220596923828125,0.9286398630172014,0.6492071278259158,1.926701929567754
1761432058321539800,2.240539794921875,1.2035995444476604,0.7807128625676035,1.7491233026981352
1761432058341482000,2.26048193359375,1.2865472922474146,0.827266231688857,1.3734636514171956
1761432058361425000,2.2804248046875,0.9943863006472587,0.6587529548063874,1.0762751870438456
1761432058381367000,2.300366943359375,1.0569693058103322,0.33157968653589487,0.9054778908774256
1761432058401308700,2.32030859375,1.2066016488730906,-0.12238865456730126,0.8493331751335412
1761432058421251800,2.340251953125,1.4392127193957567,-0.40628099951595065,0.7771529781289398
1761432058441193700,2.36019384765625,1.5584031624436379,-0.2663163562476635,0.7908616969425231
1761432058461137000,2.380136962890625,1.1344079347997904,-0.06080196696519851,1.042221964664012
1761432058481078800,2.400078857421875,0.7724860092312097,0.2394830021187663,1.1410719957988709
1761432058501021000,2.42002099609375,0.6398994935154915,0.01632715768367052,1.1564496707379817
1761432058520963800,2.4399638671875,0.7567980262339115,-0.32520927472114564,0.8535732238560915
1761432058540906000,2.459906005859375,0.9249819250315428,-0.49709582742899655,0.33564306351728734
1761432058560849000,2.479848876953125,0.8124357423037291,-0.452042049215734,0.33906489119213074
1761432058580791000,2.499791015625,0.4617565107613802,-0.3153513130515814,0.30179414980420843
1761432058600734000,2.51973388671875,-0.13501871129870413,-0.18650369160324334,0.19637151707969605
1761432058620675800,2.53967578125,-0.790876236924529,-0.012680033352971076,0.08195954048000276
1761432058640617700,2.55961767578125,-1.194357084327936,0.3804895556554198,0.15788283300306646
1761432058660561000,2.579560791015625,-1.3924176504731178,0.5292641128450631,0.599966346251592
1761432058680502800,2.599502685546875,-1.1200327879667282,0.09021598523706197,0.9231352011863142
1761432058700446000,2.619446044921875,-0.6369868209391832,-0.8658896845936774,0.6921541430182755
1761432058720387800,2.639387939453125,-0.5075479555994272,-1.1623892899200319,-0.5776390713702887
1761432058740330000,2.659330078125,-0.9120032009929419,-1.81711255081892,-1.054419182936102
1761432058760273000,2.67927294921875,-1.0693956566631793,-0.5980065174207091,-2.59938988622427
1761432058780214800,2.69921484375,-0.9378273780792951,0.9655743399217724,-2.283592875231802
1761432058800157700,2.71915771484375,-0.4510176746040582,1.4624635388627647,-1.1221172660905867
1761432058820099800,2.739099853515625,0.25245968033075333,1.1869351176336407,-0.7046722638078033
1761432058840042000,2.7590419921875,0.8392623744308948,0.25661183157414197,-0.5144056394744664
1761432058859985000,2.77898486328125,1.234281682959199,-0.2372200256228447,-0.6204921977341175
1761432058879927000,2.798927001953125,1.4426894555956125,-0.35444267572909594,-0.3743343209613114
1761432058899870000,2.818869873046875,1.0683692362248898,-0.032498540283739566,-0.037048385607823725
1761432058919811800,2.838811767578125,0.34359248815178867,0.37759266517013307,0.02928608104325831
1761432058939753700,2.858753662109375,-0.023954876083135603,0.904878463679552,0.019334705469198524
1761432058959697000,2.87869677734375,-0.12146189511120319,0.9310185748472809,-0.006903788039088248
1761432058979638800,2.898638671875,0.3590343874335289,0.44410599551945923,0.21941322384066878
1761432058999581700,2.918581787109375,1.268996437987685,-0.20320318973064422,-0.05006104844864458
1761432059019523800,2.93852392578125,1.7981658582866191,-0.3671551500469446,-0.8697476751960813
1761432059039466000,2.958466064453125,1.1424977177530526,-0.3695215869173407,-1.3368680510781705
1761432059059409000,2.978408935546875,-0.12715396927297115,-0.3846457985520363,-0.8383446019988506
1761432059079351000,2.99835107421875,-0.5915834986358881,-0.2688271700248122,-0.00047576428558677433
1761432059099294000,3.0182939453125,0.33386487486362454,-0.09262509220540523,-0.058260429256223135
1761432059119236000,3.038236083984375,1.1037146903723478,-0.1308066465616226,-0.681366937674582
1761432059139177700,3.058177734375,0.8368062134504318,-0.784322577497363,-0.426308436489664
1761432059159121000,3.078120849609375,-0.21133622730374335,-1.3320163732632995,-0.19167831776216626
1761432059179062800,3.098062744140625,0.1340706167936325,-0.9763479551315307,0.19869367641694843
1761432059199006000,3.118005859375,0.5981506020665168,-0.5523299311339855,0.7025106287945061
1761432059218947800,3.13794775390625,0.428227750647068,-0.5704191300541163,1.1068603679869324
1761432059238890000,3.157889892578125,-0.051699207577109337,-1.1910647647842765,1.8252445654787122
1761432059258833000,3.1778330078125,-1.4207365669846534,-1.2851067380502819,1.125229552892223
1761432059278775000,3.197775146484375,-2.3849650452554223,-1.0146873303979635,-0.6135999540023506
1761432059298718000,3.217718017578125,-3.3851977338433263,-0.6676026162162423,-0.5968591740164906
1761432059318659800,3.237659912109375,-3.9985131718158717,0.33409283840060233,-0.11414981853216886
1761432059338601700,3.257601806640625,-2.8323505008369683,0.6885010273382067,0.9542110882557928
1761432059358545000,3.277544921875,-0.6870511207908392,0.7953764709532261,-0.03089833854548633
1761432059378486800,3.29748681640625,0.02029460000991821,0.544600505925715,-1.1949529313292353
1761432059398430000,3.317429931640625,-0.6920534591227769,-0.0844374018356204,-0.8788545993026345
1761432059418371800,3.337371826171875,-1.3130039220184087,-0.0987242858633399,0.5022109784856439
1761432059438314000,3.35731396484375,-0.7309259183526039,0.6049506374701857,0.9933982394579798
1761432059458257000,3.3772568359375,0.663697717732191,1.2299345936655997,1.2178279762864113
1761432059478199000,3.397198974609375,1.735656502881646,1.5574343174114822,1.3764083265669642
1761432059498142000,3.417141845703125,2.472056468731165,1.6182482670754192,1.3856789898678659
1761432059518083800,3.437083740234375,2.8690625671625134,1.3102455632209777,1.4978886341176927
1761432059538026000,3.45702587890625,2.763972545659542,0.7499278482034802,1.210885025280714
1761432059557969000,3.476968994140625,2.9267794275939463,0.12758534642755984,0.9212312672611326
1761432059577910800,3.496910888671875,3.01646086756289,-0.4658779746055603,0.8966355359911918
1761432059597854000,3.51685400390625,2.4805033945590256,-0.6391682566314936,0.8504252812191844
1761432059617795800,3.5367958984375,1.7197510777413845,-0.28787995328009125,0.7091807542081922
1761432059637738200,3.55673828125,0.697789956948161,0.42589609282910823,0.9313532136291265
1761432059657681200,3.57668115234375,-0.33978958873748777,0.826783124347031,1.348787913713604
1761432059677623000,3.596623046875,-0.8165759108483791,0.5154886854708195,1.5023391837857663
1761432059697566000,3.61656591796875,-0.25525778661668297,-0.11782967608869076,0.7829208940058946
1761432059717508000,3.636508056640625,0.025852234137058255,-0.6451818178325891,-0.23656821065060793
1761432059737450200,3.6564501953125,-0.4037374525129795,-0.7229664837807417,-0.9547432954363524
1761432059757393200,3.67639306640625,-1.76207630777359,-0.47441842393577094,-0.943959597223997
1761432059777335000,3.6963349609375,-2.6767045965731144,-0.29054917248934503,-0.35688605029322207
1761432059797278200,3.7162783203125,-2.7082822226196526,-0.23042437413334846,0.5757070073291659
1761432059817220000,3.73622021484375,-1.459315011703968,-1.0880223234608768,1.4003515122123062
1761432059837162000,3.756161865234375,-0.6167670397311449,-1.1328189120426773,0.5751861983254551
1761432059857105200,3.776105224609375,-0.6148422091484069,-0.022900690855085847,-1.4052774243071675
1761432059877047000,3.796047119140625,-2.0255898815602063,1.1824965506643057,-1.5093154525391757
1761432059896989200,3.8159892578125,-3.456870638912916,1.759308596625924,-1.0491468685563654
1761432059916932000,3.83593212890625,-3.687538758674264,1.4740791578546166,-0.4426187526363879
1761432059936874200,3.855874267578125,-1.5467080484747886,1.0141092382490635,-0.8417139323014765
1761432059956817200,3.875817138671875,0.6220668997049331,0.42764995075911283,-1.3306499072156845
1761432059976759300,3.89575927734375,1.9070149400621652,0.06575403641462325,-1.3105112284198404
1761432059996701200,3.915701171875,2.2466069604009387,-0.02767418886721134,-0.9666492756769061
1761432060016644400,3.935644287109375,1.8277070100694894,0.17869564820080994,-0.6038374155312776
1761432060036586000,3.9555859375,1.3786708646714687,0.56714814555943,-0.28775844579227267
1761432060056529200,3.975529052734375,1.4813526559889316,0.7625336472764611,-0.17100889309048653
1761432060076470000,3.995469970703125,1.5878618966400622,0.8604939630299806,-0.0491633324239403
1761432060096412200,4.015412109375,1.6806079848766327,0.7970049489378929,0.04869461893364787
1761432060116355000,4.03535498046875,1.5217618232667445,0.5765893431216478,-0.017414587594196198
1761432060136297200,4.055297119140625,1.4922820462822912,0.38371348613798617,-0.14086509923934937
1761432060156239000,4.075239013671875,1.151027645689249,0.22942747205048797,-0.42840982921570536
1761432060176182000,4.09518212890625,0.18968319842219353,-0.001952303111553192,-0.5892490643389523
1761432060196124200,4.115124267578125,-0.596843026599288,0.0004386836782097816,-0.4407217599086463
1761432060216067000,4.135067138671875,-0.45617081958353517,0.39963410884737965,0.03117803226970136
1761432060236009200,4.15500927734375,-0.10126023408174514,0.5923588669225573,0.29001638078689573
1761432060255951000,4.174951171875,-0.2788292163401842,0.24597704031318424,0.010436419144645333
1761432060275894300,4.194894287109375,-0.6911345907121896,-0.12889789033085108,-0.6766485308505594
1761432060295836200,4.214836181640625,-1.1217834310263395,-0.38205724336355923,-0.6971704368103295
1761432060315779300,4.234779296875,-1.3061615087777376,-0.6818021142214536,-0.48806861749514935
1761432060335721200,4.25472119140625,-1.8116846805512905,-1.312291097573936,0.01586027082428336
1761432060355663000,4.2746630859375,-1.3945850576400756,-1.8042568686380982,0.43141558690294624
1761432060375606000,4.29460595703125,-0.5372983662188053,-1.6582582059025763,-0.11506576433330773
1761432060395548200,4.314548095703125,-0.44456396842002865,-1.9943433871641754,-0.06988835974037647
1761432060415490000,4.334489990234375,-0.8228297105461359,-1.2642790540769695,-0.24300606167837976
1761432060435433200,4.35443310546875,-1.2471756513237953,-0.43971126769185065,-0.23926344108395278
1761432060455376100,4.374376220703125,-1.6487147170096634,0.44459436355829235,-0.4037984619852155
1761432060475318300,4.394318359375,-0.8925859683394431,0.554762711238861,0.3037064314326271
1761432060495260200,4.41426025390625,0.09251812469959259,0.702225016786158,0.26454185738842934
1761432060515203300,4.434203369140625,0.7247709028542041,0.7171592588067054,0.16235183164328335
1761432060535145000,4.45414501953125,0.7749825022220611,0.696081691725552,0.381908847868815
1761432060555088100,4.474088134765625,0.37145723115503787,0.8527320968568325,0.9064651483491063
1761432060575030000,4.494030029296875,0.15320844798386096,1.017161319296062,1.473213919327408
1761432060594972200,4.51397216796875,0.5642173528045415,1.394848969273269,1.4041064808316528
1761432060614915000,4.5339150390625,1.4709960971474647,1.3272192021146416,0.9563636631797998
1761432060634856400,4.5538564453125,1.834635932549834,0.8517132752031087,0.43806094320155675
1761432060654799400,4.57379931640625,1.8621534695506095,0.39766076294779773,0.4613096437767148
1761432060674741200,4.5937412109375,2.0850264053910967,0.1479106338366866,0.9115539959207176
1761432060694683400,4.613683349609375,2.346746081498265,0.08970628214925527,0.9752834677051753
1761432060714626300,4.633626220703125,2.273373386773467,-0.06871200943738222,0.4969780097356066
1761432060734568400,4.653568359375,1.2874141382098196,-0.24682722740173338,0.24607951430696992
1761432060754510300,4.67351025390625,0.3651765434503555,-0.24737287858575582,0.4641418715279549
1761432060774453500,4.69345361328125,0.22472996188402175,0.11135551163852214,0.5708679698001593
1761432060794395400,4.7133955078125,0.4790402385175228,0.3687544019371271,0.5470214129297063
1761432060814338600,4.733338623046875,0.6416635805785655,0.10733487782031297,0.17349497428517788
1761432060834280400,4.753280517578125,0.652917965042591,-0.5754480641320348,-0.011446546035259962
1761432060854222300,4.773222412109375,0.6327858621180057,-0.9053598174557089,-0.17696608446184545
1761432060874165200,4.793165283203125,0.7469692906588316,-1.0118605825394391,-0.286918816630356
1761432060894107400,4.813107421875,0.610461217585206,-0.7014946566849947,-0.3098286041073501
1761432060914050300,4.83305029296875,-0.04905307698249817,-0.2830506334275007,-0.41532450299747287
1761432060933992400,4.852992431640625,-0.5702022724330424,-1.1309127861604094,0.47474414875879883
1761432060953934300,4.872934326171875,-0.6753039843738079,-1.9673826072633265,0.8454737962916493
1761432060973877500,4.89287744140625,-0.911266118890047,-1.373319566771388,-0.6137210961639881
1761432060993819400,4.9128193359375,-1.478871360567212,-0.4855398296698928,-0.3545699553705752
1761432061013762600,4.932762451171875,-1.981514592990279,0.8447443129733204,0.530748396586068
1761432061033704200,4.9527041015625,-1.7613298733204603,1.213557167099416,0.45364710979219525
1761432061053646300,4.972646240234375,-0.5173071330696344,1.5498562833726406,-0.8745189812511205
1761432061073589200,4.99258935546875,0.3406938441008329,1.5542197392791508,-1.4377661738492549
1761432061093531400,5.012531494140625,-0.8204974682062863,1.1633224791169166,-0.6590586597546935
1761432061113473500,5.0324736328125,-2.0361013387024403,0.7116138996392488,0.10310586194843054
1761432061133416400,5.05241650390625,-2.4956997946470976,0.15299305166751145,-0.01877679759180173
1761432061153358300,5.0723583984375,-1.3811293637394904,0.3112716425225138,-0.7692738422516733
1761432061173301500,5.092301513671875,-0.25373861422538757,0.4952496150404215,-0.8886400071926415
1761432061193243400,5.112243408203125,0.4025561337739229,0.579216769015789,-0.6385319314893335
1761432061213185300,5.132185302734375,0.8485948509216308,0.4740656649753451,-0.4855164122616872
1761432061233128200,5.152128173828125,1.2729197489112616,-0.002641454419493675,-0.481909218082577
1761432061253070300,5.1720703125,1.7202151881217955,-0.5198991953894496,-0.5203431762972847
1761432061273013200,5.19201318359375,2.03248373272717,-0.6889493556275963,-0.6540607784021646
1761432061292955400,5.211955322265625,1.667362134334445,-0.7473045139625668,-0.7230290276229381
1761432061312897500,5.2318974609375,0.5125163916617632,-0.6869844852954149,-0.5602498008804395
1761432061332840400,5.25184033203125,-0.41369478290379047,-0.2869496866926551,-0.21335790585707873
1761432061352782600,5.271782470703125,-0.49136838969290253,0.03532236553281545,0.24961128689600154
1761432061372724200,5.29172412109375,0.03170212920904159,0.11321195316016673,0.37041743977852165
1761432061392667400,5.31166748046875,0.3954144453257322,-0.4266743837252259,0.3043421355202794
1761432061412609300,5.331609375,0.2691857742041349,-0.432424033293128,-0.4959407391097396
1761432061432552400,5.351552490234375,-0.4258662822127342,-0.3608548808589577,-0.9144161804188042
1761432061452494300,5.371494384765625,-1.2376350850403308,-0.3680316406205296,-0.8866895307119935
1761432061472436500,5.3914365234375,-1.2299462841033935,-0.37533699519783253,-0.4546431716248393
1761432061492379400,5.41137939453125,-1.0114210220783948,-1.1699880744859577,0.665468307601288
1761432061512321500,5.431321533203125,-0.3563713057041168,-1.0848241119414568,0.5797318423984572
1761432061532264400,5.451264404296875,-0.4362625885426998,-1.496790171356499,1.168596766258031
1761432061552206300,5.471206298828125,-0.6035837330311536,-0.928728125822544,0.4019918874872848
1761432061572148200,5.491148193359375,-0.7147060204356909,-0.411435313539207,-0.6248959856510162
1761432061592091400,5.51109130859375,-0.8358516892045735,0.279450563108921,-1.0101493947073816
1761432061612033300,5.531033203125,-0.5993985563009977,0.5038809575244784,0.6211139098290354
1761432061631976200,5.55097607421875,-0.019677344894409178,0.7809931408137083,1.288124332305789
1761432061651919000,5.570919189453125,0.09864449862539768,0.6500730970054864,1.3180197043538093
1761432061671861000,5.590861083984375,0.18628303458988665,0.3801046479910612,1.2295439869128166
1761432061691804000,5.610803955078125,0.0489554618269205,0.14104337841570377,1.2929008990578352
1761432061711746000,5.63074609375,-0.027559622576832768,0.3280903831154108,1.3187293139278888
1761432061731688000,5.65068798828125,0.3768798407256603,0.6058750588387251,1.2604276393458247
1761432061751631000,5.670631103515625,0.9395371046066283,0.9043585314586758,1.0769610504161566
1761432061771573000,5.690572998046875,1.1871949376136064,1.047978482364118,0.8926146099120378
1761432061791515100,5.71051513671875,1.0836942311286926,0.7581666842386126,0.8093377032231539
1761432061811458000,5.7304580078125,1.2868939137279987,0.2810617976978421,0.803854303376004
1761432061831400000,5.75039990234375,1.6332821700781583,-0.17647680310755967,0.8582691265873611
1761432061851342800,5.7703427734375,1.586515742728114,-0.37203678460866213,0.5839208185208961
1761432061871285000,5.790284912109375,0.9922042804330586,-0.3077554510951042,0.2797269688975066
1761432061891227000,5.810226806640625,0.6027987201333046,-0.14611410580873488,0.5621066442608833
1761432061911170000,5.830170166015625,0.46686464755535123,-0.09325345323681831,0.8850769078835844
1761432061931112000,5.85011181640625,0.619961451858282,-0.28226328244209287,0.9498488013930618
1761432061951054000,5.87005419921875,0.7663572972178458,-0.6438055610433221,0.7380857269793748
1761432061970997000,5.8899970703125,0.8282318618506193,-0.8465925711885094,0.6077807463295758
1761432061990939000,5.90993896484375,0.8624947814583778,-0.8342576980113983,0.433273124403134
1761432062010881800,5.9298818359375,0.12872282602488994,-0.6034668286532163,0.22485335080167276
1761432062030824000,5.949823974609375,-0.7593769368112087,-0.07843260846287012,0.38457127201110125
1761432062050766000,5.96976611328125,-1.3895049778968096,-0.4487424231484532,1.5930794851578771
1761432062070709000,5.989708984375,-1.0014981784790753,-0.363758201085031,1.2784405581593512
1761432062090651100,6.009651123046875,-0.6645417673408984,-0.23595599703639744,-0.12879855814222246
1761432062110594000,6.029593994140625,-1.7523942871928213,-0.007256839260458945,-1.3864084731861948
1761432062130536200,6.0495361328125,-2.3573837953686714,0.6448547778353094,-1.827709348157048
1761432062150478000,6.06947802734375,-2.972058246734738,1.428055950087309,-1.9310956344820558
1761432062170421200,6.089421142578125,-2.476437460294366,1.4376406477734445,-1.7633271846175194
1761432062190363000,6.10936279296875,-1.1576076086014508,1.1716028162062166,-2.096862096874416
1761432062210305000,6.129304931640625,-0.42572365887165065,0.6964554934740066,-1.4095929494187236
1761432062230248000,6.149248046875,0.3404600353449583,0.4277800068795681,-0.5117301366548985
1761432062250190000,6.169190185546875,1.0518512321442366,0.21740210321396589,-0.3237632040986791
1761432062270133000,6.189133056640625,1.0007494059383868,0.05379471855163574,-0.45773708251956846
1761432062290075100,6.2090751953125,0.390263638433814,0.28806436993628737,-0.6585086977217346
1761432062310017000,6.22901708984375,0.15708090550303458,0.8058984494894742,-0.619623525140807
1761432062329960200,6.248960205078125,0.49512043570280073,0.9990960857734084,-0.43291378957144916
1761432062349901800,6.26890185546875,1.147784133723378,0.8660290930643677,-0.3540855693871155
1761432062369844000,6.288843994140625,1.8077526017993688,0.0635731852442026,-0.2239222987629473
1761432062389787000,6.308786865234375,1.9198031099647281,-0.19153993220478296,-0.9323131447024643
1761432062409729000,6.32872900390625,1.4328408462762832,-0.3696677173897624,-1.2291533801600336
1761432062429672000,6.348671875,0.5953916587471961,-0.535986114576459,-0.819369925481081
1761432062449614000,6.368614013671875,0.4705944817334413,-0.38858138443529605,-0.0032041115372441705
1761432062469556000,6.388555908203125,1.150005316904187,-0.14929624297618865,0.6415539096590132
1761432062489499100,6.4084990234375,1.1060188756614924,-0.06704553752988576,0.29021714578969404
1761432062509441000,6.42844091796875,0.29338498043715955,-0.34952363176643847,-0.19856004009991884
1761432062529383000,6.4483828125,-0.08886837002038955,-0.7525456294864415,-0.2686862637167796
1761432062549325800,6.468325927734375,0.3412748588591814,-0.6973004198655486,0.004382927791960537
1761432062569268000,6.48826806640625,-0.013434651112556456,-0.3609136253088712,-0.0363434156762436
1761432062589211000,6.5082109375,-1.1817512852549552,-0.9827931857481599,0.42665794404707846
1761432062609153000,6.528153076171875,-1.9391402631193397,-2.0115292075037954,1.3663473896712064
1761432062629094400,6.548094482421875,-1.9614111316382883,-2.303131396177411,1.4518487674765288
1761432062649037300,6.568037353515625,-0.8337754674524068,-1.6520666577860712,-0.09367865637894719
1761432062668979500,6.5879794921875,-0.2928285155981779,-0.6396396735355258,-0.6040082420535385
1761432062688921000,6.607921142578125,-1.441065653786063,0.6490346938684582,-0.42468766688741744
1761432062708864300,6.6278642578125,-2.480090137583017,1.261618602696061,0.7240190615735947
1761432062728806100,6.64780615234375,-2.4204542917877436,1.2283373876020311,1.8114527714915571
1761432062748749300,6.667749267578125,-0.8848246866881847,1.2243845583230257,1.8295937005989253
1761432062768691200,6.687691162109375,0.5006359842538833,0.9426572824537753,1.298514208894968
1761432062788633300,6.70763330078125,0.8338087852001189,0.4230845425397157,0.9870555193677544
1761432062808576300,6.727576171875,0.3900982187390327,0.3920283100187778,0.9701946201335638
1761432062828518400,6.747518310546875,0.03980009546875953,0.7508578225299716,1.2251663563504815
1761432062848460300,6.767460205078125,0.3402338253736496,1.1830828261196613,1.300867786283791
1761432062868403200,6.7874033203125,1.007809845843911,1.2019479778483508,1.1444565236706286
1761432062888345300,6.807345458984375,1.6201760202676057,0.8916384583562612,0.7774958732824773
1761432062908287200,6.827287353515625,1.9099317042917012,0.5185325832113623,0.4399803669568151
1761432062928230400,6.84723046875,1.9829612846672533,0.006153261932730674,0.44894583676606414
1761432062948172300,6.86717236328125,1.472433436474204,-0.2652767840668559,0.5664045606505126
1761432062968115500,6.887115478515625,1.0595236664682626,-0.2716509952738881,0.8129610082868486
1761432062988057300,6.907057373046875,0.8123246831446885,-0.09444646241366862,0.9549402793131768
1761432063007999500,6.92699951171875,0.7070937918663025,0.07876520141810178,0.8562634127881378
1761432063027942400,6.9469423828125,0.7044733802348375,0.2544078917890787,0.8413426878362894
1761432063047884300,6.96688427734375,0.8509633336186408,-0.038759938766062256,0.8221084105342626
1761432063067826200,6.986826171875,1.1047276668071746,-0.2255140979990363,0.5938574714498595
1761432063087769300,7.006769287109375,0.9003174393743276,-0.43057460603415965,0.19868556617572902
1761432063107711200,7.026711181640625,0.4227952042043209,-0.22527678211182356,-0.35891401245687155
1761432063127654400,7.046654296875,-0.15504384671747684,0.21360738710612057,-0.6703975076317786
1761432063147596300,7.06659619140625,-0.8205103276878595,0.5105705182909965,-0.33797355229146775
1761432063167538400,7.086538330078125,-1.1447861209511756,0.5962821778461337,0.35864078500606117
1761432063187481300,7.1064814453125,-1.1310258911460638,0.06300882935971021,0.6853562995716929
1761432063207423200,7.12642333984375,-0.8531552907049655,-0.5176718747287988,0.433763538268581
1761432063227365400,7.146365478515625,-0.4067179296284914,-1.0313599405184388,0.19433138955421744
1761432063247308300,7.166308349609375,-0.26178572708070275,-0.8558724407091737,-0.6621908203005791
1761432063267250200,7.186250244140625,-0.5875438678562641,-0.2400993804514408,-1.1658389919824899
1761432063287192300,7.2061923828125,-1.7645505889326334,0.799722098942101,-0.8596459678985178
1761432063307135200,7.22613525390625,-2.045335030993819,1.0498869463339446,-0.11831935930177569
1761432063327077400,7.246077392578125,-0.8509744395345449,0.7787775105908512,-0.13218107671998441
1761432063347020300,7.266020263671875,0.26155133380293843,0.0671679948657751,-0.3156317374281585
1761432063366962200,7.285962158203125,0.920882088497281,-0.14344313303381204,-0.5779603392139077
1761432063386904300,7.305904296875,0.8367448386520147,-0.08334083877056836,-0.3263810949794948
1761432063406847200,7.32584716796875,-0.08870704197883605,0.2997477934673428,0.034356260447017846
1761432063426789400,7.345789306640625,-0.43530864881873127,0.5530325264453888,0.20271021858192978
1761432063446731300,7.365731201171875,0.01816986294090748,0.7251604866936803,0.12499869093522428
1761432063466674400,7.38567431640625,0.6594125877588987,0.5570321174755692,-0.21765929284542798
1761432063486616300,7.4056162109375,0.8134440425634384,0.1432856043845415,-0.5446780646739527
1761432063506558500,7.425558349609375,0.9729249949455261,-0.19835253482908008,-0.6870693870998918
1761432063526501400,7.44550146484375,1.06495562838912,-0.47881928924322126,-0.7983101132523268
1761432063546443300,7.465443359375,0.8477560620099306,-0.6729217654123902,-1.0253379037499428
1761432063566386200,7.48538623046875,0.7522960386395454,-0.7744020719856023,-1.117161031922698
1761432063586328300,7.505328369140625,0.7152858661502599,-0.688817545941472,-0.7867559421241282
1761432063606270200,7.525270263671875,0.9748872349292039,-0.4449415695607662,-0.27671047062054277
1761432063626213400,7.54521337890625,1.202710486653447,-0.4334469466000795,0.2714600758116692
1761432063646155800,7.56515576171875,1.2784779675602913,-0.5815209543049336,0.5247365158854053
1761432063666098000,7.585097900390625,0.6784469585746526,-0.5200508788198233,0.34250030900090933
1761432063686040800,7.605040771484375,-0.47509471576213835,-0.4703688562840223,0.35763770891074087
1761432063705983000,7.62498291015625,-1.4998656332790852,-0.4687850942239165,0.573431792406179
1761432063725924900,7.6449248046875,-2.0804075134187934,-1.3926377229645848,1.9972762257456778
1761432063745868000,7.664867919921875,-1.7507535342484712,-1.0609896473675966,1.2548651829130948
1761432063765809700,7.6848095703125,-0.9314140039056539,-1.117565521070361,0.9121674516439437
1761432063785751800,7.704751708984375,-0.8072294058322906,-0.5298080104634165,-0.23097261913325637
1761432063805694700,7.72469482421875,-1.5584949323803186,0.17521482034772634,-0.20737123266290872
1761432063825636900,7.744636962890625,-2.5832524058938025,0.474688765309751,0.7571773809403181
1761432063845579000,7.7645791015625,-1.7248650597542523,0.8198144543781876,1.243354631730914
1761432063865522000,7.78452197265625,-0.48130233823060986,0.8865963725358247,1.0485784940838814
1761432063885464000,7.804464111328125,-0.18925591292083263,0.5053574598178268,0.9483868390817195
1761432063905407000,7.824406982421875,-0.40012276914715766,0.37394437179565426,1.2645973262459038
1761432063925349000,7.84434912109375,-0.4636006773233413,0.4594917806997895,1.8158738028042016
1761432063945290800,7.864290771484375,-0.313755568292737,0.7846464026242495,1.7616183348730206
1761432063965234000,7.88423388671875,0.0020125088661909103,1.2073308399304747,1.146583964153379
1761432063985175800,7.90417578125,0.2942301990896463,1.4454124508187174,0.8904691223159432
1761432064005118000,7.924117919921875,0.554760957673192,1.2974953872412442,0.7413893716346472
1761432064025060900,7.944060791015625,1.0600064815491437,0.8628831962540745,0.5243875197846443
1761432064045003000,7.9640029296875,1.8735989926725625,0.5669266117632389,0.004941438457556069
1761432064064945000,7.98394482421875,2.454170098906755,0.2923848634839058,-0.36195129779353735
1761432064084886800,8.00388671875,1.942594202965498,0.050471711608767504,-0.1714644913708791
1761432064104829700,8.02382958984375,1.422350431922078,-0.03844283564090729,0.13559994525276123
1761432064124771800,8.043771728515624,1.2401269018560648,0.1856055737197399,0.15059121469017117
1761432064144714000,8.0637138671875,1.2033066989809273,0.455701156245172,0.22024806722961365
1761432064164657000,8.083656982421875,0.794425453838706,0.5140428705766796,0.5834853131804615
1761432064184599000,8.10359912109375,0.7320102064579724,0.2409033903107047,0.7595259168278425
1761432064204541000,8.123541015625,0.7906330758184195,-0.10646803185790776,0.3771735629752278
1761432064224483800,8.14348388671875,0.7355588388502597,-0.27044366531074043,-0.14458813835047185
1761432064244425700,8.16342578125,-0.02315641918182373,-0.32110417748987674,-0.24365334660597143
1761432064264369000,8.183368896484374,-1.2408663220465181,-0.8436816521778703,0.5114722894363105
1761432064284310800,8.203310791015625,-1.8631430651098488,-1.923192167881131,1.8918086031019687
1761432064304253000,8.2232529296875,-0.8054249867588281,-0.5106976518020033,-0.19344437758661806
1761432064324195800,8.24319580078125,-0.33144086258709426,-0.24744857417047023,-0.893009746709466
1761432064344138000,8.263137939453125,-1.7888561781495809,0.5635603502005339,-1.2221009774304925
1761432064364079900,8.283079833984376,-4.00812095811665,1.1043722774982452,-1.8012379592083394
1761432064384023000,8.30302294921875,-4.9727562636226414,0.9473030624330043,-1.7265699639759957
1761432064403965000,8.32296484375,-4.268155457615852,0.055584816838800906,-0.9673221334371715
1761432064423906800,8.34290673828125,-2.2780571606755253,-0.5234770538762211,-1.6376234141528605
1761432064443849700,8.362849609375,-0.9658288992047309,-0.37135873921662566,-1.990369807358086
1761432064463791900,8.3827919921875,-0.06082768592834472,0.14163579135090112,-1.562490724018216
1761432064483734000,8.402734130859375,-0.01255611471235752,1.0633750811994076,-0.9497245904915034
1761432064503677000,8.422677001953126,0.06872983735501766,1.583444372458756,-0.3393889720473438
1761432064523618800,8.442618896484374,0.7177560556560755,1.6911308401957152,0.28514650972820815
1761432064543561000,8.46256103515625,1.6908113989830016,1.5045733725786208,0.6045530164547265
1761432064563503900,8.48250390625,2.4800223330438134,1.246834582801163,0.012356500487029552
1761432064583445800,8.50244580078125,2.4920927100658417,0.9024754941910504,-0.5638394594028592
1761432064603388700,8.522388671875,1.9797364774018524,0.6932265945553779,-0.6894231106191873
1761432064623330800,8.542330810546876,2.0150334162324666,0.4825584757715463,-0.6286958163253963
1761432064643272200,8.562272216796876,2.021319949156046,0.2226975792735815,-0.500145460790582
1761432064663215000,8.582215087890624,1.4982739801734686,0.08392652970403432,-0.554610552884452
1761432064683157200,8.6021572265625,0.805861624610424,0.26245062073022124,-0.6541256603319198
1761432064703099100,8.62209912109375,0.3805950618565082,0.37698885405808685,-0.22047438679877668
1761432064723042300,8.642042236328125,0.39661797589659686,0.06557838758677244,0.23956242403052747
1761432064742984200,8.661984130859375,0.43747137981057166,-0.3931982305809855,0.14965068243704735
1761432064762926300,8.68192626953125,0.12977671899199486,-0.42491964901238677,-0.47105987075548617
1761432064782869200,8.701869140625,-0.9059083912491798,-0.3426327032089233,-0.5228102239979431
1761432064802811100,8.72181103515625,-1.4900509262293575,-0.24746552530527113,-0.07689484096895903
1761432064822753300,8.741753173828124,-1.7818021679848433,-0.6431041347756982,0.7362208098903298
1761432064842696200,8.7616962890625,-1.3995195914328098,-0.5634773480921983,0.947464098213613
1761432064862638300,8.781638427734375,-0.9208212982207536,-0.5441597764208913,0.5227872449811548
1761432064882580200,8.801580322265625,-0.08767652988731861,-1.007990755368769,0.0774877105618827
1761432064902523400,8.8215234375,0.15095628514289855,-1.0076505636289714,-0.7728264932319522
1761432064922465300,8.84146533203125,-0.38573184022307394,-0.09800006324201822,-1.4719779477916657
1761432064942407400,8.861407470703124,-1.3853390903890133,0.7617480498567223,-0.8889240117657929
1761432064962350300,8.881350341796875,-1.8886568610727785,0.9224941998690366,-0.03716518038790673
1761432064982292200,8.901292236328125,-1.2579822920203207,0.8894315959617495,0.11929613191206008
1761432065002235100,8.921235107421875,-0.13549509663879872,0.8724822147265077,0.1559159533768892
1761432065022177300,8.94117724609375,0.3079243779212236,0.8107520270004868,0.628128391700983
1761432065042119200,8.961119140625,0.10301146166324615,1.0439087487071752,1.0121833116877823
1761432065062062300,8.981062255859374,-0.42253158483207226,1.3839026278451085,1.3044435989439487
1761432065082004200,9.001004150390624,-0.5028057295084,1.5816887609630823,1.3204812721617518
1761432065101946400,9.0209462890625,0.7755173397511244,1.5419690372541546,0.4973967831369489
1761432065121889300,9.04088916015625,1.938919898366928,0.9491869764834642,0.21947050698585807
1761432065141831200,9.0608310546875,1.8846078779429196,0.5841539331570267,-0.00877696149982512
1761432065161773300,9.080773193359375,0.951404652532935,0.5890390748500823,-0.012478592496737837
1761432065181716200,9.10071630859375,0.3607850304931402,0.7652700865030289,0.41347127634622155
1761432065201658400,9.120658447265624,0.501253823891282,0.2522267483577132,0.8463926647022366
1761432065221600300,9.140600341796874,0.687234076142311,0.051204994319379325,0.43445181279368694
1761432065241543200,9.160543212890625,0.5582330176979303,0.2348176406562328,-0.21410262327715754
1761432065261485300,9.1804853515625,0.41191666731536386,0.2366591768696904,-0.3703139794040471
1761432065281427200,9.20042724609375,0.3478092290639877,0.10639818149209022,-0.37436219534892584
1761432065301370000,9.2203701171875,0.43405952554047106,-0.21585779638141392,-0.35175599392838774
1761432065321312300,9.240312255859376,0.34224399615228174,-0.4427560422152281,-0.3351459276501089
1761432065341254100,9.260254150390624,-0.08737725467979908,-0.5870680670380592,-0.47427243959382176
1761432065361197300,9.280197265625,0.014360533785820006,-0.5544499920278787,-0.7764527209050953
1761432065381139200,9.30013916015625,0.19223580551445482,-0.2315904953032732,-0.45511473465934393
1761432065401081300,9.320081298828125,-0.02720715587735176,0.3050301177844405,-0.1437657160516828
1761432065421024300,9.340024169921875,-0.500340216177702,0.5267851555109023,0.20510763511247931
1761432065440966400,9.35996630859375,-1.1802508175641298,-0.295713423384726,0.9989568234331905
1761432065460908300,9.379908203125,-1.115855210021138,-1.3274144324257968,1.3358207339823245
1761432065480851200,9.399851318359374,0.10264087478518485,-1.0669599539488552,0.11942439793422817
1761432065500793300,9.41979345703125,0.4577221406787634,-0.26003976019620895,-0.4015482353730127
1761432065520735200,9.4397353515625,-0.6909715091049671,0.5356704727560282,-0.06411708286255598
1761432065540678100,9.45967822265625,-1.4953753361225128,1.5907652168661355,-0.9501660506486892
1761432065560620300,9.479620361328125,-1.3470897314935921,2.0083076151087877,-0.9156102855741978
1761432065580562400,9.4995625,-0.8153244494825601,1.5003665685385466,0.12237225142177194
1761432065600505300,9.51950537109375,-0.02320434997677803,0.7709484244003891,0.15911679524481295
1761432065620447200,9.539447265625,0.2766600556075573,0.25866262662410733,0.13899382547475397
1761432065640389600,9.5593896484375,0.5531202047288417,-0.012666589349508284,-0.05357449992969632
1761432065660332800,9.579332763671875,0.5441916328638792,0.11523352211564779,-0.21620704821050166
1761432065680274700,9.599274658203125,0.07171089899241924,0.27820640826672316,-0.35503888805657624
1761432065700216800,9.619216796875,-0.10836217504143714,0.39841479618549347,-0.2813694388749078
1761432065720159700,9.63915966796875,0.07253799746632575,0.5061372120186686,-0.28904760881997643
1761432065740102000,9.659101806640624,0.9501941076993942,0.3561369124263525,-0.6848753841869533
