time,seconds_elapsed,z,y,x
1761430061573599000,0.069598876953125,0.518145337459445,0.6163599933002144,0.09145020320713519
1761430061593543200,0.089543212890625,0.5286491958171129,0.5110781755521894,0.28808957744278013
1761430061613487900,0.10948779296875,0.3176812173038721,0.0010894026719033716,0.664144803912565
1761430061633433000,0.12943310546875,0.25081249764561653,-0.24314956180229783,0.867527076537162
1761430061653377000,0.149376953125,0.4186766629695892,-0.7033642499491572,0.3921261809026822
1761430061673322000,0.169322021484375,0.47711190080344673,-0.8046502029940485,0.6315584392149001
1761430061693267200,0.18926708984375,0.09982640188634395,-0.02479790277853608,0.6942636825181543
1761430061713211100,0.209211181640625,-0.08651274680495262,-0.05533858699277043,0.3801398289022967
1761430061733155800,0.22915576171875,0.36910979124605653,-0.48021498138532037,0.2022546568341553
1761430061753101000,0.24910107421875,0.5292547604948282,-0.9281289178203791,0.09812065741438418
1761430061773045000,0.269044921875,0.12056406948864459,-1.0205599487584083,0.07863711805902421
1761430061792990000,0.288989990234375,-0.4460749575048685,-0.8403050153516233,-0.12584003713019193
1761430061812935200,0.30893505859375,-0.4972194538086652,-1.272534256725013,0.11839585860408842
1761430061832879000,0.328879150390625,0.4625742568850517,-1.3119612810976802,-0.08853490028232336
1761430061852824000,0.348823974609375,0.7544085007488727,-1.28929746773839,-0.16760544132255017
1761430061872769000,0.36876904296875,0.22166998979151248,-0.9354149101100862,-0.03439326798915863
1761430061892713000,0.388712890625,-0.4409796801924705,-0.34920141407474875,0.017137085827067494
1761430061912658000,0.408657958984375,-0.7502198168873786,-0.18697905403003096,0.19704349805712698
1761430061932603100,0.42860302734375,-0.9332184229791164,-0.08507979139238596,0.156312697609514
1761430061952547000,0.448547119140625,-1.0901198802620171,0.10453976720906794,-0.01273095982261002
1761430061972492000,0.468491943359375,-0.7008464219093322,0.1864677435070276,0.05117649887725711
1761430061992437200,0.488437255859375,-0.04738602055311203,0.14926058714091778,0.06320946649834513
1761430062012381200,0.508381103515625,0.37794074795544147,0.13979557031169532,-0.010545724738016723
1761430062032326000,0.528325927734375,0.2813917603045702,0.2247275507312268,-0.27967129318751394
1761430062052271000,0.54827099609375,-0.06297346578538418,0.18661935387216508,-0.5382220569349825
1761430062072215300,0.56821533203125,-0.24764848065674303,0.1276985244784504,-0.7127792901568114
1761430062092160300,0.58816015625,-0.20003917274177074,0.22476985550299286,-0.6307407661564648
1761430062112105200,0.608105224609375,0.14161620986759663,0.30547318537682294,-0.4494036635361612
1761430062132049400,0.62804931640625,0.22633622803688047,0.3264236189469695,-0.4208146248463541
1761430062151994000,0.647994140625,-0.12758593094944953,0.4257096303462982,-0.2906266947049647
1761430062171939000,0.66793896484375,0.05389174918532371,0.5364334199525416,-0.08192052364386618
1761430062191883300,0.68788330078125,0.6742740568041801,0.3697096568353474,0.05739003962986171
1761430062211828200,0.707828125,0.9406985496014356,0.16822108900286256,-0.014043211464956401
1761430062231773200,0.727773193359375,0.24424890134632585,0.11894428626708686,-0.11440759268552064
1761430062251717400,0.74771728515625,-0.2502168698400259,0.17113237333968281,-0.2781296167034656
1761430062271662300,0.767662353515625,-0.32718671227395535,0.16965353295877575,0.11138795260339975
1761430062291607000,0.78760693359375,0.08894143525660038,-0.027530834873765706,0.3279879456542432
1761430062311551200,0.80755126953125,0.3563853342294693,-0.07984927032776176,-0.012680398679152131
1761430062331496200,0.82749609375,0.12109656893014907,-0.3328054289385676,0.1079311632130295
1761430062351441200,0.847441162109375,0.19389117150604723,-0.42138270705789327,0.2042575941544026
1761430062371385300,0.86738525390625,0.2154869172424078,-0.5180517408918589,0.2971976705931127
1761430062391330300,0.887330322265625,0.032903321692347526,-0.3467505868565291,0.23209705658592283
1761430062411275300,0.907275146484375,-0.16276830348968505,-0.1980367468781769,0.2833164447568357
1761430062431220200,0.92722021484375,-0.29401158790290355,-0.08778948874250053,0.21796419407613574
1761430062451164200,0.9471640625,-0.20363748949468136,0.01675955775156617,0.22824155020155013
1761430062471109000,0.967109130859375,0.2824742948442697,0.01875526161342859,0.3312373759042471
1761430062491054300,0.987054443359375,0.7231979544490575,-0.009695902975648641,0.39731026900969446
1761430062510998300,1.006998291015625,0.6078764617890119,0.027543109833449125,0.3285859846126288
1761430062530943200,1.026943115234375,0.31513387090861794,0.15729790925458073,0.26600897079892455
1761430062550888200,1.04688818359375,0.20790449928939342,0.20639263342171907,0.23451054746843872
1761430062570832100,1.06683203125,0.24293898779153822,0.35903818682581184,0.23930238485485314
1761430062590777000,1.086777099609375,0.34736733051538465,0.3089792207363993,0.316065817996487
1761430062610722300,1.106722412109375,0.1182026010543108,0.17821590185984967,0.40386940832957624
1761430062630666200,1.126666259765625,-0.14616788182258605,0.06757613727524876,0.34926410404741765
1761430062650611200,1.146611083984375,-0.05643851105868816,-0.0902593859873712,0.24107881994284688
1761430062670556400,1.166556396484375,0.14451543844044207,-0.2704993410207331,0.2392339957937598
1761430062690500400,1.186500244140625,0.07395721661448479,-0.32454043554887174,0.3478455424863845
1761430062710445000,1.206445068359375,0.06344400590658188,-0.4015718719769269,0.4265598905000835
1761430062730390300,1.226390380859375,0.26327391981184484,-0.5416316461827606,0.4693778724852949
1761430062750335200,1.246335205078125,0.43379882877767084,-0.5672239142093807,0.3883895881902426
1761430062770279200,1.266279052734375,0.430585127428174,-0.3664846303742379,0.26968678252883255
1761430062790224400,1.286224365234375,0.041944706282019614,-0.03666859250999987,0.15209391087070107
1761430062810169300,1.30616943359375,-0.4262748630136251,0.14391644963398575,-0.009361337259039282
1761430062830113300,1.32611328125,-0.4691185639619827,0.05795344566628337,-0.34264125184155997
1761430062850058200,1.346058349609375,-0.18227905964553356,0.05801774307414889,-0.5262962760154157
1761430062870003200,1.366003173828125,-0.2937251721769571,0.10230981619991361,-0.5663389480683952
1761430062889947100,1.385947021484375,-0.41887656945586205,-0.021692995565757153,-0.7120214575268328
1761430062909892400,1.405892333984375,-0.28594986200034617,-0.15704210786260664,-0.8052184313360601
1761430062929837300,1.42583740234375,-0.05972586216628551,-0.3165584238190204,-0.8305836856737733
1761430062949781200,1.44578125,0.010249591335654258,-0.38600495807602997,-0.7405382346980274
1761430062969726200,1.465726318359375,-0.1020201125383377,-0.348143064128235,-0.5646986335154622
1761430062989671200,1.485671142578125,0.07995441120266913,-0.15899908714927732,-0.34042869035862383
1761430063009616100,1.5056162109375,0.11016425602734088,-0.036714477478340266,-0.16788820378668606
1761430063029560300,1.525560302734375,-0.17097440629899502,0.016368512607365847,-0.11702004020623862
1761430063049505800,1.545505859375,-0.2784182974517345,0.04296813104562461,-0.08508928987309336
1761430063069450800,1.56545068359375,0.021938275563716886,0.02330481467656791,0.07402721311077474
1761430063089394700,1.585394775390625,0.338093890735507,0.009004559710621833,0.13250417119450866
1761430063109339600,1.605339599609375,0.3601104922324419,-0.06293934432007373,0.06293561799302697
1761430063129284900,1.625284912109375,0.18803075504004954,-0.07460990836955607,0.05207578580453991
1761430063149228800,1.645228759765625,-0.06093991413116455,-0.043641500262543556,0.033189006765931846
1761430063169173800,1.665173828125,0.22346271842718124,0.013237667235732078,0.00802329358831048
1761430063189119000,1.685118896484375,0.4397083450824022,0.01839220045469701,0.09527268410474062
1761430063209063700,1.705063720703125,0.3422960186004638,0.04753726559206843,0.06177490365058183
1761430063229007600,1.725007568359375,0.2936509378969669,0.05748984674252569,0.1916584440179169
1761430063248952800,1.744952880859375,0.2440115854591131,0.10948124219924212,0.20532792679965495
1761430063268897800,1.764897705078125,-0.0681616820782423,0.13322240246646105,0.09321268283501268
1761430063288841700,1.784841796875,-0.23281097700893877,0.14040624955594538,0.07903992670625448
1761430063308787000,1.804786865234375,0.05807400330603122,0.07143273963816464,0.18650676034316419
1761430063328731600,1.824731689453125,0.4089630782067776,-0.07059964981488884,0.20111454688832162
1761430063348675800,1.84467578125,0.3031365591228008,-0.25959157803729177,0.1830887685932219
1761430063368620800,1.864620849609375,-0.22539105614125726,-0.19186083472222087,0.03018295681774616
1761430063388565800,1.884565673828125,-0.54185880600214,-0.02235745082385838,-0.06410115464106202
1761430063408511000,1.904510986328125,-0.5539332746773958,0.01598901177048683,0.05461787150278687
1761430063428455000,1.924454833984375,-0.2966010198742151,0.012529372835904358,0.17274623827710747
1761430063448400000,1.94439990234375,0.24626316377818583,-0.11089965762980282,0.3160767047166824
1761430063468344800,1.9643447265625,0.5113409181416034,-0.2637109960548579,0.4447327491156757
1761430063488288800,1.984288818359375,0.24328970092535018,-0.21268384252041578,0.41485739694237705
1761430063508233700,2.004233642578125,-0.11398995179533958,-0.12926562766470015,0.47542730871737
1761430063528179000,2.024178955078125,-0.19019699316322802,-0.07648563911356031,0.45111017519310115
1761430063548124000,2.0441240234375,-0.03384147932529449,-0.0012012655485421418,0.39828400941267605
1761430063568067800,2.06406787109375,0.13495616745650768,-0.01484291047528386,0.423928884409368
1761430063588013000,2.084012939453125,0.18549100742936134,-0.0956371335029602,0.43085342297554013
1761430063607957800,2.103957763671875,0.16320727942883967,-0.11303849628940224,0.35032004284113644
1761430063627901700,2.123901611328125,-0.027086744368076322,-0.02950118509866297,0.26366248073801396
1761430063647846700,2.1438466796875,-0.25539924091398714,0.07430537246502936,0.13694558770805595
1761430063667792000,2.1637919921875,-0.22942776431143283,0.0854891759108752,0.025199323186278343
1761430063687735800,2.18373583984375,0.017813889110088348,-0.013361366680637001,-0.031399785261601205
1761430063707680800,2.2036806640625,0.2527566174507141,-0.10309585201106965,-0.10381211052164435
1761430063727625700,2.223625732421875,0.2282704109698534,-0.19076982461512088,-0.16801628714576364
1761430063747570700,2.24357080078125,0.19386369897723196,-0.21670637603476642,-0.29561303175017234
1761430063767514600,2.2635146484375,0.23845921202898024,-0.1753981410253793,-0.32883615998141463
1761430063787459800,2.2834599609375,0.14025836551785467,-0.09849551860876381,-0.1897356592617929
1761430063807404800,2.30340478515625,0.16307751556932926,-0.04668729769922793,-0.14623049873001873
1761430063827348700,2.3233486328125,0.31426234877109527,0.012584171763062476,-0.01963372494839132
1761430063847294000,2.3432939453125,0.22101298718750476,0.15000760611593722,-0.008600508954375983
1761430063867238700,2.36323876953125,-0.19931904177367685,0.3368416987173259,0.013804068946838378
1761430063887184000,2.383183837890625,-0.30754969938993454,0.3849337486479431,-0.0525401153806597
1761430063907127800,2.4031279296875,-0.08533201258778572,0.212819086272642,-0.07425868377909065
1761430063927072800,2.42307275390625,0.14308452885448933,-0.007758139846101403,-0.06432020421922206
1761430063947018000,2.44301806640625,0.2337292608976364,-0.19605499847643076,-0.06012837855257094
1761430063966962700,2.462962646484375,0.2308580893754959,-0.267955136430636,-0.03469268932715058
1761430063986907000,2.482906982421875,0.11087854177653789,-0.2587771198492497,0.02905994413718581
1761430064006851800,2.502851806640625,-0.15758885502517223,-0.25867205203957855,-0.09087992903850972
1761430064026796800,2.522796875,-0.33863281991779803,-0.1525282836999744,-0.16994257903322577
1761430064046739700,2.54273974609375,-0.028043022179603576,-0.12549611906334757,-0.06068528178296983
1761430064066685000,2.562684814453125,0.3018126170426607,-0.13428133693486452,0.082861750016734
1761430064086630000,2.5826298828125,0.19746786094903945,-0.14455533205941318,0.0812179283324629
1761430064106574800,2.602574951171875,-0.0466857633292675,-0.10317052468247712,-0.01280555942878127
1761430064126519000,2.62251904296875,-0.09025017976760864,-0.01769325840510428,0.01334258891493082
1761430064146463700,2.642463623046875,0.08210369819104671,0.017919468376412985,0.07498867855407297
1761430064166408700,2.66240869140625,0.24300445424318312,0.015446648522093891,0.08085033712908625
1761430064186353000,2.682352783203125,0.19469196649491785,0.0216561706867069,0.09503485676087438
1761430064206297900,2.7022978515625,0.0011854103922843931,0.003437573233246803,0.10233239335790276
1761430064226242800,2.722242919921875,-0.017120646148920057,-0.03151544753052294,0.1325281365919858
1761430064246188000,2.74218798828125,0.08595452840030193,-0.0000301028773188591,0.13109094339571892
1761430064266132000,2.762132080078125,0.10378303055763244,-0.023032573606446383,0.05836662957705557
1761430064286076700,2.78207666015625,0.07605857280790805,0.013967223619297146,0.08156769161820411
1761430064306022000,2.80202197265625,0.013253449326753616,0.002650587574020028,0.14508220547772943
1761430064325966800,2.821966796875,0.046454292660951614,0.011303630433231592,0.14957228343859313
1761430064345910800,2.841910888671875,0.1489022752225399,-0.024984803652763364,0.05497669487781822
1761430064365856000,2.86185595703125,0.1791705722361803,-0.042743090118095274,-0.031765257573127745
1761430064385801000,2.881801025390625,0.13639409130513666,-0.035161914274096484,-0.06668138039261103
1761430064405745000,2.901744873046875,-0.01129471647441387,-0.033446780919283624,-0.05206102662682533
1761430064425689900,2.92168994140625,-0.024005729487538336,-0.007819441579282283,-0.028153935208171603
1761430064445634800,2.941634765625,0.10515782604217529,-0.024750702635943887,0.03578771802224218
1761430064465579800,2.961579833984375,0.15207681360542774,-0.051935646681487556,0.02567410109117627
1761430064485524000,2.98152392578125,-0.034330139625072476,-0.14118695160485803,-0.03987221085689962
1761430064505469000,3.001468994140625,-0.26711481314897534,-0.11309110325947404,-0.10625753091238438
1761430064525413600,3.02141357421875,-0.22556699723005294,-0.1336371207471937,-0.1510699015852064
1761430064545358800,3.04135888671875,0.04246609980762005,-0.155772745513916,-0.07723572682850062
1761430064565302800,3.061302734375,0.1677209574609995,-0.20741861546859144,-0.06262224119491874
1761430064585247700,3.081247802734375,0.040158991909027095,-0.2423913638461381,-0.030724954739958045
1761430064605193000,3.10119287109375,-0.1675415092408657,-0.1809082827489823,-0.054187955652922386
1761430064625138000,3.121137939453125,-0.09658172087669371,-0.15282485549375413,0.0015485446162521838
1761430064645081900,3.141081787109375,0.0880816035568714,-0.13681713902279735,0.032591917655616996
1761430064665026800,3.16102685546875,0.13566285442113876,-0.09401515832431614,-0.01373677586428821
1761430064684971800,3.1809716796875,-0.03776303668320179,-0.04171535450555384,-0.0073589113954454655
1761430064704917000,3.2009169921875,-0.06692600280344486,0.1312372930638492,-0.16239757048115133
1761430064724861000,3.22086083984375,0.11113163975477218,-0.10857698683589696,0.37922589239515364
1761430064744806000,3.240805908203125,0.3317372151851654,-0.022322671771422026,0.10292429483644663
1761430064764750800,3.260750732421875,0.20276947448849678,-0.013316431560367345,0.2487606796823442
1761430064784694800,3.28069482421875,0.10727437980473041,0.06425948700793087,0.22525004023537037
1761430064804639700,3.3006396484375,0.029919921967387197,0.11963679857589304,0.23494937727712092
1761430064824585000,3.3205849609375,0.01669920586645603,0.039967195663973686,0.1361195121474564
1761430064844530000,3.340530029296875,-0.020500351715087888,-0.04027721146121621,0.04525551133044064
1761430064864473900,3.360473876953125,0.0074812956660985945,-0.07230923021174968,0.08570267253108323
1761430064884419000,3.380419189453125,-0.01847965954244137,-0.08426292205154895,0.13999408855848014
1761430064904363800,3.40036376953125,-0.005101122531294822,0.014767726347222924,0.09273454392924904
1761430064924308700,3.420308837890625,0.030890812826156615,-0.06789543235749006,0.003005392361059785
1761430064944253000,3.4402529296875,0.12250351311862467,-0.16567366954237223,-0.13368417475931346
1761430064964198000,3.460197998046875,0.10285480979681015,-0.15318141384646294,-0.07403671159148216
1761430064984142800,3.480142822265625,0.0494569816082716,-0.0687752839319408,-0.04637582059726119
1761430065004087800,3.500087890625,-0.05831131919324398,0.10045381306968629,-0.05136171925105154
1761430065024032000,3.520031982421875,0.05299684617221355,0.1089863713543862,-0.01914104606062174
1761430065043976400,3.5399765625,0.14526187289357184,-0.05669051305837929,0.017702610755339264
1761430065063921400,3.55992138671875,0.13837211337983607,-0.09356785294823348,-0.05022679693698883
1761430065083866600,3.57986669921875,0.023968904608488082,-0.05218355702795088,-0.04598141445219516
1761430065103810600,3.599810546875,0.04071194961667061,0.04042319580316543,0.024296821388602254
1761430065123755500,3.619755615234375,0.21320202117562292,0.061772346367314455,0.07519384573735297
1761430065143700500,3.639700439453125,0.18780454506874084,0.0011279080513864755,0.08148783131502568
1761430065163645400,3.6596455078125,-0.009397358420491218,-0.041241234187781806,-0.05630355956740677
1761430065183589400,3.67958935546875,-0.011143325304985045,-0.12866137816123663,0.008657353708148002
1761430065203534300,3.699534423828125,-0.09080021486580371,-0.052775896897912025,0.09161832631565629
1761430065223479600,3.7194794921875,-0.06144494104385376,-0.12450140893757343,0.15590682022236288
1761430065243424500,3.739424560546875,0.00027355624437332154,-0.18662446843869984,0.1559489057984203
1761430065263368400,3.759368408203125,0.06978548388779163,-0.13253661215938628,0.16635397995673118
1761430065283313400,3.7793134765625,0.11819734035730362,-0.09115311995670199,0.18291151233017444
1761430065303258400,3.79925830078125,-0.020429624566435812,-0.06821947668008506,0.14525982706695795
1761430065323203600,3.81920361328125,-0.24554829350709914,-0.050547845584899186,0.06857464679330587
1761430065343147500,3.8391474609375,-0.1716553743004799,0.0128543670065701,0.0740916566491127
1761430065363092500,3.859092529296875,0.0016243863314390182,0.06405636565126478,0.14730141589716075
1761430065383037400,3.879037353515625,0.03486263906657695,0.09133110687211156,0.03753185827583074
1761430065402982400,3.898982421875,0.021882161462306975,0.05091675196252763,-0.13005823934711516
1761430065422926300,3.91892626953125,0.09311258346140384,0.06449373415522278,-0.1554695978488773
1761430065442871600,3.93887158203125,0.19233634327948093,0.06419314377345145,-0.1661002974566072
1761430065462816500,3.95881640625,0.07787702040672302,-0.014124240811914204,-0.1796673427771777
1761430065482761500,3.978761474609375,0.16065058068335056,-0.08557210495397448,-0.22348617236800492
1761430065502704400,3.998704345703125,0.4389934748113155,-0.07614647028706967,0.03422814055532217
1761430065522649600,4.018649658203125,0.41687984268069267,0.0573630054924637,0.07008059437684715
1761430065542593500,4.038593505859375,0.0223690681964159,0.0004301350455731153,-0.0246522106975317
1761430065562538500,4.05853857421875,-0.2756231137752533,-0.13294000532850622,-0.17679872853830456
1761430065582483500,4.0784833984375,-0.13373627027273177,-0.1439154267206788,-0.1823232641134411
1761430065602428400,4.098428466796875,0.10088497102856636,-0.14610811445936558,-0.0695483871962875
1761430065622372400,4.118372314453125,0.14968670359849928,-0.11511457191109657,-0.020904913927987216
1761430065642317600,4.138317626953125,-0.028463293418288228,-0.13658354946263135,0.0215285987842828
1761430065662262500,4.158262451171875,-0.26519816587269307,-0.061821446206048125,0.011444281012937426
1761430065682207500,4.17820751953125,-0.09107026397883891,-0.021280323111638424,0.026464447751268744
1761430065702151400,4.1981513671875,0.08509703478813171,-0.010021700863912701,0.06094144850112498
1761430065722096400,4.218096435546875,0.12524433625936507,-0.12505034805722534,-0.011984598434716462
1761430065742041600,4.23804150390625,0.0432002593010664,-0.16672558974809942,-0.12988828960768878
1761430065761986600,4.257986572265625,0.05537292765378952,-0.11427373717278241,-0.14964469108767806
1761430065781930500,4.277930419921875,0.195821847307682,-0.07122939908578992,-0.17342552577815948
1761430065801875700,4.297875732421875,0.3147802351653576,-0.12951806805580854,0.1281027944304049
1761430065821820400,4.3178203125,0.23861820198297498,-0.004035246865451336,0.021752397602796552
1761430065841765400,4.337765380859375,0.1525613822519779,-0.008498509884625673,0.2483827132154256
1761430065861710600,4.357710693359375,0.09286942235529422,0.0826990337356925,0.23219386802390216
1761430065881655600,4.377655517578125,0.02638882523179054,0.1426488408509642,0.22216084204837677
1761430065901600500,4.3976005859375,-0.04362053053975105,0.10783362112268804,0.2292555495496839
1761430065921545500,4.41754541015625,-0.13083937978744506,0.09068484485782682,0.23330372896194457
1761430065941490400,4.437490478515625,-0.04803016367554664,0.02385799157992005,0.20054419965445994
1761430065961434400,4.457434326171875,0.1143202066630125,-0.005273702619224787,0.1440674024119973
1761430065981379600,4.477379638671875,0.2080932998597622,-0.10991649181134998,0.07427249310873449
1761430066001324300,4.49732421875,0.17985212475955487,-0.17826646300330756,-0.015609803194552659
1761430066021269500,4.51726953125,0.09771920047402381,-0.24426453730687497,-0.046623584813252086
1761430066041214700,4.537214599609375,0.09931143810153006,-0.267216227696836,-0.01476385388970375
1761430066061158700,4.55715869140625,0.08800970736443996,-0.27567316346205767,-0.141180010407418
1761430066081104000,4.577103759765625,0.04167290360331535,-0.3729264999900013,0.1743085191577673
1761430066101048800,4.597048828125,-0.00007423427999019622,-0.2054896932326257,-0.03717413087934256
1761430066120993500,4.61699365234375,-0.011726678150892258,-0.17980777416117488,0.28541480527557433
1761430066140937700,4.636937744140625,0.08475976565778255,-0.08505399936400354,0.43544396563619375
1761430066160882700,4.656882568359375,-0.019833412238955496,-0.08055537277050316,0.3698830406408757
1761430066180827600,4.67682763671875,-0.17936872515678404,-0.10126023408174514,0.16808730655536055
1761430066200772900,4.69677294921875,-0.1370160225957632,-0.11822751629985868,0.08221767995953559
1761430066220716800,4.716716796875,0.06293254925310611,-0.18658998164720833,0.08080730170495808
1761430066240661500,4.73666162109375,0.026955226942896843,-0.14806874700784683,0.08482260176092386
1761430066260606700,4.756606689453125,-0.06179331609010696,0.07412994283288717,-0.03439670205526054
1761430066280551700,4.7765517578125,0.06020750820338726,0.12262757788971065,0.08021094324700534
1761430066300496600,4.79649658203125,0.1593763229638338,0.07666450281180441,0.0064696344055235385
1761430066320440800,4.81644091796875,0.18834756590425966,-0.02132328547053039,0.01100873913988471
1761430066340385800,4.8363857421875,0.04100245699584484,-0.11335340745747088,-0.0648125177808106
1761430066360330500,4.85633056640625,0.1881535046368837,-0.14354929682202636,-0.12458872189484536
1761430066380275700,4.876275634765625,0.34857495273947714,-0.1264274085640907,-0.054355201978608964
1761430066400219600,4.8962197265625,0.230566997474432,-0.0863972306665033,-0.0005284808535128832
1761430066420164600,4.91616455078125,-0.12331366045773029,-0.09169950179308653,-0.14653028539419174
1761430066440109800,4.93610986328125,-0.034900632989406585,-0.24823117591552435,-0.29355916796028614
1761430066460054500,4.956054443359375,0.3258428964495659,-0.2809856637217104,-0.24627061643227932
1761430066479999700,4.975999755859375,0.31852760500013827,-0.1380448541868478,-0.040127062400802965
1761430066499943700,4.995943603515625,-0.0773334150493145,0.03851977333463728,0.16374613554589448
1761430066519888600,5.015888671875,-0.27972470387518406,0.04859159695059061,0.1298149321105331
1761430066539833900,5.035833740234375,-0.14700491716861724,0.004688377011939883,0.11269494354873895
1761430066559778800,5.05577880859375,0.053532268223166465,-0.05830985788851976,0.1457150965537876
1761430066579722800,5.07572265625,0.13174129706323146,-0.032237989651411766,0.179208931485191
1761430066599667700,5.095667724609375,0.18335107279121873,-0.015812559225037694,0.3366004373073578
1761430066619612700,5.11561279296875,0.16025953553915023,-0.02280760574415326,0.3426986811172217
1761430066639557600,5.1355576171875,0.016566519397497176,-0.026860461331531405,0.31702896394021807
1761430066659502800,5.1555029296875,-0.09656243165433406,-0.01999430188909173,0.30610366530008615
1761430066679446800,5.17544677734375,0.03378068904876709,-0.09422945866212248,0.29862675354816015
1761430066699391500,5.1953916015625,0.24906127006411552,-0.20718794851787387,0.32165041319578885
1761430066719336700,5.215336669921875,0.13414952724874019,-0.29926117899417876,0.3004515578225255
1761430066739281700,5.23528173828125,-0.0898468596637249,-0.24282829395867883,0.18323555665276944
1761430066759225600,5.2552255859375,-0.10174071107506752,-0.10536628116108476,0.060563043642789124
1761430066779170800,5.2751708984375,0.03996493064165115,0.03921542744860053,-0.06026252632625401
1761430066799115800,5.29511572265625,-0.25218612408637997,-0.15082396400012074,0.09254479351080953
1761430066819060700,5.315060791015625,-0.09946750544607638,0.029952655193209648,-0.19918233671672642
1761430066839005700,5.335005615234375,0.06144611008763313,0.05876819611527025,-0.211706594986096
1761430066858949600,5.35494970703125,0.2248106259047985,-0.03481872685961425,-0.17891849717125297
1761430066878894800,5.374894775390625,0.2400257306933403,-0.0772308314576745,-0.1952775112979114
1761430066898839800,5.39483984375,0.01229775603711605,0.010785744038969277,-0.1590610464695841
1761430066918784500,5.414784423828125,-0.1440565887570381,0.12396569462567567,-0.0989700773179531
1761430066938729700,5.434729736328125,-0.01815758798122406,0.15870719153061508,-0.08333082883320748
1761430066958673700,5.454673583984375,0.08190262266099453,0.11975779460705815,-0.1419165810536593
1761430066978618600,5.47461865234375,0.10901450147032737,-0.048740065510571,-0.19596498210541902
1761430066998563800,5.494563720703125,0.08827975647747516,-0.14882511833310128,-0.27659283559024334
1761430067018508800,5.5145087890625,0.11305004059672355,-0.05273359212614596,-0.15555040800012648
1761430067038453500,5.53445361328125,0.15094225661754607,-0.04908588327355683,-0.02632555073723197
1761430067058397400,5.5543974609375,0.18916648107171058,-0.06612455022744834,-0.05384286854229867
1761430067078342700,5.5743427734375,0.10415011030435561,-0.06531352610550821,-0.05265292810536921
1761430067098287600,5.59428759765625,0.005115151056647301,0.009959668478369712,0.08376615151055157
1761430067118232800,5.61423291015625,-0.04025368445515633,0.06097659287974238,0.16064502772539854
1761430067138176800,5.6341767578125,-0.004213818302750587,0.02982230681180954,0.15677636959850788
1761430067158121500,5.65412158203125,0.03045359045267105,-0.0331914179187268,0.07822736821435392
1761430067178066400,5.67406640625,0.04327624714672565,-0.0920882088497281,0.12395699986256659
1761430067198011600,5.69401171875,0.11800912430882453,-0.0838419932257384,0.19390863409750161
1761430067217956600,5.71395654296875,0.057979895281791684,-0.09013912060856819,0.1887439448107034
1761430067237900500,5.733900634765625,0.11438859572410583,-0.1320972708940506,0.11895546524822712
1761430067257845800,5.753845703125,0.2678711844742298,-0.15089688310585916,0.08805098922289907
1761430067277790500,5.77379052734375,0.15347498996555806,-0.12394479796811937,0.03570822304524481
1761430067297735700,5.793735595703125,-0.11071429112553596,-0.034121173049509526,0.11284070869497954
1761430067317680600,5.8136806640625,-0.1849427258968353,0.04810900106541812,0.16414003023430704
1761430067337624600,5.83362451171875,-0.07919102561473845,-0.005572027978673577,0.18849961466081439
1761430067357569800,5.85356982421875,0.038764907202124596,-0.021787176655232905,0.142489704766497
1761430067377514500,5.873514404296875,0.1433908183246851,-0.04505063640810549,0.09067300828956067
1761430067397459500,5.89345947265625,0.13759002309143542,-0.01303892979323864,0.08847111433111131
1761430067417404700,5.91340478515625,0.12165595637857914,0.005618643599376082,0.056609264515712854
1761430067437348600,5.9333486328125,0.06369184318780899,-0.06373465941622852,-0.046722588208317754
1761430067457293600,5.95329345703125,-0.011049217280745505,0.0022520167104899884,-0.1302839378617704
1761430067477238500,5.973238525390625,-0.14616905086636542,0.031188334468007086,-0.12540288782194256
1761430067497183500,5.99318359375,-0.07723112371861934,-0.03168912359699607,-0.10984620305411517
1761430067517128700,6.013128662109375,0.11989186931550502,-0.03324855493344366,-0.029497166510671375
1761430067537072600,6.03307275390625,0.150470547452569,-0.07755567949786782,-0.02637903449013829
1761430067557017600,6.053017578125,-0.03860942437946796,-0.09829605051390826,-0.12193703834228217
1761430067576962800,6.072962890625,-0.13316343882083892,-0.08580752114504575,-0.14608889830224214
1761430067596907500,6.092907470703125,0.0370697937220335,-0.08818652523607015,-0.07812178894802928
1761430067616852500,6.1128525390625,0.21302140391170976,-0.05777933120839297,-0.026195713812485335
1761430067636796700,6.132796630859375,0.29863866318166254,-0.04674348486587405,0.0624140052717179
1761430067656741600,6.15274169921875,0.1467582489311695,-0.09875351195782422,0.0937252354670316
1761430067676686600,6.1726865234375,0.06548398730158805,-0.06265124809369445,0.09171718358024954
1761430067696631600,6.192631591796875,0.1073445224314928,0.044462680452316994,0.13086707151196897
1761430067716575700,6.21257568359375,0.10115911179482936,0.06039163259863853,0.1467115602452308
1761430067736520400,6.2325205078125,0.09926818348169326,0.0904524243414402,0.15995404978655278
1761430067756465700,6.252465576171875,0.1219669220238924,0.14933452915996312,0.1432579126600176
1761430067776410600,6.27241064453125,0.11396423283219337,0.15992548127919434,0.17711115548834203
1761430067796355800,6.29235595703125,0.07199497663080692,0.07669153694920242,0.10959471251107751
1761430067816299800,6.3122998046875,-0.04505786986649036,-0.02027750274464488,-0.012428908136114478
1761430067836244500,6.332244384765625,-0.1660901413887739,-0.11942629763036966,-0.17795104037858545
1761430067856189400,6.352189453125,0.09678162736296653,-0.12768858760632573,-0.1558280558977276
1761430067876134700,6.372134765625,0.27394202882051466,-0.07020027523376048,-0.034692031740024686
1761430067896079600,6.39207958984375,0.0014560440272092818,-0.09746244923397898,-0.018424568354338408
1761430067916023600,6.4120234375,-0.30316520069539543,-0.13938954679407178,-0.1904223263517022
1761430067935968500,6.431968505859375,-0.20634791749715803,-0.1811235329348594,-0.20112492215186356
1761430067955913500,6.45191357421875,-0.03579670504629612,-0.12169913793317973,-0.13699139961116016
1761430067975858700,6.471858642578125,0.014884265398979185,-0.1063137180790305,-0.09496171845942736
1761430067995803600,6.4918037109375,0.037621582385897634,-0.09365312007889151,0.016988982593268157
1761430068015747600,6.51174755859375,-0.047586511561274525,-0.055066345922648904,-0.01442300456278026
1761430068035692800,6.53169287109375,-0.1257435179531574,0.02636230255104601,-0.009990867334231733
1761430068055637200,6.55163720703125,-0.05596154119670391,0.0003787701845169067,0.10834697747230529
1761430068075582500,6.57158251953125,0.19164134675264358,0.008937120497599243,0.11903138002865016
1761430068095527400,6.59152734375,0.2655611539661884,-0.044258170856162904,0.17292634408436713
1761430068115472600,6.61147265625,0.17935002045631407,-0.11925744386948645,0.05679163534529507
1761430068135416600,6.63141650390625,0.038618776729702944,-0.16938231480196117,-0.01674538309574127
1761430068155361500,6.651361572265625,0.03180383601784706,-0.12413498677797614,0.045210722340643404
1761430068175306500,6.671306396484375,0.09957505747377872,-0.09092340285405516,0.10823087681196629
1761430068195251500,6.69125146484375,0.11496259621977806,-0.09599383798614143,0.12590016981959343
1761430068215196400,6.711196533203125,0.09812368962168692,-0.088070716836676,0.14076594971381126
1761430068235140400,6.731140380859375,-0.05362988337874412,-0.11273659073337912,0.10896036013029516
1761430068255085600,6.75108544921875,-0.07438216402828693,-0.1717771740492433,0.08337868656292557
1761430068275030300,6.7710302734375,0.12210779179930686,-0.1786643032144755,0.16891791216060517
1761430068294975500,6.7909755859375,0.1912391956925392,-0.0381546663492918,0.16345570123195646
1761430068314920400,6.81092041015625,0.03919569983482361,0.034729002749547364,0.1301024438150227
1761430068334864400,6.830864501953125,-0.06672434275150299,-0.040934579391404984,0.11464037852808832
1761430068354809600,6.8508095703125,-0.11479717652499676,-0.1368142164133489,0.037026246841251845
1761430068374754300,6.87075439453125,0.05762275240719318,-0.10630231990218161,-0.025008622919768093
1761430068394699300,6.89069921875,0.27344167808294295,-0.02413191315047443,0.041062516620010134
1761430068414644500,6.91064453125,0.19336042563021183,0.02040127525478601,0.04420739051699638
1761430068434588400,6.93058837890625,0.08395955519080162,-0.019770430005341767,-0.04719371285140514
1761430068454533400,6.950533447265625,0.10304185680150985,-0.09133490626439451,0.048830081881582735
1761430068474478600,6.970478515625,0.15746727447211742,-0.08594671042002737,0.06376067064031958
1761430068494423300,6.99042333984375,0.08672025207579136,-0.04588416462279856,0.14090104733556508
1761430068514368500,7.010368408203125,0.05765139397978782,-0.0001844166561961174,0.13653627625480294
1761430068534312400,7.0303125,0.01912614075243473,-0.04366466194242239,0.16391133604496716
1761430068554257400,7.05025732421875,-0.06371931571662426,-0.12251761470921337,0.160541567350924
1761430068574202600,7.07020263671875,0.041861704173684115,-0.18019954995773732,0.11961480593979358
1761430068594147300,7.090147216796875,0.11376315730214118,-0.20405498425438998,0.09653583590835332
1761430068614092300,7.11009228515625,0.07179857727587223,-0.18404285444766283,0.04379194158390164
1761430068634037500,7.13003759765625,0.002889291700720787,-0.10172500204928218,0.048879181720316404
1761430068653981400,7.1499814453125,-0.03472060024738312,0.04316591864004731,-0.026111469595134256
1761430068673926400,7.169926513671875,0.016765256839990614,0.09357778982035815,-0.07683540239930152
1761430068693871600,7.18987158203125,-0.03531155187785625,0.04124306081868708,-0.010329524704068898
1761430068713816300,7.20981640625,-0.09913432796895504,-0.02138093394190073,-0.07847849343121051
1761430068733761500,7.229761474609375,-0.04830255087614059,0.02577799985706806,-0.06832666338160634
1761430068753705500,7.24970556640625,0.16366554459035396,-0.02393763268738985,-0.04151026038751006
1761430068773650400,7.269650390625,0.09194763133525848,-0.028596637474372983,-0.04567088719829917
1761430068793595600,7.289595703125,-0.08111760976314544,0.016246785923838613,-0.0571928365573287
1761430068813540400,7.309540283203125,-0.08785247097611427,-0.046710094052925706,-0.12533669071793554
1761430068833485300,7.3294853515625,0.10015314962267875,-0.011169555724784732,-0.04855433368012309
1761430068853429500,7.349429443359375,0.131708563837409,0.05700140563845634,0.061791270263493056
1761430068873374500,7.36937451171875,0.07011690779924393,0.026356018940731883,0.01166574174389243
1761430068893319400,7.3893193359375,0.17579028214812278,-0.11284772295765579,-0.054039487092942
1761430068913264600,7.4092646484375,0.2378331890851259,-0.15996106404922902,-0.0804044930577278
1761430068933209300,7.429209228515625,0.2833218515843153,-0.09723046710900962,-0.006680792938172817
1761430068953153300,7.4491533203125,0.19536299762427806,-0.14776245753765105,0.014825082557648419
1761430068973098500,7.469098388671875,0.1977320648431778,-0.1634431340113282,-0.04918269471153617
1761430068993043500,7.48904345703125,0.1691314087808132,-0.11987879063822328,0.07002338429689407
1761430069012988400,7.508988525390625,0.06632511430084705,-0.04325812696814537,0.27933117451295253
1761430069032933400,7.528933349609375,-0.10548808090984821,0.15700294489599764,0.2091593216560781
1761430069052883700,7.5488837890625,-0.09034428779184818,0.1597921372231096,0.11284794215336441
1761430069072827600,7.56882763671875,-0.10833177990317344,-0.04581950188875198,0.17318272999823092
1761430069092772600,7.588772705078125,-0.1871177318483591,0.04096899311766028,0.08714052331447601
1761430069112717600,7.608717529296875,-0.044783729100227355,0.0022576427336782217,0.16812676178291439
1761430069132662500,7.62866259765625,0.06517769783139228,-0.013273542266711591,0.24770612912811338
1761430069152607700,7.648607666015625,-0.12782616944611072,-0.07828757396899164,0.20820238625742493
1761430069172551700,7.6685517578125,-0.35942777066528797,-0.10115472788065671,0.06730375007465482
1761430069192496600,7.68849658203125,-0.22289456315040587,-0.08583879306614399,0.04260762717016041
1761430069212441600,7.708441650390625,0.12589490912258625,-0.09290054814592004,0.03249664058759808
1761430069232386600,7.728386474609375,0.29710370869934555,-0.0232845025409013,-0.004514774010702967
1761430069252331500,7.74833154296875,0.043020226559042925,0.15981131684761493,-0.060380453617498275
1761430069272276700,7.76827685546875,-0.039084056153893466,0.18022822806295005,-0.06695376759320497
1761430069292220700,7.788220703125,-0.2800748324871063,0.16519333867952227,0.08837145334891974
1761430069312165400,7.808165283203125,-0.43395021994709965,0.04763283492103219,0.08283968431539833
1761430069332110600,7.828110595703125,-0.3806266260385513,0.1696194114934653,-0.11554543760903178
1761430069352055600,7.8480556640625,0.11826689846217632,0.10559782489463686,-0.029932123861834404
1761430069372000800,7.868000732421875,0.4949608612269163,-0.1826359102591872,0.162792195821926
1761430069391944700,7.88794482421875,0.2563081724524498,-0.2656497820977121,0.2047644476979971
1761430069411889700,7.9078896484375,-0.06716624130010604,-0.16815606094263494,0.14606076818630098
1761430069431834600,7.927834716796875,0.11553016697466373,-0.05347637331746518,-0.0751022949963808
1761430069451779600,7.947779541015625,0.2817471496134996,-0.018840747939795253,0.05725932592228054
1761430069471724500,7.967724609375,0.15308569838702676,-0.06597630086317657,0.2496749449830502
1761430069491668700,7.987668701171875,0.24503800589740274,-0.08373721767701207,0.011430983139947056
1761430069511612700,8.00761279296875,0.728365127953887,-0.09543496199436485,-0.5132411257397383
1761430069531557600,8.0275576171875,0.5829565400660037,-0.1612956005886197,-0.6365915380112827
1761430069551502600,8.047502685546876,0.05087678527832031,-0.05357537671253085,-0.3751281016875058
1761430069571447600,8.067447509765625,-0.30614450876712795,-0.2643141495797783,0.5283655565701425
1761430069591391500,8.0873916015625,-0.05289981553852558,-0.3814931797400117,0.6662704177644103
1761430069611336700,8.107336669921875,0.24226971022784707,0.07912015233561397,0.02372362461052835
1761430069631281700,8.12728173828125,0.3988169472455978,-0.019866876117140053,0.11138298416733741
1761430069651226600,8.1472265625,0.4977268188089132,-0.07099011043719947,0.18908201765865087
1761430069671171600,8.167171630859375,0.2169984908491373,0.0692951430875808,-0.00036043081022799013
1761430069691116500,8.187116455078124,-0.0655599751472473,0.05318045911081135,-0.011588730984926222
1761430069711060500,8.207060546875,-0.23808336445391176,-0.044076384548470376,-0.1414878342475742
1761430069731005700,8.227005615234376,-0.34292437963187694,-0.12237908302135765,-0.15776881470195947
1761430069750950700,8.24695068359375,-0.2651262696802616,-0.06770721630901098,-0.06970438147559761
1761430069770895600,8.2668955078125,-0.09420914652645587,-0.08693469854407011,0.10022731083743273
1761430069790840600,8.286840576171874,0.22970541220903395,-0.15599574061483143,-0.02596818866692483
1761430069810784500,8.306784423828125,0.3668400927484035,-0.30795828019082544,0.02347008824087679
1761430069830729700,8.326729736328126,0.09941197586655616,-0.2411530542228371,0.10432100989185274
1761430069850674700,8.3466748046875,-0.32752222783863544,-0.12607209232039748,-0.01784961801059544
1761430069870619600,8.36661962890625,-0.24166648363769053,-0.1442602946355939,-0.06232092016078531
1761430069890564600,8.386564697265625,0.07093231583535671,-0.11258315373733639,-0.0364014660064131
1761430069910509600,8.406509521484375,0.1363368081599474,0.00222198689840734,0.15194997235536575
1761430069930454500,8.42645458984375,0.11574585555195807,0.0170790720295161,0.10449994665533303
1761430069950399700,8.446399658203125,0.08735095119476317,-0.025115371229872105,0.03907287717275321
1761430069970344400,8.466344482421874,-0.06330956587195397,-0.02529839964658022,-0.008027092980593443
1761430069990288400,8.486288330078125,0.0416273108959198,0.029561171657592058,0.08289594454728066
1761430070010233600,8.506233642578126,0.23355624241828918,0.02296564585007727,0.08258001046590506
1761430070030178600,8.526178466796875,0.3080395287334919,0.04059073438979685,0.12175218329466879
1761430070050119000,8.546118896484375,0.2886065139889717,-0.017730010218918322,0.11605667506679891
1761430070070063900,8.56606396484375,0.047452071526646614,-0.02066292186565697,0.08215133672505617
1761430070090009000,8.586009033203124,-0.13151567161381245,-0.04011836763769388,0.0019397358909249306
1761430070109953000,8.605953125,-0.15453881980478762,0.051220630279928445,-0.11616714970394969
1761430070129897700,8.625897705078126,0.060930561780929565,-0.0397539913047105,0.027206571355462072
1761430070149842700,8.6458427734375,0.12344576240479946,-0.07442322669103742,0.04085749556720256
1761430070169788000,8.665787841796876,0.013663783693313598,-0.05352057778537273,-0.006348053852468729
1761430070189732900,8.68573291015625,-0.034092823737859726,-0.0696354078926146,-0.0029753625489771364
1761430070209676800,8.7056767578125,0.07383037536442279,-0.12386837173104286,-0.011334756223857403
1761430070229621800,8.725621826171874,0.12093640993237495,-0.17171031935811043,0.03135258511900901
1761430070249566700,8.745566650390625,-0.08752747680544852,-0.09455810609459876,0.08165083985701203
1761430070269512000,8.765511962890624,-0.29218261891007424,0.012777283182367682,0.07228826048895716
1761430070289457000,8.785456787109375,-0.04594985027015209,0.008448460197821259,0.0326101839646697
1761430070309401900,8.80540185546875,0.22837620943188666,-0.0840694453060627,0.03249839415326714
1761430070329346000,8.825345947265625,0.22258710463643072,-0.11232274923548102,0.0061129299223423
1761430070349290800,8.845290771484375,-0.005541852036118507,-0.03867876328863203,0.0010511164881289005
1761430070369235700,8.865235595703124,-0.01595510950088501,0.0443540324460715,0.0237590612500906
1761430070389181000,8.885180908203125,0.18835925634205342,0.02382481996268034,0.06716551064774394
1761430070409126000,8.9051259765625,0.1730138031721115,-0.01764569293633103,0.040296939074993134
1761430070429070800,8.92507080078125,0.07903028209507465,-0.0192515206977725,-0.06114420453161001
1761430070449014800,8.945014892578126,0.17183189991116524,-0.05097739610858261,-0.034504181017726655
1761430070468959700,8.964959716796875,0.3989034564852714,-0.23450915922895071,-0.05648994898498058
1761430070488905000,8.984905029296876,0.24702771840989587,-0.18530673690363764,0.0459613945774734
1761430070508850000,9.004849853515625,-0.1347106682628393,0.0330550781879574,0.029397505528479813
1761430070528795000,9.024794921875,-0.17556582574248314,0.1328008891187608,0.04094035154506564
1761430070548739000,9.044739013671874,0.07649871779084205,0.05650178555324673,0.07596592608839273
1761430070568683800,9.064683837890625,0.32871932866871356,-0.11953085398338735,0.11723536345735192
1761430070588628700,9.084628662109376,0.12132102533578872,-0.09825023861080408,0.14010872791409493
1761430070608574000,9.104573974609375,-0.07228899114131927,-0.01924786743596196,0.1602802860662341
1761430070628519000,9.124518798828126,-0.12229659236967563,0.017963015257194636,0.1854246641948819
1761430070648464000,9.1444638671875,-0.037984570479393,-0.05202062155120075,0.14981193741336463
1761430070668407800,9.16440771484375,-0.18005436933338642,-0.13379961783252656,0.04013897203430533
1761430070688352800,9.184352783203124,-0.2198912896811962,-0.1481781256664544,0.06388268958479165
1761430070708298000,9.204298095703125,0.08211012793183327,-0.20283070315644144,0.21835516615509987
1761430070728243000,9.224242919921876,0.13096972816884517,-0.179260223281011,0.1544116862937808
1761430070748188000,9.24418798828125,-0.07576748090684414,-0.1501490604132414,0.04362462219297886
1761430070768132900,9.2641328125,-0.17329612724483012,-0.12131269589886069,0.008399871815741061
1761430070788076800,9.284076904296874,0.08991817133426666,-0.13211458735503256,0.025475509779155255
1761430070808021800,9.304021728515625,0.2381207738548517,-0.06816650438383222,-0.10364157626032829
1761430070827967000,9.323967041015624,0.14132336440086363,0.07768412818312645,-0.08614595931917428
1761430070847912000,9.343911865234375,0.07915127812623977,0.15622808806598185,-0.013472498904913663
1761430070867856600,9.363856689453126,0.10839198565781116,0.15357618531771003,-0.030284809757024047
1761430070887800800,9.38380078125,0.0261117618560791,0.12309724122807383,-0.01530716698616743
1761430070907745800,9.403745849609376,-0.03406944286227226,0.11739113854095339,-0.03861819220781326
1761430070927690800,9.423690673828125,0.15048691406548023,0.06020699674673378,0.04341887048780918
1761430070947636000,9.443635986328125,0.3346633317649364,-0.004986190914735198,0.10766016425192355
1761430070967580700,9.46358056640625,0.02165536696910858,-0.10460348009504378,0.06969795173481107
1761430070987526000,9.48352587890625,-0.23144378030896184,-0.20324505611099303,-0.13299407360330223
1761430071007469800,9.5034697265625,-0.07983283064961433,-0.26728629725836217,-0.0370819225512445
1761430071027414800,9.523414794921875,0.17781857310533522,-0.2158069429770112,0.0675419427447021
1761430071047359700,9.54335986328125,0.08754735054969787,-0.0879748552467674,0.10690671553611755
1761430071067304700,9.5633046875,-0.1986509332537651,-0.008778057478368281,0.08468275489881634
1761430071087249700,9.583249755859375,-0.17933248479962346,-0.08560476511456072,0.07846271134018898
1761430071107194600,9.603194580078124,-0.029490882900357243,-0.1358675832130015,-0.014220102401822804
1761430071127138600,9.623138671875,0.16268530138134957,-0.11754231051467358,-0.011627455560117959
1761430071147083800,9.643083740234376,0.24653672002255916,-0.066986354688555,0.062024494497478
1761430071167028700,9.66302880859375,0.1654945135831833,0.03628448856323957,0.032234190259128805
1761430071186973700,9.6829736328125,0.13513035497963427,0.09186170661747455,0.07698182513266802
1761430071206918700,9.702918701171875,0.12093114923536777,0.02605952021218836,0.06830372089743614
1761430071226863600,9.722863525390625,0.1291203009098768,0.006148951083794236,-0.0060965633094310755
1761430071246807600,9.7428076171875,0.14168576797246932,0.011543722799420356,0.06295519947633146
1761430071266752800,9.762752685546875,0.1266284840941429,0.01759301290102303,0.11133622241616248
1761430071286697700,9.78269775390625,0.04991758485734463,-0.08941635929197073,0.04643967961370945
1761430071306642700,9.802642578125,0.049909401550889014,-0.10440408506542444,-0.009901216289401054
1761430071326587600,9.822587646484376,0.07721358806192874,-0.08028342396132647,-0.0017654022373259067
1761430071346531600,9.842531494140625,0.15630641399919987,-0.10243548840619623,0.0006507189936935901
1761430071366476800,9.862476806640625,0.09984802919626236,-0.1587187358379364,0.046495355323702095
1761430071386421800,9.882421875,-0.06322422567605972,-0.13866072106286884,0.13122881749644874
1761430071406366500,9.902366455078125,-0.036357261538505554,-0.13124343054369092,-0.04350435681417584
1761430071426311700,9.922311767578124,0.21624270404577253,-0.19204539750888944,0.03381678327545523
1761430071446256600,9.942256591796875,0.35848201424777504,-0.22412987709902227,-0.07831555795446038
1761430071466200600,9.96220068359375,0.14605565361976622,-0.109908527700603,-0.051209962755441665
1761430071486145800,9.982145751953125,-0.1997311297059059,0.042045974699407816,-0.031334172679483886
1761430071506090800,10.0020908203125,-0.39038054281175133,0.06258775440342725,0.05994608078822493
1761430071526035700,10.02203564453125,-0.14341887537539005,-0.01446465174742043,0.0748801766782999
1761430071545980700,10.041980712890625,0.18509002541303635,-0.07366407888680696,0.09717004215866326
1761430071565925600,10.061925537109374,0.16250760672688483,-0.02866115407794714,0.08842617921084166
1761430071585869800,10.081869873046875,0.010778583645820617,0.02000314278267324,0.09492854684218764
1761430071605814800,10.101814697265626,0.08382686872184276,-0.012268603007867931,0.057407209960371255
1761430071625759500,10.121759521484375,0.23240298072993754,-0.09386062534973025,0.08012538385540247
1761430071645704700,10.14170458984375,0.11619710645079612,-0.13513700391612946,0.02493906481489539
1761430071665649700,10.161649658203125,-0.15437047750055788,-0.10822773500680923,0.026313568038493395
1761430071685595000,10.181594970703125,-0.07070552134215831,0.009758592948317527,0.11851342056915164
1761430071705538800,10.201538818359374,-0.12185352477729319,0.028067864359915255,0.07162950431928038
1761430071725483800,10.22148388671875,-0.1326759475648403,0.0780456549718976,0.08845540530532597
1761430071745428700,10.2414287109375,0.0008744447469711303,0.041458676330745216,0.08160188614875077
1761430071765373700,10.261373779296875,0.29170214191675187,-0.0064895812150090925,0.04206044161617756
1761430071785318700,10.281318603515626,0.303298471686244,-0.3358708078585565,-0.040134003598243
