time,seconds_elapsed,z,y,x
1761507162004801500,0.082801513671875,0.7814104894429444,0.36742768337801096,0.9853902895692735
1761507162024958700,0.102958740234375,1.117388410937786,0.6535248448945582,-0.1257108212599531
1761507162045114600,0.123114501953125,0.7543722603917121,0.9194112852923572,-1.0865152068335562
1761507162065271600,0.143271484375,1.98705176885128,1.5561708733469246,-1.5529802606120704
1761507162085427500,0.163427490234375,0.5847317330449819,0.8509551503121853,-0.019728417494520544
1761507162105584600,0.183584716796875,-0.3543704872757196,0.6527218579486012,-0.4547432709984481
1761507162125740500,0.203740478515625,0.3691454470813274,1.5773253050565719,-1.4737319518521428
1761507162145897700,0.223897705078125,2.54784090077281,2.0340014438137413,-1.4112676046326755
1761507162166053600,0.2440537109375,2.28105225083828,1.9257295774042604,-0.4933827251899987
1761507162186210600,0.26421044921875,-0.22235504944622517,1.3186796295672654,-0.3333918505243957
1761507162206366500,0.284366455078125,0.7052145539909601,1.2335510305970907,-0.5579132842242718
1761507162226522600,0.304522705078125,-0.09906944603919983,-0.4883674543112516,1.9551463721551
1761507162246679600,0.324679443359375,2.6879350156396624,-3.8976170948714017,2.739710211062431
1761507162266835700,0.344835693359375,1.8432418483316897,-5.595099057659507,-0.4741542200416326
1761507162286992600,0.36499267578125,1.9424252761393785,-6.7259191971004,-1.9199490943066775
1761507162307148800,0.385148681640625,2.5982529911488292,-2.7574656479835506,-1.0500044352337718
1761507162327305500,0.405305419921875,3.7082244038283823,-0.8552478790700435,-1.3834879095643757
1761507162347461600,0.425461669921875,3.7512452149093147,-0.7696822038568556,-1.0681303129024804
1761507162367618600,0.44561865234375,1.6334008280217647,-0.08386917349360883,-1.029199182287976
1761507162387774700,0.465774658203125,-0.8665455181539058,1.4839217758245766,-3.2339442193195223
1761507162407931600,0.485931640625,-2.6001900966912506,0.6433178505916148,-4.184260784354806
1761507162428087800,0.506087890625,-4.311056441709399,-1.4637988791197538,1.4423416650712488
1761507162448244500,0.526244384765625,-4.916105571117997,1.2435948702275752,0.7272816435661167
1761507162468400600,0.546400634765625,-1.8927116894215343,8.157828315484524,-6.236913444885611
1761507162488557600,0.5665576171875,-2.5826106008589265,8.808995052945614,-7.2112249257534735
1761507162508713700,0.586713623046875,-0.5707295111775398,5.927931666865945,-6.04756167037487
1761507162528869600,0.60686962890625,-2.7992537023991346,6.393672863349318,-5.3786202067703
1761507162549026800,0.62702685546875,-5.859983919799327,2.724561157247424,-5.002801857796311
1761507162569182700,0.6471826171875,-7.828263183641433,1.516997677604854,-6.193965114519
1761507162589339600,0.667339599609375,-7.075368010064959,2.1922166140437125,-3.9271193759486076
1761507162609495600,0.68749560546875,-5.84826717852056,0.6013870997697115,-0.9900605464026331
1761507162629652500,0.707652587890625,-3.523706625345349,-1.5499565288767219,1.2660635994061826
1761507162649808600,0.72780859375,-4.6914884219586845,-3.0800010273203253,2.9814950603827834
1761507162669965600,0.747965576171875,-1.7855577211260794,-3.9789544848650693,4.055860029891133
1761507162690121700,0.768121826171875,0.4799240356147289,-3.5552392432063815,4.511005013558268
1761507162710278400,0.7882783203125,1.796384820088744,-3.548509934951365,4.845578328952193
1761507162730434600,0.8084345703125,2.8410569543838498,-3.3258921429157255,5.723160789427161
1761507162750591500,0.828591552734375,3.4238913293749094,-3.4100577420726417,6.600016689193248
1761507162770747600,0.84874755859375,3.7729040890097614,-3.345039326456189,6.468151473489403
1761507162790904600,0.868904541015625,3.516614621257782,-3.4883553259789943,6.473578759235143
1761507162811060700,0.889060791015625,2.7265765887230633,-3.4534114383697507,5.998000059348344
1761507162831216600,0.909216552734375,2.646197230106592,-2.971500612851977,5.585352155148983
1761507162851373600,0.92937353515625,2.354374676680565,-2.5667168661564586,4.819112639091909
1761507162871529500,0.949529541015625,1.176029984998703,-2.102838394805044,3.804942026044428
1761507162891686700,0.969686767578125,-0.7173480593770742,-1.6244266634494064,2.36144183858782
1761507162911842600,0.989842529296875,-5.996828677481412,-1.3213108548536896,0.4305687608152628
1761507162931995600,1.00999560546875,-10.32495374289155,-2.0291127949893473,-1.4714669295296072
1761507162952151800,1.03015185546875,-18.08516571909189,0.27667466865479945,-2.792522056056559
1761507162972308700,1.050308837890625,-23.407819708490372,2.5390631355553865,-6.137091719174385
1761507162992465000,1.07046484375,-24.36153029987812,2.934634817269444,-9.163418731713294
1761507163012621600,1.09062158203125,-21.765991243863105,2.704712255178392,-9.526755200254916
1761507163032777700,1.11077783203125,-14.840483540397882,2.9617034414589405,-6.657700231876969
1761507163052934700,1.1309345703125,-7.048450777044892,2.109854557177424,-3.2656697294041512
1761507163073090800,1.1510908203125,-0.2745814957678318,2.267655009126663,-0.6813531283449381
1761507163093246700,1.171246826171875,4.91104711868465,2.1017004768162963,1.1630576907008885
1761507163113404000,1.19140380859375,7.970695386067033,2.0413690499722956,1.096279791131243
1761507163133559800,1.211559814453125,10.48334631551504,3.0706682585686442,0.8268477140158415
1761507163153716700,1.231716796875,11.674080533170699,4.479320420005918,-0.5032229685397819
1761507163173872600,1.25187255859375,12.165039173018931,4.736588961923122,-1.5629393445685504
1761507163194029800,1.27202978515625,12.685443687582016,4.303585667437314,-1.834538171263784
1761507163214185700,1.292185791015625,12.809881383633613,3.838579799491167,-1.3401003109976648
1761507163234343000,1.312343017578125,12.361665322446822,2.6301442131891846,-0.40756091979127373
1761507163254498800,1.332498779296875,11.262689351034163,1.8682523709475993,-0.08438136079944669
1761507163274655700,1.35265576171875,10.062443793189525,1.8296464536994694,-0.2650358879830688
1761507163294811600,1.372811767578125,8.299208963030576,2.7132415985926985,-0.5057647254444658
1761507163314968800,1.39296875,6.5516568551719185,2.6300524432525036,-0.8126044499341398
1761507163335124700,1.413124755859375,4.9998611281692975,2.230334747774899,-0.7486709069449454
1761507163355280600,1.43328076171875,3.7358226048499343,2.3841148581668734,-0.9063356036853044
1761507163375437800,1.453437744140625,2.887305495339632,2.184683003668487,-1.0918758570838718
1761507163395593700,1.47359375,0.5730535702109336,2.0376377544894813,-0.5327284279547632
1761507163415750700,1.493750732421875,-3.174889096021652,-1.6162950871810315,1.684642208828777
1761507163435906600,1.513906494140625,-9.926098217201233,-4.499264306882024,3.4821593939483164
1761507163456063700,1.534063720703125,-14.759239673906563,-5.606902892699837,3.8466216516494747
1761507163476219600,1.5542197265625,-17.9046185978055,-4.477110635001957,3.160183109799027
1761507163496376800,1.574376953125,-19.172180034554003,-5.582182877463102,3.638841655522585
1761507163516532700,1.59453271484375,-18.825656753647326,-4.967090492945909,3.432691306424141
1761507163536689700,1.614689697265625,-15.397426518285274,-3.0240532223880288,2.361650366771966
1761507163556845600,1.634845458984375,-10.19518754529357,-2.205736897613108,2.2304136582300065
1761507163577002800,1.655002685546875,-4.719547810751199,-1.2845166632026432,1.4623964649759231
1761507163597158700,1.67515869140625,-0.16761398995518684,0.3003320230960846,-0.5671734261311591
1761507163617315800,1.69531591796875,3.6673172239005565,1.4845850620388983,-2.2974799462869764
1761507163637471700,1.7154716796875,6.9043497646242376,1.4468049280904232,-3.8942233607798813
1761507163657628000,1.7356279296875,9.657920743256806,0.336649391015619,-3.902155322822928
1761507163677784600,1.75578466796875,11.405414398926496,0.1312824473798275,-3.3301310956597328
1761507163697940700,1.775940673828125,12.859631210708617,-0.11053805777579545,-2.786406788046658
1761507163718097700,1.79609765625,13.92564365467429,-1.1728428793951868,-2.465989131516218
1761507163738253800,1.81625390625,13.234482760477066,-2.148967839425802,-2.588409642526507
1761507163758410800,1.83641064453125,12.41883039421439,-1.4317860765263437,-2.046368465694785
1761507163778567000,1.85656689453125,10.844707100069522,0.6635644467413425,-2.162174965392798
1761507163798723600,1.8767236328125,9.097417442539333,1.6575348600640891,-2.0841237574629483
1761507163818879700,1.896879638671875,7.502804318073392,2.2976214005842803,-2.1160653945162893
1761507163839036700,1.91703662109375,5.521215490803122,2.785090444751084,-2.339034191946685
1761507163859192800,1.93719287109375,2.702968334120512,2.832451330862939,-2.406234335516393
1761507163879349800,1.957349853515625,1.8059218792408704,1.9407544203177094,-0.7541251537628472
1761507163899506000,1.977505859375,-6.663788611879944,-0.735795277954638,0.73028966627568
1761507163919662600,1.99766259765625,-13.526350906610489,0.5605114840239286,1.415922590831667
1761507163939822000,2.017822021484375,-16.612121457242964,-0.4448968536362052,1.2512062220141291
1761507163959978000,2.03797802734375,-20.51260329389572,-0.23080372883975506,0.8447625062171369
1761507163980135000,2.058135009765625,-21.46124023528099,-2.3554379219979045,2.2418793473571537
1761507164000290800,2.078290771484375,-19.700763179397583,-2.1878274391740558,1.5664910457007586
1761507164020448000,2.098447998046875,-14.205160853278636,-0.9248138749882578,0.10116861027553677
1761507164040604000,2.11860400390625,-7.83632607858777,-1.949078596548736,0.5364556317843496
1761507164060761000,2.138760986328125,-1.9375503635793923,-2.1055276338890194,1.1026435540094972
1761507164080917000,2.1589169921875,2.774903689518571,-1.731264697663486,-0.3212864021889865
1761507164101074000,2.179073974609375,6.05380962485373,-1.4198169679217039,-1.7365727409437297
1761507164121229800,2.199229736328125,8.291575107151269,-1.0568284360349178,-3.3934821625858542
1761507164141387000,2.219386962890625,11.089746859532594,-1.1671870455905795,-4.398590348255634
1761507164161543000,2.23954296875,12.2896428732872,0.20517624336928128,-3.725869366112351
1761507164181700000,2.2597001953125,12.841784588372706,1.2538004762910306,-1.8661781950220464
1761507164201856000,2.27985595703125,12.532518732714653,0.172888861618191,-0.6672381668180227
1761507164222012000,2.300011962890625,11.179156496822833,-0.7967772776618599,-0.17412147215306759
1761507164242168800,2.3201689453125,8.944975887274742,-0.4317795979097485,0.09504881222099065
1761507164262324700,2.34032470703125,7.575252883690595,0.9372145068779587,-0.4509259046673774
1761507164282482000,2.36048193359375,6.505281472966074,1.3939602037400007,-1.3908911715582013
1761507164302637800,2.380637939453125,5.466800010004639,2.258875636474043,-2.450856444314122
1761507164322795000,2.400794921875,4.919970429852604,2.544013451439142,-2.9746570310562848
1761507164342951000,2.420950927734375,4.026200804686546,1.5223796629041433,-2.527588678599894
1761507164363107800,2.44110791015625,2.153184580338001,1.433114256390184,-1.543678763781488
1761507164383263700,2.461263671875,-0.5104518603473901,1.0814474751152097,-0.13867255763113498
1761507164403421000,2.4814208984375,-3.7946038796424864,-0.9618513738758862,1.7521587248712778
1761507164423576800,2.501576904296875,-10.95288105906248,-0.035307167963683606,2.8295132315844294
1761507164443734000,2.521734130859375,-15.07838745663166,-1.9426117386221884,5.562631204774975
1761507164463890000,2.541889892578125,-15.404064348864555,-1.7448218061119316,3.528671554276347
1761507164484046800,2.562046875,-17.84900484713316,0.8157239701941609,2.07240876974985
1761507164504202800,2.58220263671875,-14.782620549494027,2.5654694964438676,0.23191227460354566
1761507164524359000,2.60235888671875,-8.361220890307425,1.0700921144947408,0.5530129449620843
1761507164544515800,2.622515869140625,-2.3828443998396396,-1.2960545407831667,1.5814154969796537
1761507164564672000,2.642672119140625,3.237486129710078,-2.316764492471516,0.3199690359801054
1761507164584829000,2.662828857421875,4.482259980589151,-1.324646721278131,-1.4162392555654049
1761507164604985000,2.682985107421875,-3.410700423890352,-0.8195923360601067,-6.6152580974668265
1761507164625141800,2.703141845703125,1.9386118553310632,-6.831504893165826,-4.134351090542972
1761507164645298000,2.7232978515625,4.687440607872605,-5.443972092124819,-4.862560443413257
1761507164665454800,2.743454833984375,10.926838270789384,-1.6519965151593088,-2.098060659009218
1761507164685611000,2.763611083984375,3.9279666404277083,-3.9826542161658405,-0.15271744959652422
1761507164705768000,2.783767822265625,4.010906789442896,-4.612696040272713,-0.12849486248791217
1761507164725924000,2.803924072265625,2.850198292216658,-2.963473958262801,0.3625637306034565
1761507164746080800,2.824080810546875,3.804465348443389,-2.6245661207959055,-0.3351747884184122
1761507164766237000,2.84423681640625,5.025148714160919,-1.7131635160446166,-0.5749070891231298
1761507164786393900,2.864393798828125,5.269938882777095,-1.028280386942625,-0.8387494564726948
1761507164806550000,2.884550048828125,4.843377019515633,-0.48909956797808407,-1.0805895431116224
1761507164826706000,2.904705810546875,4.37811922263503,0.12563757336065173,-2.0479922675043345
1761507164846862800,2.92486279296875,3.4727228725612163,0.3659015697892755,-1.972103790566325
1761507164867019000,2.94501904296875,2.013617704215646,-0.09262624298287556,-0.7251940967023373
1761507164887175700,2.96517578125,-2.026380739676952,-0.2822651456056163,0.5927645251139998
1761507164907331800,2.985331787109375,-9.113375474649667,1.1299853691171855,2.6113427743464706
1761507164927485200,3.005485107421875,-13.950585203707217,0.8719296954102813,4.5313960596799845
1761507164947641300,3.025641357421875,-14.405668228054045,6.010114860033989,4.456597131544351
1761507164967798300,3.04579833984375,-16.428679783558845,6.064024729397892,1.2106092770792543
1761507164987954400,3.065954345703125,-13.399542389774322,3.4226597417533395,0.2529910107284784
1761507165008111400,3.086111328125,-9.883270298343897,0.38422640409618614,0.5028618436098099
1761507165028267300,3.106267333984375,-4.962829328370094,-1.3225108782932162,1.6710387770205735
1761507165048424200,3.126424072265625,-2.726756036943197,-2.020521492254734,2.0224004378691314
1761507165068580400,3.146580322265625,2.0607190626084804,-1.5914035147696732,-0.3993239469196647
1761507165088737300,3.1667373046875,4.130308244892954,-1.753703470095247,-1.6754204992361366
1761507165108893400,3.1868935546875,5.258870960795879,-1.998606743697077,-2.010705908422172
1761507165129050400,3.20705029296875,7.27404466228187,-0.7035522468019276,-2.366693329375237
1761507165149206300,3.227206298828125,8.31734784631133,-1.354615450823307,-2.688677942961454
1761507165169362400,3.247362548828125,8.587536660078168,-1.8487723021909594,-1.8565924744226037
1761507165189519000,3.26751904296875,8.575916949433088,-2.319279982423782,-1.4270480882190166
1761507165209675300,3.28767529296875,8.759386095646024,-2.220874114859849,-1.4918816487878561
1761507165229832200,3.307832275390625,8.495593120396137,-2.06398420188427,-1.264485390304029
1761507165249988400,3.32798828125,8.41813111053109,-1.7082317587308584,-1.3589134402781724
1761507165270145300,3.348145263671875,8.411768005239963,-1.0156456540361045,-1.656874934850633
1761507165290301400,3.368301513671875,8.180391444948315,-0.3502831083642319,-1.8303595704048872
1761507165310458000,3.3884580078125,7.535778366914391,0.002341631222702563,-1.7630296629756688
1761507165330614300,3.4086142578125,6.239459037715196,0.12082213590294122,-1.2107678286418317
1761507165350771200,3.428771240234375,4.084396973067522,-0.43734804569184776,0.05233399834930896
1761507165370927400,3.44892724609375,-0.5413584552645683,-0.5309079345293343,2.609555306407809
1761507165391084300,3.469084228515625,-6.938352571991086,-0.5228924589212983,5.060029473406076
1761507165411240400,3.489240478515625,-13.209673313391209,0.33476401566043495,6.3659074890673155
1761507165431397000,3.509397216796875,-19.159096096575258,-1.8626947368204592,8.674903393363952
1761507165451553300,3.52955322265625,-22.435397402369976,-2.45587748734653,6.443351963275671
1761507165471709200,3.549709228515625,-23.272650190544127,-0.029287469282746312,3.209993727150559
1761507165491866400,3.569866455078125,-18.421525333380696,0.5437079410001635,2.1417866957500578
1761507165512022300,3.590022216796875,-11.783857251185179,-0.19526918186098335,2.53166162712723
1761507165532179500,3.610179443359375,-5.390891074800491,-1.0324813457638025,2.2633155186176297
1761507165552335400,3.63033544921875,-0.2745113531410694,-1.1202440926298498,0.8359330108124762
1761507165572492300,3.6504921875,4.192005114871264,0.5983735971674323,-1.863852528553456
1761507165592648200,3.670648193359375,7.870898794797062,1.5520266131490468,-3.6425033929005264
1761507165612805400,3.690805419921875,10.781459493517875,1.3656490321435033,-4.104696249252558
1761507165632961300,3.710961181640625,12.325702028661965,0.5316983542546629,-3.492072300675511
1761507165653118500,3.731118408203125,13.636929588657617,-1.1355063975609838,-2.6489526662945746
1761507165673274400,3.7512744140625,12.655797906380892,-1.9768081688649952,-1.7336638677597045
1761507165693431300,3.771431396484375,11.419119099152088,-1.4827192681670187,-1.944969992186129
1761507165713587200,3.791587158203125,10.171417378127574,-0.5918355737008154,-2.444594899701327
1761507165733744400,3.811744384765625,9.007788025018572,0.1920966893047094,-2.6315222235441205
1761507165753900300,3.831900390625,7.500949630117416,0.6899417276658117,-2.6967659723490476
1761507165774057500,3.852057373046875,6.113599199905991,0.9157511553496122,-2.824221554917097
1761507165794213400,3.87221337890625,5.004979201835393,0.8058667391769587,-2.980516278478503
1761507165814369300,3.892369384765625,3.745670629647374,0.11988061726912855,-2.532554776574671
1761507165834526200,3.912526123046875,1.1169506040424109,-1.061718253903091,-1.2918360463052987
1761507165854682000,3.93268212890625,-2.4729332515656948,-2.527576695901155,0.9665537063479422
1761507165874839300,3.95283935546875,-7.752990208253264,-1.927827864857763,2.339751400305331
1761507165894995200,3.9729951171875,-11.459984193503855,-2.3441429132625458,3.7074487432807683
1761507165915152400,3.99315234375,-16.275427496433256,-2.2006468809977173,5.796321887227893
1761507165935309000,4.01330908203125,-18.17606822528839,-2.2388787042364475,5.989370178169012
1761507165955466200,4.03346630859375,-18.466249441248177,-3.6388393174350258,7.004744321787357
1761507165975622100,4.0536220703125,-16.112039599740505,-3.4088477817609903,6.2429047942548985
1761507165995779300,4.073779296875,-11.573303114169835,-2.968931054624915,4.983920047193766
1761507166015935200,4.093935302734375,-6.446588460978865,-2.959189997333288,4.410075034344196
1761507166036092200,4.114092041015625,-1.5425550204485654,-2.170005366757512,2.4944573933705687
1761507166056248000,4.134248046875,2.3277619795650244,-0.559731147301197,0.08101093451827764
1761507166076405200,4.1544052734375,5.554663586896657,0.9134308957085013,-1.821154227425158
1761507166096561200,4.17456103515625,7.6918410352855915,2.5203940909206866,-3.529611757735908
1761507166116718300,4.19471826171875,9.497777527573705,4.405729406355321,-4.921272160100937
1761507166136874200,4.214874267578125,10.855407357782125,5.368453617542982,-5.265172691288591
1761507166157031400,4.235031494140625,11.329801816320419,5.657922301319241,-4.806377952942252
1761507166177187300,4.255187255859375,11.341786853146552,5.799737248629331,-4.216934388944506
1761507166197343200,4.27534326171875,10.687912610292434,5.482424864637851,-2.7847943844139573
1761507166217500200,4.295500244140625,9.944206705343722,5.314142766162753,-2.309805028722435
1761507166237656300,4.31565625,8.389397767999768,5.2288814807236195,-2.305652000696212
1761507166257813200,4.335813232421875,7.763532060533762,4.894792733976245,-2.019967365503311
1761507166277969400,4.355969482421875,7.05320995427072,4.5176545345753425,-1.0821929597202689
1761507166298126300,4.376126220703125,5.711362215083837,4.434408096089959,-0.5407086130537092
1761507166318282200,4.3962822265625,3.82893226570189,3.060298840245604,-0.6304390067309141
1761507166338439200,4.416439208984375,0.7456319045752287,0.5219932450592517,-0.13593626453503965
1761507166358595300,4.43659521484375,-4.298816553339362,-1.8475380842208862,0.23126915439441798
1761507166378752300,4.456752197265625,-10.062663573420048,-3.578618949750066,-0.8026991419915109
1761507166398908400,4.476908447265625,-14.522039522027969,-4.853880877873301,-0.7914061060175299
1761507166419065300,4.4970654296875,-16.494319253683088,-5.802988359379768,0.12563923559477552
1761507166439221500,4.517221435546875,-17.144541403770447,-7.570583722835779,1.3513925432540475
1761507166459378200,4.537378173828125,-16.557117947423457,-8.177329719290137,1.8587573973715303
1761507166479534300,4.557534423828125,-13.846472502803802,-7.8937834113001815,0.6440121895313262
1761507166499691300,4.577691162109375,-17.614560131442545,-9.780889535799622,-3.778295134398341
1761507166519847400,4.597847412109375,-3.3039503602206706,-7.697491608393192,-2.5377175661653277
1761507166540003300,4.61800341796875,-1.7462562228292227,-2.272832411764562,-0.1700340567089617
1761507166560160500,4.638160400390625,4.090975766935944,1.078191834320128,1.3693331274837255
1761507166580316400,4.65831640625,5.739251508006453,1.7372677374705672,0.44043037574663757
1761507166600473300,4.678473388671875,8.97795402776897,2.90464387589246,-0.4646097082354128
1761507166620629200,4.698629150390625,10.636979710912703,3.277905233860016,-0.6620278848238289
1761507166640786200,4.7187861328125,11.950140869319439,3.3496590952113268,-1.1872278169699013
1761507166660942300,4.7389423828125,11.98656125922203,2.6369685062512755,-1.8941488826178012
1761507166681099300,4.759099365234375,12.183572024053335,2.2210680299967525,-2.441554801353067
1761507166701255400,4.77925537109375,11.873591882646084,2.7687384448871013,-2.6915447305694222
1761507166721412000,4.799412109375,11.189950278037786,3.406064580783248,-2.929480503246188
1761507166741568300,4.819568359375,10.3676787858963,4.247182519952952,-3.11851371332705
1761507166761725200,4.83972509765625,9.195441178917884,4.825742286364734,-2.986402121646702
1761507166781881300,4.85988134765625,8.11430540010035,5.237107457277179,-2.8676339956641197
1761507166802038300,4.880038330078125,6.874879339990019,4.244149143606424,-1.9622357458941637
1761507166822194400,4.9001943359375,3.066077423647046,1.2144447635889053,-1.0010516037553547
1761507166842350300,4.920350341796875,-3.266470232132077,-0.20661066008657217,-0.5566957251280545
1761507166862507300,4.94050732421875,-10.04904655147791,-0.8729083311840892,-1.833508097563684
1761507166882663200,4.9606630859375,-16.855860070979595,-3.3106399209871884,-2.2286508863411845
1761507166902820400,4.9808203125,-21.38906814851761,-4.752843054370582,-1.3518294733665883
1761507166922976300,5.000976318359375,-21.75725614874363,-5.939903844210505,-0.7303427847024053
1761507166943132700,5.021132568359375,-20.453178460502624,-5.6780286852806805,1.3049613392077386
1761507166963288600,5.04128857421875,-18.298510363608596,-5.7752609790205955,2.693011003729701
1761507166983445800,5.06144580078125,-15.294174233603476,-4.674504846192896,2.9590713393896815
1761507167003601700,5.0816015625,-10.579522378200291,-2.679390766917169,2.025073018079251
1761507167023758600,5.101758544921875,-5.525701111784577,-0.8787056192860007,0.6633284460283816
1761507167043914500,5.12191455078125,-0.9014268619209528,-0.12123305479139089,0.5586251588206738
1761507167064071700,5.14207177734375,2.7029291711539027,0.5572329007446766,-0.16095814879518
1761507167084227600,5.1622275390625,5.564098939239979,2.3566396990031,-1.3256925770692527
1761507167104384800,5.182384765625,8.081809490165114,3.6428853779554364,-2.5016361989587543
1761507167124540700,5.202540771484375,9.95277112007141,4.654287110811472,-2.2751196459189056
1761507167144697600,5.222697509765625,11.280166555535793,5.024349672737717,-2.0105359586827456
1761507167164853500,5.242853515625,11.838894663274287,4.970796946248412,-1.2837044700369238
1761507167185009700,5.263009765625,12.427388963723182,4.618635659454763,-1.2436023228816688
1761507167205166600,5.28316650390625,12.303504225379228,4.613083578285575,-1.4556228791877626
1761507167225322800,5.30332275390625,11.865247248148917,4.790659282545745,-1.491902107053995
1761507167245479700,5.323479736328125,11.316071397131681,4.8283472081661225,-1.6548856607295572
1761507167265635800,5.3436357421875,10.637047515451908,4.865716277095675,-1.069557715357095
1761507167285792500,5.36379248046875,9.13437091640532,5.724954687106609,0.8716077699795365
1761507167305948700,5.38394873046875,7.37169605821669,6.519630900835991,1.0643329664461314
1761507167326105600,5.404105712890625,3.8313410804092882,4.4550344122722745,1.2082511696457863
1761507167346261800,5.42426171875,0.6206576174288988,-0.5262959106892346,2.84967339155972
1761507167366418700,5.444418701171875,-2.9674750105977057,-3.053204790331423,2.606255095818639
1761507167386574800,5.464574951171875,-7.762946954122185,-5.833184175679087,3.131380209162831
1761507167406731500,5.4847314453125,-14.649120426064728,-6.932852805531025,2.794796722990274
1761507167426887700,5.5048876953125,-20.8096994038105,-6.5117948003828525,0.11113938466981052
1761507167447044600,5.525044677734375,-23.968507133603094,-5.702357655373215,-2.498738139429688
1761507167467200800,5.54520068359375,-22.79257067210674,-4.957199798050523,-2.1575028819285333
1761507167487356700,5.565356689453125,-16.837641692721842,-3.1223171972632406,-0.7227734454266727
1761507167507513900,5.585513916015625,-9.74609002509713,-2.2218401834130286,2.260176928330958
1761507167527669800,5.605669677734375,-2.604837630236149,-1.5738712190799413,3.200469527480006
1761507167547826700,5.62582666015625,2.371742575588822,1.6797605742670594,2.188642262688279
1761507167567982600,5.645982666015625,5.704200652891397,4.2327217406630515,0.8492618634629994
1761507167588139800,5.666139892578125,5.610467891705036,4.965189043238759,-0.8069703895699233
1761507167608295700,5.686295654296875,8.263850649401546,4.4363755967706435,-0.5345172110676765
1761507167628452900,5.706452880859375,11.669202113479376,4.114130724813044,0.9798050367828458
1761507167648608800,5.72660888671875,11.626554227364062,0.5867445341721177,2.9288877980500456
1761507167668765400,5.746765380859375,12.556404635214804,-0.18630305446460843,2.6349212183326483
1761507167688921600,5.766921630859375,14.217421784436702,-0.9853511996679007,2.852483772805333
1761507167709078500,5.78707861328125,13.264557580745219,-0.9804312789224088,1.6033040881827472
1761507167729234700,5.807234619140625,13.623113829272985,-1.3870064390793442,0.8742185369998217
1761507167749391600,5.8273916015625,12.717123604959248,-1.5973372887328265,0.5383334083549678
1761507167769547800,5.8475478515625,11.04663486303687,-1.0150311753995716,-0.2936806023828685
1761507167789703700,5.86770361328125,9.387281847634911,-1.0503644276525825,-0.33917511010095475
1761507167809860600,5.887860595703125,5.598121035829186,-1.5366022495239973,0.7839609045781195
1761507167830016500,5.9080166015625,-2.4957524016171693,-1.2284797186821699,1.4236737894803284
1761507167850173700,5.928173583984375,-10.395046100771426,-0.38599896672666073,2.208160763759166
1761507167870329600,5.94832958984375,-17.609643133306502,1.7884864680543542,-0.45760406725704666
1761507167890486800,5.96848681640625,-23.29131748161316,3.06666662171185,-1.474648336044699
1761507167910642700,5.988642578125,-25.88818223327398,4.693189672918617,-1.2601441462293266
1761507167930799000,6.008799072265625,-25.49632577269077,5.9158268030524255,-3.4228894588559866
1761507167950955300,6.028955322265625,-22.564581416165826,8.033316385152936,-3.4280040253907442
1761507167971112000,6.04911181640625,-14.563721777981518,9.360943291285633,-2.236690108150989
1761507167991268000,6.06926806640625,-11.490797849440574,0.2461030047804117,-4.297968119816482
1761507168011425000,6.089425048828125,-3.6271319285064934,-1.8864859467744826,-1.8216836581267415
1761507168031581200,6.109581298828125,2.557776603853702,-2.779224475327134,0.30751945038214323
1761507168051737000,6.129737060546875,7.47695792915523,-0.8991493454430252,1.4635187470041215
1761507168071894300,6.149894287109375,9.47701004935503,0.469756350408867,-1.0554759985126554
1761507168092050200,6.17005029296875,11.483374421441555,1.3419947464421391,-1.6366563226863742
1761507168112207000,6.19020703125,13.239060735917091,1.1343386689558626,-2.7079256642669436
1761507168132363000,6.210363037109375,14.468423667174577,-0.48961190141439437,-3.459766944876313
1761507168152520200,6.230520263671875,14.282579608523845,-2.5478081675469872,-3.651799336773157
1761507168172676000,6.250676025390625,13.729399782562256,-3.49804260725677,-3.1233363111779093
1761507168192833300,6.270833251953125,12.08271978625059,-2.750572089077532,-2.532692723740637
1761507168212989200,6.2909892578125,10.40542954761982,-1.9422721314042806,-2.608371357320249
1761507168233146000,6.31114599609375,8.12454447004199,-1.6338246063917874,-2.132517347623408
1761507168253302000,6.331302001953125,6.404554322847724,-2.63779969637841,-1.5304437268942594
1761507168273459200,6.351459228515625,4.5712516847282645,-1.8850825097173451,-1.3233052435413002
1761507168293615000,6.371614990234375,3.525639054712653,-1.122049826877564,-1.266725278185308
1761507168313772300,6.391772216796875,-0.6728127520799636,-2.426067163233459,1.2979215036988259
1761507168333928200,6.41192822265625,-7.2110758726716035,-2.8425013079732655,3.6702544463962314
1761507168354085000,6.432085205078125,-13.557692970335482,-0.8230626425191759,4.112940053723753
1761507168374241000,6.452240966796875,-19.494450333213805,-0.18931334219649432,4.218367928878963
1761507168394397000,6.47239697265625,-24.246148016941547,0.7761215892545879,5.257019195449352
1761507168414554000,6.49255419921875,-23.764859707236287,1.1138014923617243,5.027639946454763
1761507168434710000,6.5127099609375,-20.512463008642197,-0.004065934264659881,3.9902205597668883
1761507168454867200,6.5328671875,-14.494197575378417,0.7844070409104228,2.291568384155631
1761507168475023000,6.553023193359375,-7.479336348724365,2.1345430082321166,1.3769358575724064
1761507168495180000,6.573179931640625,-1.200442541721463,1.735878328938782,1.3457440159730611
1761507168515336000,6.5933359375,4.109947593909502,1.48611124869287,0.9278285466343164
1761507168535493000,6.6134931640625,7.537574018159508,1.5869851138055324,-0.3647027884587645
1761507168555649000,6.63364892578125,8.973865297150612,1.2636845953151583,-1.284705463773012
1761507168575806200,6.65380615234375,9.484746196565032,1.876776161403954,-1.44232062228322
1761507168595962000,6.673962158203125,10.137876343053579,2.4335601493373513,-0.8682106748871504
1761507168616119000,6.694119140625,9.714912212023139,1.8763310479849575,-0.1583765713367611
1761507168636275000,6.71427490234375,9.109345196220278,1.2084814712703227,-0.19025515309125185
1761507168656432000,6.73443212890625,8.42844616831839,1.7924381282895803,-0.3254372382581234
1761507168676588000,6.754588134765625,7.50788030616343,2.01874717605859,-0.49212527247481047
1761507168696744200,6.774744140625,7.336258834132551,2.3658076325818893,-0.530403930529952
1761507168716901000,6.794901123046875,7.2347080926716325,2.6758541172236203,-0.5299184120353311
1761507168737057300,6.815057373046875,7.620497800561785,3.0965967728123065,-0.7106256192542613
1761507168757214000,6.8352138671875,8.132641851779818,2.73592660087049,-1.5196245189771056
1761507168777370000,6.8553701171875,6.830954273545742,2.094444222077727,-2.3011297009661793
1761507168797527000,6.875527099609375,5.411460400098562,1.7481971277639268,-2.49450152477324
1761507168817683200,6.89568310546875,3.1937247293949125,0.444358216714859,0.5036179226741194
1761507168837840100,6.915840087890625,0.43815000972449775,-1.239447687420249,1.5959527025066316
1761507168857996300,6.935996337890625,-5.516504244372248,-1.066945633162558,1.107642092949152
1761507168878153000,6.956153076171875,-8.986609043389558,-0.6302867387786507,-0.26912330342717466
1761507168898309000,6.97630908203125,-13.822736237907408,-1.310062315608561,-0.6462288426674903
1761507168918466000,6.996466064453125,-15.721859547936916,-2.0804639197811485,0.1891923461653292
1761507168938622700,7.016622802734375,-16.13321332067251,-3.0718449011325832,0.5130170346602797
1761507168958779000,7.03677880859375,-14.797586647957562,-4.656869236259162,0.17767901850417256
1761507168978935800,7.056935791015625,-11.685237887001037,-5.892233161497116,1.5721370887637138
1761507168999091700,7.077091796875,-7.763259673333168,-4.614820485080778,2.1821642988458274
1761507169019248600,7.09724853515625,-3.242973036688566,-3.8036020096123218,2.2386245833449063
1761507169039404500,7.117404541015625,0.12961422190666197,-2.076864433984458,2.3918812543846664
1761507169059561700,7.137561767578125,3.5798628123313185,-0.8434775079078972,1.6496633960366247
1761507169079717600,7.157717529296875,5.488187665948272,0.10864099198281764,0.12307634457051753
1761507169099874800,7.177874755859375,6.513659425210952,0.03690174367874861,-0.6773238728288561
1761507169120030700,7.19803076171875,7.562742946207523,-0.08387406886443495,-0.9308071240536868
1761507169140187600,7.218187744140625,8.509642104014754,0.29874957621023057,-0.9180622818361968
1761507169160343600,7.238343505859375,8.734249316301941,0.5396819003544747,-0.8571098735496401
1761507169180500700,7.258500732421875,8.152419734439253,0.8209761916339396,-0.9097272188849747
1761507169200656600,7.27865673828125,8.062045051509141,1.3156947685375808,-1.1175174441449343
1761507169220813800,7.298813720703125,7.517720147654414,1.6067968987345695,-1.2969988358959554
1761507169240969700,7.3189697265625,6.2800581746071575,1.972920659907162,-0.6978883027561008
1761507169261126000,7.3391259765625,4.871640990969539,2.9206244120955467,-0.9196553231813013
1761507169281282600,7.359282470703125,3.9974171932727094,3.4767096041098235,-1.4481278472572565
1761507169301438700,7.379438720703125,3.537386191129684,3.191023069220781,-0.5042564397733659
1761507169321595600,7.399595703125,2.335973927593231,2.223096320953965,0.6423553622350097
1761507169341751800,7.419751708984375,0.5724596959710121,0.7376558111295104,1.0799131782200186
1761507169361908700,7.43990869140625,-2.491803371730447,-0.938334743079543,0.48321189817897975
1761507169382065000,7.46006494140625,-6.913866950032115,-2.744073374707997,-0.7865280516523867
1761507169402221600,7.4802216796875,-11.702399449682234,-5.244664740788936,1.5112509506464005
1761507169422377700,7.500377685546875,-13.720982667350768,-6.0744625367820255,3.4172990915030237
1761507169442534700,7.52053466796875,-14.594153156602381,-5.884097785836458,3.0919571303129194
1761507169462690800,7.54069091796875,-14.18434135261178,-3.4108901012435555,0.4784425648853183
1761507169482847700,7.56084765625,-12.774755125194787,-0.8203601055622101,-0.28654917960036547
1761507169503004000,7.58100390625,-7.204680618676543,0.31988983326405285,-0.06933211409710348
1761507169523159800,7.601159912109375,-1.7809399981975553,0.34247634360343215,0.38055721406415105
1761507169543316700,7.621316650390625,2.135540202575922,-0.5821551605552434,0.8454138827979564
1761507169563472600,7.64147265625,4.1396331225991245,1.1102657194510102,1.0460423266697674
1761507169583629800,7.6616298828125,5.5089878773927685,2.7374416816085576,1.8601016515873372
1761507169603785700,7.68178564453125,6.654001377359032,3.438687039707601,1.7028027194194495
1761507169623943000,7.70194287109375,7.225434068369865,2.2219746234476565,1.2019837798140942
1761507169644098800,7.722098876953125,7.7780445700109,0.44669455070793623,-0.12557616202961652
1761507169664255700,7.742255859375,7.876024467247724,-0.9479889988705515,-0.7001559554271399
1761507169684411600,7.76241162109375,8.207311016055941,-0.491479448851943,-0.8641085733305662
1761507169704568600,7.782568603515625,8.385631108942627,0.5309899137243628,-0.3591843903634697
1761507169724724700,7.802724853515625,8.169849592667818,1.374384565654397,0.4269444328382611
1761507169744880600,7.822880615234375,7.6476646244287485,1.8100988726645708,0.8213589804064482
1761507169765037800,7.843037841796875,7.168342061838508,1.7228817769825457,0.4512697862016037
1761507169785193700,7.86319384765625,6.599110680264234,1.1705462928906083,-0.3707292091414332
1761507169805350700,7.8833505859375,5.656197961744666,0.6718371850460767,-0.5983474763454869
1761507169825506600,7.903506591796875,3.667252926492691,-0.4461144127324223,-0.20978771922010928
1761507169845663700,7.923663818359375,0.8902969806194305,-1.911940706026554,0.38751481464970855
1761507169865819600,7.943819580078125,-3.3152468302607536,-1.760597467392683,1.0551531962990761
1761507169885976800,7.963976806640625,-8.732524976727365,-2.819258964073658,-1.6463718071453273
1761507169906132700,7.9841328125,-13.263937987542151,-5.174032869204878,-4.178814793908596
1761507169926290000,8.0042900390625,-13.506096054089069,-5.392400310319662,-3.6591909083291885
1761507169946445600,8.024445556640625,-13.46198569420576,-5.003334357237816,-3.2721631830766795
1761507169966601500,8.0446015625,-13.080503328120708,-3.4090292758077383,-3.9247733973443504
1761507169986758400,8.06475830078125,-10.699902323293685,-1.759821222323179,-0.6642079322766512
1761507170006914300,8.084914306640625,-6.549464313563704,-1.3479708982422947,1.6359630797252058
1761507170027071500,8.105071533203125,-1.8239374284029006,-0.8255550438567996,2.545858202522993
1761507170047227400,8.125227294921874,2.066217660024762,-0.2628879892341792,2.0058530615635215
1761507170067384600,8.145384521484376,4.344975077924132,0.8959867166936397,1.5941390772134065
1761507170087540500,8.16554052734375,5.428762832555175,1.7306902587763964,1.6182921062171458
1761507170107697400,8.185697509765625,5.944666528567671,1.7742822938740253,1.364133366883546
1761507170127853300,8.205853271484376,6.27126930347383,1.627736226388812,1.2022848085872828
1761507170148010200,8.22601025390625,6.759405871638656,0.7936218823708593,1.5239923587977886
1761507170168166400,8.24616650390625,7.448686358916759,-0.3859515473883599,1.4471179395623504
1761507170188322300,8.266322265625,7.733513354367017,-0.5479783117957413,1.2118761552099138
1761507170208479500,8.2864794921875,7.872555914354324,-0.0624430121704936,1.1392812399245797
1761507170228635400,8.306635498046875,7.63222038705945,0.1214154256209731,0.8480958884235471
1761507170248792300,8.326792236328124,7.584300698021054,0.38544469384476543,0.5899714968619868
1761507170268948200,8.3469482421875,7.614514634498954,0.16550167397633195,0.09861992130656726
1761507170289105400,8.36710546875,7.9334402989059685,-0.217936210090667,-0.8756019541822373
1761507170309261300,8.38726123046875,8.03233848003149,-1.2390265393987296,-1.3544376100383697
1761507170329419300,8.407419189453124,4.98902116972506,-1.3557017847552895,-2.2601664069369436
1761507170349576400,8.427576416015626,0.47972062199711796,-3.8030183645054696,-2.112719883480668
1761507170369732400,8.447732421875,-6.791894767311215,-6.051975979685783,-0.7433233353719115
1761507170389889500,8.4678896484375,-15.693199270641802,-6.326037250971794,-0.5159466583713889
1761507170410045400,8.48804541015625,-19.68732151402235,-0.8570315476164221,-1.903565822521597
1761507170430201300,8.508201416015625,-24.87373280328512,2.797371249653399,-1.765382948103547
1761507170450358300,8.528358154296875,-21.37281843998432,4.231839989392459,0.22078421993292865
1761507170470514200,8.54851416015625,-15.227293238985538,1.5244497471764682,2.0885519491687417
1761507170490671400,8.56867138671875,-9.58154009888768,-2.650960498985648,3.05671601332277
1761507170510827300,8.5888271484375,-4.186520545980334,-3.715514853097498,2.7815695771485567
1761507170530984400,8.608984375,-1.003850879085064,-2.079093800471723,2.4235509426288306
1761507170551140400,8.629140380859376,1.2747639154732227,-0.6416567124463617,1.0717396625060587
1761507170571297300,8.64929736328125,3.7472611137092113,-0.8649072494275868,-0.12472592014214023
1761507170591453400,8.669453369140625,6.725833856904506,-1.0630620697274804,-0.6115596803463995
1761507170611610400,8.6896103515625,8.337704405641555,-0.8891085014872252,-0.8456644234929234
1761507170631766300,8.709766357421875,9.702218150144814,-1.3137094399392604,-0.350346930848062
1761507170651922400,8.72992236328125,10.551017583727836,-1.8777539203949272,0.7416697229459881
1761507170672079400,8.750079345703124,10.864285076242684,-2.3755967667989433,1.1885254555650056
1761507170692235500,8.770235595703125,10.379855545902252,-1.789368511585891,0.8397760230414569
1761507170712392400,8.790392333984375,9.470647528585792,-0.7823726124733686,0.1920491603685543
1761507170732548400,8.81054833984375,8.8983170119524,-0.21986045615151523,-0.04049740268369205
1761507170752705300,8.830705322265626,8.929147619023919,0.21616715459153055,0.1817083470854908
1761507170772861400,8.850861328125,8.816630662390589,0.41041006214469666,0.35251791821159423
1761507170793018400,8.871018310546875,7.846700173085927,0.6781561589345335,0.3130362410422414
1761507170813174500,8.891174560546874,5.376908726677298,0.2672995220661163,0.666103609830141
1761507170833331500,8.91133154296875,1.2625778031170367,-0.9682803840100764,1.8062791682459414
1761507170853487400,8.9314873046875,-6.088923023810982,-3.14352365142107,1.213558482273668
1761507170873643500,8.9516435546875,-13.82806941562891,-2.987392301727831,-2.1462495203778147
1761507170893800200,8.97180029296875,-20.547770468866823,-2.5050942304581403,-1.1483294195812195
1761507170913956400,8.991956298828125,-22.323045280909536,-0.12776362560391424,-0.048671434420882724
1761507170934114000,9.012114013671875,-20.136362920117378,2.9179399953171608,-0.9546778289847075
1761507170954270000,9.03227001953125,-15.13457871493101,2.133609819035232,-0.2876364633804187
1761507170974427000,9.052427001953125,-8.562012342721223,-0.3687421269774437,0.5746353595096617
1761507170994582800,9.072582763671875,-3.0415836183816194,-1.2249622120805084,0.8315328030921518
1761507171014739700,9.09273974609375,1.1417512832999228,-0.38133565109074113,0.7849144059106707
1761507171034896000,9.112895751953126,4.875947163730859,-0.06179053961113095,0.5134955388922244
1761507171055051800,9.1330517578125,7.884643242511153,-0.9167473267801105,0.06396866910150274
1761507171075209000,9.153208984375,10.427781664681435,-1.5962093076162038,0.7653890367075801
1761507171095364900,9.17336474609375,11.41743801419735,-2.3616781315617263,1.6955144621074199
1761507171115521800,9.193521728515625,10.996042155396937,-2.5104411444440484,1.4985529432453215
1761507171135677700,9.213677734375,9.542706218102573,-2.099703457780182,0.6011150778952986
1761507171155835000,9.2338349609375,8.28929664082527,-0.7448996447779238,-0.012754779089614749
1761507171175990800,9.25399072265625,7.423505155909061,0.4271944620765745,0.32189843314010647
1761507171196148000,9.27414794921875,7.190481997454166,0.8995788959667086,0.33804340265728533
1761507171216303900,9.294303955078124,7.378108263346553,0.9452681956045329,-0.3115643053261563
1761507171236460000,9.3144599609375,7.702420296967029,0.5565840814471245,-0.832362897240743
1761507171256616700,9.33461669921875,7.823194209814071,0.5504631143487989,-0.5359432252828031
1761507171276772900,9.35477294921875,7.162362987428903,0.2596833479739725,0.24109531441992146
1761507171296929800,9.3749296875,5.596261671698093,-0.7667519956238568,1.387706111781299
1761507171317086000,9.3950859375,0.7177583937436341,-3.269463276468217,1.2350661113351582
1761507171337243000,9.415242919921875,-8.634825649997591,-3.523193415126204,0.19989930761335417
1761507171357399000,9.43539892578125,-18.877791430032254,-2.37404939122647,0.49713236004710193
1761507171377556000,9.455555908203126,-26.409087098574638,5.235894574356079,-1.9875101801432669
1761507171397712000,9.4757119140625,-28.634902030837534,5.797127942913771,-0.7906333680793642
1761507171417867800,9.49586767578125,-22.87185989739895,4.1883065526142715,-0.750322546609491
1761507171438024700,9.516024658203126,-15.286757819867134,0.7904330232016742,1.1839936573542653
1761507171458180900,9.536180908203125,-8.24560187600553,-1.412055540139973,1.8984319667644798
1761507171478337800,9.556337890625,-3.746898125615716,-1.2110440152347086,1.4598295370973646
1761507171498494000,9.576493896484376,-0.39674247905910015,-0.9751809571787714,0.04942518909736536
1761507171518651000,9.59665087890625,3.1003420968204733,-0.8158682009704411,-0.91479246638529
1761507171538807000,9.61680712890625,6.835090350437164,-0.9876242591664195,-1.092419681636989
1761507171558963700,9.636963623046874,10.277766459780931,-1.3022117482386528,-0.7672574609279632
1761507171579119900,9.657119873046875,12.829828777641056,-1.496579451215267,-0.5304564279021695
1761507171599275800,9.67727587890625,13.889796096223591,-1.5891769247613847,-0.3173914040444419
1761507171619433000,9.697432861328124,13.587590095949173,-1.491991538903117,-0.5144598173471168
1761507171639588900,9.7175888671875,12.269777312344312,-0.8756419939316809,-0.9308299204073845
1761507171659746000,9.73774609375,10.741762273901701,0.6055732994131744,-0.9399342872306704
1761507171679902000,9.75790185546875,9.73635539754629,2.0486711896792054,-0.5854025815112516
1761507171700059000,9.778058837890624,8.34690770279467,3.0061440562099215,-0.22801376932766287
1761507171720214800,9.79821484375,7.588226347032189,3.1909047035381195,-0.08767609149590135
1761507171740372000,9.8183720703125,6.940149392279982,2.5382541572600603,-0.11535904819145798
1761507171760528000,9.83852783203125,6.195211899709701,2.068662422828376,-0.009341098188608885
1761507171780683800,9.858683837890625,4.06403398399651,0.6518085424959659,0.24622706955149767
1761507171800841000,9.878841064453125,-0.1434334884226322,-1.58316643230021,1.416647251844406
1761507171820996900,9.898996826171874,-6.2771267973303795,-3.1451456996649503,0.9330993266440928
1761507171841153800,9.91915380859375,-12.960100002151727,-3.411621922649443,-0.9215191442918031
1761507171861309700,9.939309814453125,-17.607323750448227,-3.552668808196485,-2.0135732805520297
1761507171881467000,9.959466796875,-20.19478939012289,-2.30287186845839,-1.5528696398444473
1761507171901622800,9.979622802734376,-20.742240901565552,-0.04797755670547485,-1.9305111125923693
1761507171921780000,9.999780029296875,-18.46620618662834,0.012801613906025886,-1.0415397545535117
1761507171941935900,10.019935791015625,-13.442939632952212,-1.5882760303989052,1.3470828633613883
1761507171962091800,10.040091796875,-7.747673397144675,-2.7186577784225343,2.2977159469999373
1761507171982248700,10.060248779296876,-2.7005110040962697,-2.529903093022108,1.4557894679263232
1761507172002404600,10.080404541015625,0.9883645561397075,-1.5218921716481446,0.23853958378881215
1761507172022561800,10.100561767578125,4.362803580081462,-0.56000528806746,0.37503110758643593
1761507172042717700,10.1207177734375,7.530285030195117,0.3247898802652955,0.713640363965556
1761507172062875000,10.140875,9.824183318603039,1.3895941174849866,0.7423283329851925
1761507172083030800,10.16103076171875,11.205911232757568,1.9365610602810979,0.8075188902981579
1761507172103187700,10.181187744140624,11.982100188159942,1.9372741769865154,0.7757539980512111
1761507172123343600,10.201343505859375,12.115532507050037,2.2749986498877406,-0.3034710335078649
1761507172143499800,10.221499755859375,10.211910716557503,3.1090681318506594,0.06875225011622532
1761507172163656700,10.24165673828125,8.799178592330216,3.2866783229023215,0.6247799580559135
1761507172183812900,10.261812744140625,7.38870681425035,3.9860280765131115,0.3916764278411865
