time,seconds_elapsed,z,y,x
1761507162004801500,0.082801513671875,-0.500439465045929,-0.45862171053886414,1.0313591957092285
1761507162024958700,0.102958740234375,-0.37597906589508057,-0.43082043528556824,1.3747539520263672
1761507162045114600,0.123114501953125,-0.13783110678195953,-0.0502488911151886,1.4249975681304932
1761507162065271600,0.143271484375,-0.16708533465862274,0.5742013454437256,1.2131019830703735
1761507162085427500,0.163427490234375,-0.374228298664093,0.19728481769561768,1.056382656097412
1761507162105584600,0.183584716796875,-0.39137396216392517,-0.5285036563873291,0.9604402780532837
1761507162125740500,0.203740478515625,-0.48191794753074646,-0.8133485317230225,0.9509347677230835
1761507162145897700,0.223897705078125,-0.9963127970695496,-0.14185170829296112,0.7862674593925476
1761507162166053600,0.2440537109375,-1.493211030960083,0.2879678010940552,0.3438226580619812
1761507162186210600,0.26421044921875,-1.9040592908859253,0.7370396256446838,-0.5912834405899048
1761507162206366500,0.284366455078125,-2.21114182472229,1.0895726680755615,-1.7193464040756226
1761507162226522600,0.304522705078125,-2.0320708751678467,0.9364511966705322,-2.824998617172241
1761507162246679600,0.324679443359375,-1.5805491209030151,1.6007994413375854,-2.5777058601379395
1761507162266835700,0.344835693359375,-0.5650275945663452,0.6029219627380371,-1.8516680002212524
1761507162286992600,0.36499267578125,0.6149190664291382,-0.8424234390258789,-1.2016363143920898
1761507162307148800,0.385148681640625,0.9155783653259277,-1.828072190284729,-1.0049309730529785
1761507162327305500,0.405305419921875,0.7214813828468323,-1.9394768476486206,-0.6613594889640808
1761507162347461600,0.425461669921875,0.10623887926340103,-1.2875438928604126,0.09437026083469391
1761507162367618600,0.44561865234375,-0.4894331693649292,-0.5269399881362915,0.41000980138778687
1761507162387774700,0.465774658203125,-0.44743236899375916,-0.6540279388427734,0.33538833260536194
1761507162407931600,0.485931640625,0.26110318303108215,-1.9881672859191895,0.6028014421463013
1761507162428087800,0.506087890625,-0.26150578260421753,-3.458425998687744,0.5553337335586548
1761507162448244500,0.526244384765625,-0.6910526156425476,-4.674553394317627,1.1277356147766113
1761507162468400600,0.546400634765625,-0.8010470867156982,-3.9844186305999756,2.3637537956237793
1761507162488557600,0.5665576171875,-0.6952370405197144,-2.7537906169891357,2.6650171279907227
1761507162508713700,0.586713623046875,-0.12072093039751053,-1.3340611457824707,1.6239209175109863
1761507162528869600,0.60686962890625,-0.08175259083509445,-2.1547391414642334,-0.6669648885726929
1761507162549026800,0.62702685546875,-0.012576015666127205,-3.707289457321167,-2.616788387298584
1761507162569182700,0.6471826171875,0.29924771189689636,-3.269817590713501,-4.164388179779053
1761507162589339600,0.667339599609375,-0.3292577862739563,-1.1866670846939087,-4.725687026977539
1761507162609495600,0.68749560546875,-1.4206727743148804,0.27009397745132446,-4.027063369750977
1761507162629652500,0.707652587890625,-1.7207070589065552,0.4263565242290497,-3.2105789184570312
1761507162649808600,0.72780859375,-1.744612693786621,-0.379444420337677,-3.3699324131011963
1761507162669965600,0.747965576171875,-1.803099274635315,0.3397873342037201,-3.394660711288452
1761507162690121700,0.768121826171875,-1.7593073844909668,1.656641960144043,-3.0611469745635986
1761507162710278400,0.7882783203125,-1.4309059381484985,2.32641863822937,-2.2390377521514893
1761507162730434600,0.8084345703125,-1.3731837272644043,1.8922077417373657,-1.1165193319320679
1761507162750591500,0.828591552734375,-1.472225546836853,1.2380281686782837,-0.028363266959786415
1761507162770747600,0.84874755859375,-1.3410214185714722,1.0350680351257324,0.6164716482162476
1761507162790904600,0.868904541015625,-1.1077347993850708,0.926469087600708,0.8391708135604858
1761507162811060700,0.889060791015625,-0.9077054858207703,0.7565525770187378,0.9250755310058594
1761507162831216600,0.909216552734375,-0.7927468419075012,0.8691158294677734,1.25424063205719
1761507162851373600,0.92937353515625,-0.6740022301673889,1.0822958946228027,1.7759605646133423
1761507162871529500,0.949529541015625,-0.5870394706726074,1.2086975574493408,2.27150297164917
1761507162891686700,0.969686767578125,-0.37308040261268616,0.9428530931472778,2.7059080600738525
1761507162911842600,0.989842529296875,0.11025615781545639,0.0824204683303833,2.9280030727386475
1761507162931995600,1.00999560546875,0.4658074975013733,0.044003549963235855,3.834425687789917
1761507162952151800,1.03015185546875,0.2075941413640976,-0.4141162931919098,4.9352617263793945
1761507162972308700,1.050308837890625,0.07651285827159882,-0.5783073306083679,5.721797943115234
1761507162992465000,1.07046484375,0.4455356001853943,0.5737662315368652,5.4065093994140625
1761507163012621600,1.09062158203125,0.7646148204803467,2.2389638423919678,4.1566267013549805
1761507163032777700,1.11077783203125,0.7061563730239868,3.41951060295105,2.9529526233673096
1761507163052934700,1.1309345703125,0.595617949962616,3.655364990234375,2.0468497276306152
1761507163073090800,1.1510908203125,0.5616301894187927,3.414238214492798,1.1686146259307861
1761507163093246700,1.171246826171875,0.6498206257820129,2.885112762451172,0.21975554525852203
1761507163113404000,1.19140380859375,0.5293344855308533,1.7289412021636963,-0.5509830117225647
1761507163133559800,1.211559814453125,-0.1828501671552658,0.6528102159500122,-1.2837023735046387
1761507163153716700,1.231716796875,-0.7769041657447815,0.14642100036144257,-1.9944498538970947
1761507163173872600,1.25187255859375,-0.8238322734832764,0.18521122634410858,-2.1774041652679443
1761507163194029800,1.27202978515625,-0.6815524101257324,0.5623912811279297,-1.8905521631240845
1761507163214185700,1.292185791015625,-0.6707057952880859,0.9594950675964355,-1.4664170742034912
1761507163234343000,1.312343017578125,-0.8379483222961426,0.8568918704986572,-1.1641861200332642
1761507163254498800,1.332498779296875,-1.082728385925293,0.4212852418422699,-1.0180891752243042
1761507163274655700,1.35265576171875,-1.2213101387023926,0.02322077378630638,-0.7973272800445557
1761507163294811600,1.372811767578125,-1.2366058826446533,-0.22693701088428497,-0.3946811854839325
1761507163314968800,1.39296875,-1.050093173980713,-0.30782338976860046,0.24823731184005737
1761507163335124700,1.413124755859375,-0.8357176780700684,-0.3488951027393341,0.6150737404823303
1761507163355280600,1.43328076171875,-0.7382639050483704,-0.0838172435760498,0.5834076404571533
1761507163375437800,1.453437744140625,-0.6452437043190002,0.6894856691360474,0.5187187790870667
1761507163395593700,1.47359375,-0.5665770173072815,1.3492650985717773,0.2377060055732727
1761507163415750700,1.493750732421875,-0.17518816888332367,1.426632046699524,-0.12104269117116928
1761507163435906600,1.513906494140625,0.2534344792366028,0.5901070833206177,-0.4580773413181305
1761507163456063700,1.534063720703125,0.551776647567749,0.6563795208930969,-0.08931361138820648
1761507163476219600,1.5542197265625,0.6323617696762085,1.241676688194275,0.3519550561904907
1761507163496376800,1.574376953125,0.8173549771308899,1.462178111076355,0.1515442132949829
1761507163516532700,1.59453271484375,0.8207631707191467,1.0704344511032104,-0.4683350920677185
1761507163536689700,1.614689697265625,0.6170424222946167,0.7425183057785034,-0.9594300389289856
1761507163556845600,1.634845458984375,0.25449690222740173,0.22951646149158478,-1.5884840488433838
1761507163577002800,1.655002685546875,-0.00895654782652855,-0.17755362391471863,-2.193862199783325
1761507163597158700,1.67515869140625,-0.017744170501828194,-0.26605454087257385,-2.308093786239624
1761507163617315800,1.69531591796875,0.2555794417858124,-0.03397418558597565,-1.863092303276062
1761507163637471700,1.7154716796875,0.8590766787528992,0.18005433678627014,-1.0119457244873047
1761507163657628000,1.7356279296875,1.2694604396820068,0.1304631531238556,-0.020106106996536255
1761507163677784600,1.75578466796875,1.1329927444458008,-0.041660573333501816,0.6419709920883179
1761507163697940700,1.775940673828125,0.5674735903739929,0.266061931848526,0.9525756239891052
1761507163718097700,1.79609765625,0.23425820469856262,0.6387308239936829,1.0736020803451538
1761507163738253800,1.81625390625,0.4593955874443054,0.37439948320388794,0.9997525811195374
1761507163758410800,1.83641064453125,0.631624162197113,-0.0006725238636136055,0.7193211317062378
1761507163778567000,1.85656689453125,0.6994867324829102,-0.3348816931247711,0.16123957931995392
1761507163798723600,1.8767236328125,0.4699792265892029,-0.5478568077087402,-0.5333524346351624
1761507163818879700,1.896879638671875,-0.008472073823213577,-0.5402600169181824,-1.3077943325042725
1761507163839036700,1.91703662109375,-0.25661587715148926,-0.7008528113365173,-1.9020181894302368
1761507163859192800,1.93719287109375,-0.05316026136279106,-1.0415349006652832,-1.1974472999572754
1761507163879349800,1.957349853515625,0.3548331558704376,-0.9013143181800842,-0.09859807044267654
1761507163899506000,1.977505859375,0.5330636501312256,-1.7808641195297241,0.1832222044467926
1761507163919662600,1.99766259765625,0.13516120612621307,-1.6945743560791016,0.39855268597602844
1761507163939822000,2.017822021484375,-0.09535729140043259,-0.31206756830215454,1.2248799800872803
1761507163959978000,2.03797802734375,0.25868961215019226,0.3586249053478241,0.9230092167854309
1761507163980135000,2.058135009765625,0.7701160907745361,0.7325617671012878,-0.03099675104022026
1761507164000290800,2.078290771484375,0.8680077195167542,1.135670781135559,-0.8038860559463501
1761507164020448000,2.098447998046875,0.6881037354469299,1.640303373336792,-1.1162582635879517
1761507164040604000,2.11860400390625,0.4944368898868561,1.8802087306976318,-1.1094766855239868
1761507164060761000,2.138760986328125,0.24426962435245514,1.456708550453186,-0.9684240221977234
1761507164080917000,2.1589169921875,0.12416163086891174,0.5104133486747742,-0.637087881565094
1761507164101074000,2.179073974609375,0.015293987467885017,0.38273629546165466,-0.35289743542671204
1761507164121229800,2.199229736328125,0.19102901220321655,-0.04346287250518799,-0.059852633625268936
1761507164141387000,2.219386962890625,0.5218867659568787,0.38016462326049805,0.10455919057130814
1761507164161543000,2.23954296875,0.4794612228870392,1.0649688243865967,0.15155723690986633
1761507164181700000,2.2597001953125,-0.08623309433460236,1.3997161388397217,0.09056836366653442
1761507164201856000,2.27985595703125,-0.28542739152908325,1.1408652067184448,-0.04708262160420418
1761507164222012000,2.300011962890625,-0.12349764257669449,0.3646652400493622,-0.3211078643798828
1761507164242168800,2.3201689453125,-0.10894577950239182,-0.16449905931949615,-0.5705536603927612
1761507164262324700,2.34032470703125,-0.3677913248538971,-0.28261980414390564,-0.3583803176879883
1761507164282482000,2.36048193359375,-0.45992884039878845,-0.1995508372783661,-0.11226518452167511
1761507164302637800,2.380637939453125,-0.2587885856628418,-0.010030173696577549,-0.0064276037737727165
1761507164322795000,2.400794921875,0.08189425617456436,0.319846510887146,-0.010258512571454048
1761507164342951000,2.420950927734375,0.4460431635379791,0.5144230723381042,-0.13974705338478088
1761507164363107800,2.44110791015625,0.47216567397117615,0.19170834124088287,-0.07578963786363602
1761507164383263700,2.461263671875,0.3579392433166504,-0.45465555787086487,0.4092633128166199
1761507164403421000,2.4814208984375,0.430868536233902,-0.7365592122077942,1.0588899850845337
1761507164423576800,2.501576904296875,0.3205290138721466,-0.8357461094856262,0.7272613048553467
1761507164443734000,2.521734130859375,0.45703691244125366,-0.6297181248664856,0.18966926634311676
1761507164463890000,2.541889892578125,0.6720271110534668,-1.055259346961975,-0.43523892760276794
1761507164484046800,2.562046875,0.13412651419639587,-1.6370456218719482,-1.8379642963409424
1761507164504202800,2.58220263671875,-0.22828121483325958,-0.7730986475944519,-2.308290719985962
1761507164524359000,2.60235888671875,-0.16706483066082,-0.04306262731552124,-1.712648630142212
1761507164544515800,2.622515869140625,-0.0587770901620388,-0.3816550374031067,-1.119848608970642
1761507164564672000,2.642672119140625,0.13013499975204468,-1.1768817901611328,-0.7360439896583557
1761507164584829000,2.662828857421875,0.18510085344314575,-0.4289928078651428,-1.9602406024932861
1761507164604985000,2.682985107421875,1.0953330993652344,2.5262248516082764,-7.0179595947265625
1761507164625141800,2.703141845703125,1.7105562686920166,-0.4954524636268616,-6.588939666748047
1761507164645298000,2.7232978515625,1.5116740465164185,0.6635658740997314,-3.789641857147217
1761507164665454800,2.743454833984375,0.06086460128426552,2.8398680686950684,-0.3357252776622772
1761507164685611000,2.763611083984375,-0.2458246350288391,1.4638086557388306,0.6971147060394287
1761507164705768000,2.783767822265625,0.06805460155010223,1.006701946258545,0.15951082110404968
1761507164725924000,2.803924072265625,0.00522599508985877,1.1760817766189575,-0.7713812589645386
1761507164746080800,2.824080810546875,-0.012546665966510773,1.5475106239318848,-0.5794551372528076
1761507164766237000,2.84423681640625,0.0290732029825449,1.6731770038604736,0.6846930980682373
1761507164786393900,2.864393798828125,0.051334187388420105,1.0573830604553223,1.9778438806533813
1761507164806550000,2.884550048828125,0.07656434178352356,-0.07236587256193161,2.84794282913208
1761507164826706000,2.904705810546875,-0.002722043078392744,-0.9499857425689697,3.362560749053955
1761507164846862800,2.92486279296875,-0.253745973110199,-1.1473153829574585,3.6943516731262207
1761507164867019000,2.94501904296875,-0.4413619637489319,-0.7817614078521729,3.9050023555755615
1761507164887175700,2.96517578125,-0.545369029045105,-0.7258859872817993,3.4317057132720947
1761507164907331800,2.985331787109375,-0.6341603398323059,-1.266020655632019,2.377593517303467
1761507164927485200,3.005485107421875,-0.29082804918289185,-2.0500080585479736,2.194674491882324
1761507164947641300,3.025641357421875,-0.4427454173564911,-1.9346405267715454,2.2002859115600586
1761507164967798300,3.04579833984375,0.10373246669769287,-1.8546079397201538,1.2206777334213257
1761507164987954400,3.065954345703125,1.2459421157836914,-0.8703539371490479,0.5156654119491577
1761507165008111400,3.086111328125,1.7135711908340454,-0.40524935722351074,-0.13698621094226837
1761507165028267300,3.106267333984375,0.9332544207572937,-0.46278220415115356,-1.0408977270126343
1761507165048424200,3.126424072265625,0.22642666101455688,-1.086340308189392,-1.8396018743515015
1761507165068580400,3.146580322265625,0.1637769341468811,-0.8964276909828186,-1.7446140050888062
1761507165088737300,3.1667373046875,-0.07794474065303802,-0.38975194096565247,-1.573718547821045
1761507165108893400,3.1868935546875,-0.3488951325416565,0.20219090580940247,-1.5878790616989136
1761507165129050400,3.20705029296875,-0.5560599565505981,0.7358201742172241,-1.369138240814209
1761507165149206300,3.227206298828125,-0.45945507287979126,1.110897421836853,-0.9118221402168274
1761507165169362400,3.247362548828125,-0.41167721152305603,1.415807843208313,-0.4600481390953064
1761507165189519000,3.26751904296875,-0.37760648131370544,1.736924171447754,-0.23663432896137238
1761507165209675300,3.28767529296875,-0.37601420283317566,1.8952492475509644,-0.2249429076910019
1761507165229832200,3.307832275390625,-0.5956019163131714,1.7220104932785034,-0.3617207705974579
1761507165249988400,3.32798828125,-0.7584611177444458,1.4526612758636475,-0.26662805676460266
1761507165270145300,3.348145263671875,-0.7409761548042297,1.055283784866333,0.13950449228286743
1761507165290301400,3.368301513671875,-0.5767988562583923,0.5857637524604797,0.6638467907905579
1761507165310458000,3.3884580078125,-0.4175843298435211,0.15526296198368073,1.1477760076522827
1761507165330614300,3.4086142578125,-0.3035205006599426,-0.1668231040239334,1.4396756887435913
1761507165350771200,3.428771240234375,-0.13812509179115295,-0.21356254816055298,1.5553686618804932
1761507165370927400,3.44892724609375,0.06922666728496552,-0.5593119263648987,1.3539005517959595
1761507165391084300,3.469084228515625,0.1557980626821518,-1.518706202507019,1.3314334154129028
1761507165411240400,3.489240478515625,0.25410783290863037,-2.349344253540039,2.154752731323242
1761507165431397000,3.509397216796875,0.5258726477622986,-2.480027437210083,2.743910789489746
1761507165451553300,3.52955322265625,0.9454525113105774,-2.1949617862701416,1.4954497814178467
1761507165471709200,3.549709228515625,1.053086280822754,-1.3757697343826294,-0.09559625387191772
1761507165491866400,3.569866455078125,1.3546537160873413,-0.1580430567264557,-0.1570015400648117
1761507165512022300,3.590022216796875,1.7112504243850708,0.06587524712085724,0.39033642411231995
1761507165532179500,3.610179443359375,1.4531282186508179,-0.0731922909617424,0.14942988753318787
1761507165552335400,3.63033544921875,1.1699049472808838,-0.024496234953403473,-0.7285902500152588
1761507165572492300,3.6504921875,1.206111192703247,0.6198722720146179,-1.3337374925613403
1761507165592648200,3.670648193359375,1.3162108659744263,1.614095687866211,-1.4900888204574585
1761507165612805400,3.690805419921875,1.3513836860656738,2.3679540157318115,-1.36720871925354
1761507165632961300,3.710961181640625,1.3034648895263672,2.222100019454956,-1.0350247621536255
1761507165653118500,3.731118408203125,1.2350964546203613,1.6536117792129517,-0.37542521953582764
1761507165673274400,3.7512744140625,0.7779508829116821,0.7394518852233887,-0.14944590628147125
1761507165693431300,3.771431396484375,0.12027788162231445,-0.02703862637281418,-0.3649153411388397
1761507165713587200,3.791587158203125,-0.255998432636261,-0.2941111624240875,-0.2641091048717499
1761507165733744400,3.811744384765625,-0.3361193835735321,-0.24891261756420135,0.003017773386090994
1761507165753900300,3.831900390625,-0.351884126663208,-0.19892649352550507,0.06111491471529007
1761507165774057500,3.852057373046875,-0.3798024654388428,-0.10439649224281311,0.08291135728359222
1761507165794213400,3.87221337890625,-0.350864976644516,0.014111748896539211,0.3384701907634735
1761507165814369300,3.892369384765625,-0.2087087482213974,0.4137571156024933,0.6993798613548279
1761507165834526200,3.912526123046875,0.04413257911801338,0.7848020792007446,1.0183075666427612
1761507165854682000,3.93268212890625,0.18504388630390167,0.6505773663520813,1.2001562118530273
1761507165874839300,3.95283935546875,-0.03271383047103882,-0.053748808801174164,1.4163012504577637
1761507165894995200,3.9729951171875,-0.016394956037402153,-0.22747747600078583,2.713120460510254
1761507165915152400,3.99315234375,-0.03323918208479881,-0.4552816152572632,3.169560194015503
1761507165935309000,4.01330908203125,0.10741191357374191,-0.2795804440975189,2.796644449234009
1761507165955466200,4.03346630859375,0.1982247233390808,0.20419615507125854,1.853869915008545
1761507165975622100,4.0536220703125,0.2676360607147217,0.7433770298957825,1.2645961046218872
1761507165995779300,4.073779296875,0.2741376459598541,0.794083297252655,1.133151888847351
1761507166015935200,4.093935302734375,0.015355093404650688,0.689599871635437,0.7219746708869934
1761507166036092200,4.114092041015625,-0.07582347095012665,0.8050651550292969,0.15404467284679413
1761507166056248000,4.134248046875,-0.10508988052606583,0.6374461054801941,-0.39905011653900146
1761507166076405200,4.1544052734375,-0.367121160030365,0.5223261117935181,-0.7613511085510254
1761507166096561200,4.17456103515625,-0.5596770644187927,0.6813178062438965,-0.941933274269104
1761507166116718300,4.19471826171875,-0.2578115463256836,0.5003023147583008,-0.7295476198196411
1761507166136874200,4.214874267578125,0.33347421884536743,-0.17864830791950226,0.2312103658914566
1761507166157031400,4.235031494140625,0.7189981937408447,-1.2850569486618042,1.4833735227584839
1761507166177187300,4.255187255859375,0.8074106574058533,-2.466154098510742,2.6532609462738037
1761507166197343200,4.27534326171875,0.5642012357711792,-3.2063684463500977,3.003035068511963
1761507166217500200,4.295500244140625,0.5072017312049866,-2.5616815090179443,2.104943037033081
1761507166237656300,4.31565625,0.7349674105644226,-1.0665316581726074,0.25915998220443726
1761507166257813200,4.335813232421875,1.0567657947540283,0.24273023009300232,-0.9733739495277405
1761507166277969400,4.355969482421875,0.8950197696685791,0.663200318813324,-1.3815363645553589
1761507166298126300,4.376126220703125,0.4653291404247284,0.36647188663482666,-1.2790583372116089
1761507166318282200,4.3962822265625,0.529374897480011,-0.1182793453335762,-0.7714060544967651
1761507166338439200,4.416439208984375,0.8732019662857056,-0.6479019522666931,-0.3359687030315399
1761507166358595300,4.43659521484375,0.9543439149856567,-0.9382219910621643,-0.30785423517227173
1761507166378752300,4.456752197265625,0.7790772914886475,-0.8501474857330322,-0.47686395049095154
1761507166398908400,4.476908447265625,0.4267374575138092,-0.3097025156021118,-0.2302369773387909
1761507166419065300,4.4970654296875,0.40223363041877747,0.09532339870929718,0.25276806950569153
1761507166439221500,4.517221435546875,0.5806275010108948,-0.16701973974704742,-0.2785232961177826
1761507166459378200,4.537378173828125,0.28791260719299316,-0.29081273078918457,-0.9573620557785034
1761507166479534300,4.557534423828125,0.2074594497680664,0.5523184537887573,-0.9219043850898743
1761507166499691300,4.577691162109375,-0.9795233011245728,5.328553199768066,-2.833188533782959
1761507166519847400,4.597847412109375,-0.11799070984125137,1.7927368879318237,-1.6065921783447266
1761507166540003300,4.61800341796875,-0.21801185607910156,0.07511508464813232,-0.14241579174995422
1761507166560160500,4.638160400390625,-0.43629270792007446,-1.5068683624267578,0.8114346265792847
1761507166580316400,4.65831640625,-0.11235830187797546,-0.6568461656570435,0.37192776799201965
1761507166600473300,4.678473388671875,0.6711494326591492,0.8638910055160522,-0.23841819167137146
1761507166620629200,4.698629150390625,0.9634667038917542,1.25541353225708,-0.2691934406757355
1761507166640786200,4.7187861328125,0.9020199775695801,0.7133507132530212,0.21244314312934875
1761507166660942300,4.7389423828125,0.7115424275398254,0.21181368827819824,0.41430771350860596
1761507166681099300,4.759099365234375,0.48543238639831543,-0.016732247546315193,0.23917967081069946
1761507166701255400,4.77925537109375,0.26036879420280457,-0.059507112950086594,-0.239122211933136
1761507166721412000,4.799412109375,0.04621143266558647,0.024028806015849113,-0.733479917049408
1761507166741568300,4.819568359375,-0.19819851219654083,0.2391597479581833,-1.0217722654342651
1761507166761725200,4.83972509765625,-0.39960670471191406,0.27349257469177246,-0.9586448669433594
1761507166781881300,4.85988134765625,-0.43501266837120056,0.019486241042613983,-0.7245022058486938
1761507166802038300,4.880038330078125,-0.15042637288570404,-0.5392029881477356,-0.48026615381240845
1761507166822194400,4.9001943359375,0.5218049883842468,-1.6502165794372559,-0.7230737209320068
1761507166842350300,4.920350341796875,1.2002936601638794,-3.0615248680114746,-0.9971027374267578
1761507166862507300,4.94050732421875,1.0568667650222778,-2.757704257965088,-0.047999873757362366
1761507166882663200,4.9606630859375,0.2990874946117401,-1.3094476461410522,0.8451282978057861
1761507166902820400,4.9808203125,-0.20840896666049957,-0.06983497738838196,0.5857755541801453
1761507166922976300,5.000976318359375,-0.07535787671804428,0.43078485131263733,-0.3528209924697876
1761507166943132700,5.021132568359375,-0.03416026011109352,0.49893298745155334,-0.8466674089431763
1761507166963288600,5.04128857421875,-0.27560317516326904,0.3592785894870758,-0.559926450252533
1761507166983445800,5.06144580078125,-0.7331546545028687,0.20019981265068054,-0.22101564705371857
1761507167003601700,5.0816015625,-0.9533888101577759,0.2686598002910614,0.25101110339164734
1761507167023758600,5.101758544921875,-0.8093128204345703,0.2441531866788864,0.6115404367446899
1761507167043914500,5.12191455078125,-0.8138220906257629,0.16593524813652039,0.6856272220611572
1761507167064071700,5.14207177734375,-0.9243701100349426,0.1834951490163803,0.6124826669692993
1761507167084227600,5.1622275390625,-0.8394100666046143,0.5202210545539856,0.6514852643013
1761507167104384800,5.182384765625,-0.34222865104675293,0.9208133220672607,0.9252002835273743
1761507167124540700,5.202540771484375,-0.11136902868747711,1.2153688669204712,1.1542315483093262
1761507167144697600,5.222697509765625,-0.14950203895568848,1.2002416849136353,1.144544243812561
1761507167164853500,5.242853515625,-0.2206796109676361,0.6325751543045044,0.9104386568069458
1761507167185009700,5.263009765625,-0.18483643233776093,0.27372732758522034,0.8452824354171753
1761507167205166600,5.28316650390625,-0.14839482307434082,0.3598933517932892,0.7245015501976013
1761507167225322800,5.30332275390625,-0.31033363938331604,0.6145548820495605,0.32657507061958313
1761507167245479700,5.323479736328125,-0.6046309471130371,0.8764011859893799,-0.2161554992198944
1761507167265635800,5.3436357421875,-0.9810855984687805,0.831574022769928,-0.7037087678909302
1761507167285792500,5.36379248046875,-1.4220175743103027,0.492622435092926,-1.0137938261032104
1761507167305948700,5.38394873046875,-1.066032886505127,0.4593610167503357,-1.2981722354888916
1761507167326105600,5.404105712890625,-0.1607215255498886,1.0654264688491821,-2.2944552898406982
1761507167346261800,5.42426171875,0.6589685678482056,1.7307541370391846,-3.211989402770996
1761507167366418700,5.444418701171875,1.2146015167236328,1.0431848764419556,-2.398540735244751
1761507167386574800,5.464574951171875,1.19659423828125,-0.6354603171348572,-0.7566341757774353
1761507167406731500,5.4847314453125,0.31817424297332764,-2.7328364849090576,-0.48105061054229736
1761507167426887700,5.5048876953125,-0.641046941280365,-3.6072638034820557,-0.8360716700553894
1761507167447044600,5.525044677734375,-0.8573662042617798,-2.1841397285461426,-0.8436250686645508
1761507167467200800,5.54520068359375,-0.5995961427688599,-0.591193437576294,-0.6732950806617737
1761507167487356700,5.565356689453125,-0.3369983732700348,-0.2947482168674469,-0.17134353518486023
1761507167507513900,5.585513916015625,-0.3418238162994385,-1.4580209255218506,0.1629459261894226
1761507167527669800,5.605669677734375,-0.15603168308734894,-3.1963164806365967,0.551439642906189
1761507167547826700,5.62582666015625,0.10425671190023422,-3.7284388542175293,1.1165940761566162
1761507167567982600,5.645982666015625,-0.3433813452720642,-2.3253366947174072,1.0326536893844604
1761507167588139800,5.666139892578125,-0.2562437057495117,-1.220794916152954,0.21508818864822388
1761507167608295700,5.686295654296875,0.5270761251449585,-0.049587853252887726,-0.41204896569252014
1761507167628452900,5.706452880859375,0.9208086133003235,1.6790012121200562,-0.9081834554672241
1761507167648608800,5.72660888671875,0.5978872179985046,2.327695608139038,-1.4037864208221436
1761507167668765400,5.746765380859375,0.09624109417200089,2.284879446029663,-1.4468451738357544
1761507167688921600,5.766921630859375,-0.49635255336761475,1.4207390546798706,-0.9966091513633728
1761507167709078500,5.78707861328125,-0.6556104421615601,0.7644945383071899,-1.6281559467315674
1761507167729234700,5.807234619140625,-0.6510865092277527,1.3774887323379517,-2.972557783126831
1761507167749391600,5.8273916015625,-0.5082902312278748,2.3475053310394287,-3.802288293838501
1761507167769547800,5.8475478515625,-0.19062931835651398,2.334916353225708,-3.606590509414673
1761507167789703700,5.86770361328125,-0.19490812718868256,1.4958457946777344,-2.508061408996582
1761507167809860600,5.887860595703125,-0.6901748776435852,0.30026713013648987,-1.1939737796783447
1761507167830016500,5.9080166015625,-1.2031269073486328,-1.8561004400253296,-0.665288507938385
1761507167850173700,5.928173583984375,-1.4457188844680786,-2.970743179321289,0.26555773615837097
1761507167870329600,5.94832958984375,-1.2140440940856934,-2.6599667072296143,1.5746076107025146
1761507167890486800,5.96848681640625,-0.16504397988319397,-0.8720453381538391,2.3086349964141846
1761507167910642700,5.988642578125,0.40840214490890503,-0.036915771663188934,1.9839266538619995
1761507167930799000,6.008799072265625,0.6646530032157898,-0.10658308863639832,1.1474528312683105
1761507167950955300,6.028955322265625,0.3844556510448456,-0.4500921368598938,1.6999763250350952
1761507167971112000,6.04911181640625,0.03674332797527313,1.0165200233459473,3.091918468475342
1761507167991268000,6.06926806640625,0.9594773650169373,2.2185254096984863,1.9010127782821655
1761507168011425000,6.089425048828125,1.1244409084320068,2.3536205291748047,-0.031939659267663956
1761507168031581200,6.109581298828125,0.8253024220466614,1.7341580390930176,-0.9444611668586731
1761507168051737000,6.129737060546875,0.278790146112442,0.9164100885391235,-0.2468845397233963
1761507168071894300,6.149894287109375,0.2267330288887024,0.27170106768608093,0.5002476572990417
1761507168092050200,6.17005029296875,0.3790811002254486,0.9456181526184082,0.37912189960479736
1761507168112207000,6.19020703125,0.5239396691322327,2.3846518993377686,-0.478114515542984
1761507168132363000,6.210363037109375,0.5001981854438782,3.0450727939605713,-1.361183524131775
1761507168152520200,6.230520263671875,0.11472681909799576,2.731619119644165,-1.7317062616348267
1761507168172676000,6.250676025390625,-0.6515219807624817,1.7322094440460205,-1.0866758823394775
1761507168192833300,6.270833251953125,-1.2703338861465454,0.5618090033531189,-0.1494501531124115
1761507168212989200,6.2909892578125,-1.280316948890686,-0.04707491025328636,0.12166853994131088
1761507168233146000,6.31114599609375,-1.1132866144180298,-0.04951880872249603,-0.5464913845062256
1761507168253302000,6.331302001953125,-0.7080228328704834,0.08054984360933304,-1.0970338582992554
1761507168273459200,6.351459228515625,-0.2963510751724243,-0.3535693883895874,-0.37274444103240967
1761507168293615000,6.371614990234375,0.2033645659685135,-0.7745456099510193,1.6582611799240112
1761507168313772300,6.391772216796875,0.3590107262134552,-1.533929705619812,2.6008825302124023
1761507168333928200,6.41192822265625,0.13530929386615753,-2.480578660964966,2.2405965328216553
1761507168354085000,6.432085205078125,-0.09483873844146729,-2.8575005531311035,2.927192211151123
1761507168374241000,6.452240966796875,-0.05956682935357094,-1.8231499195098877,3.928955078125
1761507168394397000,6.47239697265625,0.20502105355262756,-0.6091499924659729,3.6465225219726562
1761507168414554000,6.49255419921875,0.7687042951583862,-0.19503790140151978,2.8732898235321045
1761507168434710000,6.5127099609375,0.7742363214492798,-0.4402015805244446,1.8233641386032104
1761507168454867200,6.5328671875,-0.23149941861629486,-0.45557212829589844,0.7877457737922668
1761507168475023000,6.553023193359375,-0.7027632594108582,-0.5789762139320374,0.29906708002090454
1761507168495180000,6.573179931640625,-0.48499661684036255,-0.8870223164558411,0.15943773090839386
1761507168515336000,6.5933359375,-0.3674256503582001,-1.432350516319275,0.04995240271091461
1761507168535493000,6.6134931640625,-0.4140149652957916,-1.844075322151184,-0.279429167509079
1761507168555649000,6.63364892578125,-0.5226969122886658,-1.3387606143951416,-0.795804500579834
1761507168575806200,6.65380615234375,-0.4175871014595032,-0.4800246059894562,-0.514142632484436
1761507168595962000,6.673962158203125,-0.14495381712913513,-0.061641350388526917,0.2755661904811859
1761507168616119000,6.694119140625,0.04053378477692604,-0.011121446266770363,0.7655577063560486
1761507168636275000,6.71427490234375,-0.16690078377723694,0.09566421061754227,0.8689850568771362
1761507168656432000,6.73443212890625,-0.37627658247947693,0.270291268825531,0.8292340040206909
1761507168676588000,6.754588134765625,-0.3889255225658417,0.3689582049846649,0.5383774042129517
1761507168696744200,6.774744140625,-0.2021133005619049,0.5440930128097534,0.3330841660499573
1761507168716901000,6.794901123046875,-0.01976354420185089,0.5151619911193848,0.3844931125640869
1761507168737057300,6.815057373046875,0.07229068130254745,0.017687182873487473,0.6996428966522217
1761507168757214000,6.8352138671875,-0.35281336307525635,-0.2870998978614807,0.7286391854286194
1761507168777370000,6.8553701171875,-0.3663800060749054,1.3144097328186035,-0.05355431139469147
1761507168797527000,6.875527099609375,0.11946387588977814,0.7297947406768799,0.12541396915912628
1761507168817683200,6.89568310546875,0.6094586849212646,-0.1186893954873085,0.2199275940656662
1761507168837840100,6.915840087890625,0.7824157476425171,-0.28486546874046326,-0.5134942531585693
1761507168857996300,6.935996337890625,0.6699852347373962,-0.6012974381446838,-1.070794939994812
1761507168878153000,6.956153076171875,0.70136559009552,-0.34192121028900146,-0.5396078824996948
1761507168898309000,6.97630908203125,0.5216237306594849,1.0788847208023071,-0.7282041311264038
1761507168918466000,6.996466064453125,0.3549257516860962,0.9489871859550476,-0.9695881605148315
1761507168938622700,7.016622802734375,-0.0009323876583948731,0.2644714415073395,-0.87992262840271
1761507168958779000,7.03677880859375,-0.25548073649406433,0.024471305310726166,-1.0649864673614502
1761507168978935800,7.056935791015625,-0.3807838261127472,0.20050658285617828,-1.491600751876831
1761507168999091700,7.077091796875,-0.10615269839763641,0.03662259876728058,-1.614628553390503
1761507169019248600,7.09724853515625,-0.1696348488330841,-0.19335491955280304,-1.4421249628067017
1761507169039404500,7.117404541015625,-0.5210253596305847,-0.8391565084457397,-1.3359606266021729
1761507169059561700,7.137561767578125,-0.48600852489471436,-0.9821863770484924,-0.8874161243438721
1761507169079717600,7.157717529296875,-0.10782010108232498,-0.398247629404068,-0.5261226892471313
1761507169099874800,7.177874755859375,0.31705784797668457,-0.24875660240650177,0.03696783259510994
1761507169120030700,7.19803076171875,0.5814459323883057,-0.42454710602760315,0.47878679633140564
1761507169140187600,7.218187744140625,0.6782570481300354,-0.24865630269050598,0.6717371940612793
1761507169160343600,7.238343505859375,0.6785524487495422,0.02028540149331093,0.7584874629974365
1761507169180500700,7.258500732421875,0.6004031896591187,-0.023805007338523865,0.7230761051177979
1761507169200656600,7.27865673828125,0.40306442975997925,-0.15380385518074036,0.8355324268341064
1761507169220813800,7.298813720703125,0.2181718498468399,-0.2452392280101776,1.0645115375518799
1761507169240969700,7.3189697265625,0.19763444364070892,-0.31779614090919495,1.0934803485870361
1761507169261126000,7.3391259765625,0.2677074372768402,-0.25667762756347656,0.9738291501998901
1761507169281282600,7.359282470703125,0.2284003496170044,0.2871045172214508,1.110180139541626
1761507169301438700,7.379438720703125,-0.0934409499168396,0.7157784700393677,1.2563910484313965
1761507169321595600,7.399595703125,-0.1430152803659439,1.2539124488830566,1.0687320232391357
1761507169341751800,7.419751708984375,0.39372268319129944,0.9336403608322144,0.9957067370414734
1761507169361908700,7.43990869140625,0.49805331230163574,0.10386330634355545,1.5177531242370605
1761507169382065000,7.46006494140625,0.3033279776573181,0.22591078281402588,1.424849033355713
1761507169402221600,7.4802216796875,0.05962398648262024,0.38333860039711,0.696914553642273
1761507169422377700,7.500377685546875,-0.4139295220375061,-0.4264937937259674,0.6720513701438904
1761507169442534700,7.52053466796875,-0.8258363604545593,-1.6266303062438965,-0.1303606778383255
1761507169462690800,7.54069091796875,-1.0135236978530884,-1.5875521898269653,-1.496874451637268
1761507169482847700,7.56084765625,-0.8545776009559631,-0.689144492149353,-1.753472089767456
1761507169503004000,7.58100390625,-0.34378260374069214,-0.17007943987846375,-0.6745250821113586
1761507169523159800,7.601159912109375,0.2706857919692993,-0.30854135751724243,-0.2399853616952896
1761507169543316700,7.621316650390625,0.47031041979789734,-0.7783604860305786,-1.3808571100234985
1761507169563472600,7.64147265625,0.7503629922866821,-0.9691374897956848,-2.5490903854370117
1761507169583629800,7.6616298828125,0.658720850944519,-0.6274031400680542,-2.206212282180786
1761507169603785700,7.68178564453125,0.3520205616950989,-0.05983925610780716,-1.2652355432510376
1761507169623943000,7.70194287109375,0.18211159110069275,0.026867970824241638,-0.4446731209754944
1761507169644098800,7.722098876953125,0.19063253700733185,-0.5087906122207642,0.2212548404932022
1761507169664255700,7.742255859375,0.34887462854385376,-0.8715653419494629,0.3481472432613373
1761507169684411600,7.76241162109375,0.4934145212173462,-0.7817679643630981,0.29610249400138855
1761507169704568600,7.782568603515625,0.5082625150680542,-0.2520310878753662,0.312298983335495
1761507169724724700,7.802724853515625,0.43107154965400696,0.3196311593055725,0.30401694774627686
1761507169744880600,7.822880615234375,0.28157439827919006,0.41232913732528687,0.39190253615379333
1761507169765037800,7.843037841796875,0.21385906636714935,0.2995794713497162,0.6822392344474792
1761507169785193700,7.86319384765625,0.30479902029037476,0.27350422739982605,1.012387990951538
1761507169805350700,7.8833505859375,0.43235963582992554,0.21569150686264038,1.0717579126358032
1761507169825506600,7.903506591796875,0.5939542651176453,0.2158890962600708,0.8538582921028137
1761507169845663700,7.923663818359375,0.48519399762153625,0.1374436318874359,0.8693077564239502
1761507169865819600,7.943819580078125,0.035427115857601166,-0.8091915845870972,1.2775791883468628
1761507169885976800,7.963976806640625,-0.3577980101108551,-1.1027233600616455,1.0190508365631104
1761507169906132700,7.9841328125,-1.0027165412902832,0.4169235825538635,0.01598816178739071
1761507169926290000,8.0042900390625,-1.2339489459991455,0.640159010887146,-0.8638757467269897
1761507169946445600,8.024445556640625,-1.076149582862854,0.09219075739383698,-1.945138931274414
1761507169966601500,8.0446015625,-0.3795209228992462,0.7923824191093445,-2.817751169204712
1761507169986758400,8.06475830078125,0.3222392797470093,1.2039830684661865,-2.890754222869873
1761507170006914300,8.084914306640625,0.4270153343677521,0.6723312735557556,-2.481549024581909
1761507170027071500,8.105071533203125,0.10997111350297928,-0.14081302285194397,-2.038996696472168
1761507170047227400,8.125227294921874,-0.4218437373638153,-0.9307793974876404,-1.701424479484558
1761507170067384600,8.145384521484376,-0.9500502347946167,-1.7491902112960815,-1.4359943866729736
1761507170087540500,8.16554052734375,-1.2182141542434692,-2.0899338722229004,-0.6546911597251892
1761507170107697400,8.185697509765625,-0.874684751033783,-1.3365947008132935,0.1353006511926651
1761507170127853300,8.205853271484376,-0.05620966851711273,0.18705137073993683,0.27830737829208374
1761507170148010200,8.22601025390625,0.5660295486450195,1.1559962034225464,-0.22466246783733368
1761507170168166400,8.24616650390625,0.5439469218254089,1.0239652395248413,-0.21912114322185516
1761507170188322300,8.266322265625,0.4790225923061371,0.5701698660850525,0.38802221417427063
1761507170208479500,8.2864794921875,0.3286171555519104,0.40986472368240356,0.8262055516242981
1761507170228635400,8.306635498046875,0.1910250335931778,0.520829975605011,0.8962658047676086
1761507170248792300,8.326792236328124,0.15771381556987762,0.7243489027023315,0.88306725025177
1761507170268948200,8.3469482421875,0.24876967072486877,0.8002240061759949,0.9864673614501953
1761507170289105400,8.36710546875,0.11477765440940857,0.692542314529419,1.2314746379852295
1761507170309261300,8.38726123046875,-0.5489499568939209,0.31969019770622253,1.5448181629180908
1761507170329419300,8.407419189453124,-0.6895675659179688,0.40067824721336365,1.7692266702651978
1761507170349576400,8.427576416015626,-0.225417822599411,0.5061041116714478,1.5444450378417969
1761507170369732400,8.447732421875,-0.28812798857688904,-1.410657286643982,0.6488213539123535
1761507170389889500,8.4678896484375,-0.4292316138744354,-1.6508119106292725,0.4167291820049286
1761507170410045400,8.48804541015625,-0.46712803840637207,0.10814014822244644,-0.26695698499679565
1761507170430201300,8.508201416015625,-0.3594416379928589,0.7723228931427002,-1.6193512678146362
1761507170450358300,8.528358154296875,-0.1357620507478714,1.2037111520767212,-0.7615082859992981
1761507170470514200,8.54851416015625,0.15999281406402588,0.39666303992271423,-0.07491578906774521
1761507170490671400,8.56867138671875,0.2591928541660309,-0.41925248503685,-1.2501448392868042
1761507170510827300,8.5888271484375,0.25192296504974365,-0.6858726739883423,-2.2420432567596436
1761507170530984400,8.608984375,0.18031185865402222,-0.9912809133529663,-1.9909660816192627
1761507170551140400,8.629140380859376,-0.047945015132427216,-1.0491975545883179,-1.142467737197876
1761507170571297300,8.64929736328125,-0.16175781190395355,-0.7889002561569214,-0.669978141784668
1761507170591453400,8.669453369140625,-0.0563211664557457,-0.3609316945075989,-0.3775394558906555
1761507170611610400,8.6896103515625,0.06724093854427338,0.03254188969731331,-0.19986677169799805
1761507170631766300,8.709766357421875,0.006562510505318642,0.49418962001800537,0.08041627705097198
1761507170651922400,8.72992236328125,-0.014843104407191277,0.813474714756012,0.38401496410369873
1761507170672079400,8.750079345703124,-0.18828637897968292,0.6499062776565552,0.6186470985412598
1761507170692235500,8.770235595703125,-0.258367657661438,0.10537531971931458,0.7976535558700562
1761507170712392400,8.790392333984375,-0.1136334240436554,-0.341167688369751,1.0922226905822754
1761507170732548400,8.81054833984375,0.0581691712141037,-0.4074636995792389,1.3423303365707397
1761507170752705300,8.830705322265626,0.06093347817659378,-0.0763796865940094,1.118516445159912
1761507170772861400,8.850861328125,0.151533842086792,0.3344637155532837,0.6880701184272766
1761507170793018400,8.871018310546875,0.39859262108802795,0.6607922911643982,0.517783522605896
1761507170813174500,8.891174560546874,0.77103590965271,0.8815844058990479,0.6034214496612549
1761507170833331500,8.91133154296875,0.7746394872665405,0.644341230392456,0.7341843843460083
1761507170853487400,8.9314873046875,0.32224321365356445,-0.41097524762153625,0.669025719165802
1761507170873643500,8.9516435546875,-0.1341569423675537,-0.6062785387039185,0.9107905626296997
1761507170893800200,8.97180029296875,-0.27605485916137695,0.2913731634616852,0.45730137825012207
1761507170913956400,8.991956298828125,-0.40722814202308655,-0.29352638125419617,-0.3986667990684509
1761507170934114000,9.012114013671875,-0.3435361683368683,0.10041669756174088,-0.745259165763855
1761507170954270000,9.03227001953125,-0.04931049421429634,0.6521787643432617,-0.8351863622665405
1761507170974427000,9.052427001953125,-0.1803792417049408,-0.014951644465327263,-1.236200213432312
1761507170994582800,9.072582763671875,-0.3677064776420593,-0.5733125805854797,-1.667147159576416
1761507171014739700,9.09273974609375,-0.4019727408885956,-0.9281554818153381,-1.4520564079284668
1761507171034896000,9.112895751953126,-0.026408541947603226,-0.8460837602615356,-0.45407044887542725
1761507171055051800,9.1330517578125,0.38019293546676636,-0.3796651363372803,0.2552214562892914
1761507171075209000,9.153208984375,0.6392263770103455,-0.15942472219467163,0.12157092988491058
1761507171095364900,9.17336474609375,0.6046367287635803,-0.13399480283260345,-0.39503613114356995
1761507171115521800,9.193521728515625,0.5231110453605652,-0.024580001831054688,-0.4141954481601715
1761507171135677700,9.213677734375,0.46475911140441895,-0.16023339331150055,-0.15082141757011414
1761507171155835000,9.2338349609375,0.3234078288078308,-0.17199961841106415,-0.0007076077163219452
1761507171175990800,9.25399072265625,0.029798589646816254,0.001273633912205696,-0.009680862538516521
1761507171196148000,9.27414794921875,-0.19947902858257294,0.1039174422621727,0.24888931214809418
1761507171216303900,9.294303955078124,-0.20314238965511322,0.1307736337184906,0.46043479442596436
1761507171236460000,9.3144599609375,-0.12153332680463791,0.2196553349494934,0.5520042777061462
1761507171256616700,9.33461669921875,-0.021934155374765396,0.4981800615787506,0.6189026832580566
1761507171276772900,9.35477294921875,-0.046574145555496216,0.6747900247573853,0.7236199378967285
1761507171296929800,9.3749296875,-0.05373075231909752,0.4280334711074829,0.7347732782363892
1761507171317086000,9.3950859375,-0.03463994711637497,-0.23222197592258453,0.1602349579334259
1761507171337243000,9.415242919921875,-0.2437363862991333,-0.7206248641014099,-0.635998547077179
1761507171357399000,9.43539892578125,-0.5384262204170227,-0.3135301172733307,-0.5988328456878662
1761507171377556000,9.455555908203126,-0.8868700265884399,0.10289061814546585,-0.8950191736221313
1761507171397712000,9.4757119140625,-0.3068218529224396,0.5192457437515259,-0.9017002582550049
1761507171417867800,9.49586767578125,0.40332359075546265,0.7900881171226501,-0.10285613685846329
1761507171438024700,9.516024658203126,0.6175532341003418,0.17393605411052704,-0.1510017216205597
1761507171458180900,9.536180908203125,0.1969803124666214,-0.34343576431274414,-0.6006835103034973
1761507171478337800,9.556337890625,-0.06671324372291565,-0.3230855464935303,-0.8507639169692993
1761507171498494000,9.576493896484376,-0.11549384891986847,0.12373662739992142,-0.8337711691856384
1761507171518651000,9.59665087890625,-0.16508227586746216,0.46614280343055725,-0.20750248432159424
1761507171538807000,9.61680712890625,-0.09457293897867203,0.5895649194717407,0.6548301577568054
1761507171558963700,9.636963623046874,0.10069059580564499,0.6467409729957581,0.9537488222122192
1761507171579119900,9.657119873046875,0.13784928619861603,0.6756868362426758,0.6566650867462158
1761507171599275800,9.67727587890625,0.023570245131850243,0.5383066534996033,0.47486209869384766
1761507171619433000,9.697432861328124,-0.14379559457302094,0.17238828539848328,0.6397905349731445
1761507171639588900,9.7175888671875,-0.4425339698791504,-0.05929488688707352,0.6977428793907166
1761507171659746000,9.73774609375,-0.6423335671424866,-0.275857537984848,0.6844089031219482
1761507171679902000,9.75790185546875,-0.8580673336982727,-0.23910047113895416,0.7403604984283447
1761507171700059000,9.778058837890624,-0.841597318649292,-0.05305095762014389,0.5848458409309387
1761507171720214800,9.79821484375,-0.6203472018241882,0.13988733291625977,0.4273312985897064
1761507171740372000,9.8183720703125,-0.3607318103313446,0.17809541523456573,0.26301294565200806
1761507171760528000,9.83852783203125,-0.04551107808947563,0.008618899621069431,0.4767303168773651
1761507171780683800,9.858683837890625,0.2883605360984802,0.022206082940101624,0.7623769044876099
1761507171800841000,9.878841064453125,0.3155416250228882,-0.637144923210144,0.5560973882675171
1761507171820996900,9.898996826171874,0.19609960913658142,-1.595525860786438,0.6025431752204895
1761507171841153800,9.91915380859375,0.3597978949546814,-0.8758661150932312,0.8320486545562744
1761507171861309700,9.939309814453125,0.09994492679834366,-0.5784387588500977,0.9560617804527283
1761507171881467000,9.959466796875,-0.22658583521842957,-1.1611177921295166,0.23705315589904785
1761507171901622800,9.979622802734376,-0.30139851570129395,-0.26840656995773315,-0.48360928893089294
1761507171921780000,9.999780029296875,-0.03516295179724693,0.9980090260505676,-0.516428530216217
1761507171941935900,10.019935791015625,0.015636390075087547,0.720022976398468,-0.2951434552669525
1761507171962091800,10.040091796875,-0.1507176160812378,-0.15613198280334473,-0.32127615809440613
1761507171982248700,10.060248779296876,-0.21958447992801666,-0.386076956987381,-0.2290264517068863
1761507172002404600,10.080404541015625,-0.14041565358638763,-0.08263839036226273,0.022203562781214714
1761507172022561800,10.100561767578125,-0.11256376653909683,0.21370069682598114,0.20839187502861023
1761507172042717700,10.1207177734375,-0.1043069064617157,0.1730714589357376,0.5709649920463562
1761507172062875000,10.140875,-0.05110994726419449,-0.11646449565887451,1.1107641458511353
1761507172083030800,10.16103076171875,0.12012225389480591,-0.40224191546440125,1.164131999015808
1761507172103187700,10.181187744140624,0.036429401487112045,-0.4921940565109253,0.8253369927406311
1761507172123343600,10.201343505859375,0.24925154447555542,-0.18653623759746552,0.7443674206733704
1761507172143499800,10.221499755859375,0.40065136551856995,0.13022512197494507,0.07891971617937088
1761507172163656700,10.24165673828125,0.43821781873703003,0.3478635549545288,-0.5910588502883911
1761507172183812900,10.261812744140625,0.4880121946334839,0.36908894777297974,-0.3739655017852783
