time,seconds_elapsed,z,y,x
1761431206540487700,0.09048779296875,0.03263911779820919,0.010984029390313663,0.021807945448625833
1761431206560430800,0.110430908203125,0.04341010265946388,0.013780382110574281,-0.018736218986241147
1761431206580374800,0.130374755859375,0.04430500567257404,0.0294504230258055,-0.021428828204236923
1761431206600317700,0.150317626953125,0.04759411034584045,0.015133627917012199,-0.02022136124377139
1761431206620261600,0.17026171875,0.04055997392535209,-0.0017275498783914372,-0.0013934727855492383
1761431206640204500,0.19020458984375,0.05178220968544483,-0.024353488045861012,0.024363886142289265
1761431206660148700,0.210148681640625,0.06046352879106998,-0.044451405573054215,0.03847565106512047
1761431206680092700,0.2300927734375,0.03502805876135826,-0.022423862556996754,0.015048936175089329
1761431206700035800,0.250035888671875,0.05029167886674404,0.008707759587978944,0.04351401969166472
1761431206719979800,0.269979736328125,0.044752749440073965,0.0195028194445651,0.019505687255086376
1761431206739922700,0.289922607421875,0.05373451279699802,0.03661679382410366,0.00896292165913619
1761431206759866600,0.30986669921875,0.04819850597977638,0.010696092994138599,-0.013330651881964877
1761431206779809800,0.329809814453125,0.05059153859615326,0.006467931072204373,-0.0015779442406725138
1761431206799753700,0.349753662109375,0.027694062611460683,-0.006567509856005199,0.02623774458961561
1761431206819697700,0.36969775390625,0.037270284730195995,-0.021167451021424494,0.031038450269075108
1761431206839640600,0.389640625,0.049691959407925604,-0.011300561693310738,0.015178672635136172
1761431206859584800,0.409584716796875,0.04819441432654857,0.006827845859201625,0.0016083576452452688
1761431206879527700,0.429527587890625,0.03577332417070865,0.006683135592308827,-0.003071078008413315
1761431206899472000,0.449471923828125,0.043402503874897955,-0.008251960378186776,-0.007467723798472434
1761431206919414800,0.469414794921875,0.03906009075641632,0.009692094450211151,0.007048292810004204
1761431206939358700,0.489358642578125,0.04040332205891609,0.019651429568440654,0.016777129940874873
1761431206959302700,0.509302734375,0.03680792791545391,0.01980795357071329,0.011395436902530491
1761431206979245600,0.52924560546875,0.028877719438076016,-0.0034599768612999468,0.02493258027518168
1761431206999189500,0.549189453125,0.03890168532431126,-0.03237302790766116,0.00987693123151548
1761431207019132700,0.569132568359375,0.05386661474406719,-0.004345993315055966,0.006925616278406232
1761431207039076900,0.589076904296875,0.03516249879598617,-0.015264136128616518,0.008744611866492778
1761431207059019800,0.609019775390625,0.04668225619792938,-0.0029622382059227674,-0.006678336119605228
1761431207078963700,0.628963623046875,0.04294073158204555,0.019177615211345256,0.00902455218588002
1761431207098907000,0.648906982421875,0.04473988995850086,0.01747920922904741,0.009085223731398582
1761431207118850800,0.668850830078125,0.038602410116791726,-0.004570162026328034,0.007498255934054032
1761431207138794800,0.688794677734375,0.04084522060751915,-0.020585509247891605,0.03342325391322374
1761431207158735600,0.708735595703125,0.038002106136083603,-0.015837415105081163,0.03222686546919867
1761431207178679600,0.728679443359375,0.040844051563739776,0.009491064585931599,0.017213512064144013
1761431207198622500,0.74862255859375,0.039946225941181183,0.014959335362608543,0.0021056579092051833
1761431207218566400,0.76856640625,0.05849895071983337,0.009928538121166638,-0.02303008025526069
1761431207238509300,0.78850927734375,0.03919569983482361,0.014041416800091973,-0.008695365897286682
1761431207258453200,0.808453369140625,0.05236030183434486,-0.014877904156851581,0.020612607317371294
1761431207278396400,0.828396484375,0.04832534722983837,-0.013194293884886427,0.02027001355793327
1761431207298340600,0.848340576171875,0.04503624255657196,-0.03567394631630741,0.015684119672933594
1761431207318284500,0.868284423828125,0.06374035850465297,0.00876908415404614,0.009925857540313153
1761431207338227500,0.8882275390625,0.052364393487572665,0.014842029125872068,0.013958318793633953
1761431207358171400,0.90817138671875,0.02288110937178135,0.029372635948704554,-0.003151632431335747
1761431207378114600,0.928114501953125,0.05745031844973564,0.005890510210162028,-0.014634400557447224
1761431207398058500,0.94805859375,0.04278583328127861,-0.02010789549851324,-0.01990607561636716
1761431207418001400,0.96800146484375,0.04697685523033142,-0.023004553088359532,0.01341125197065994
1761431207437945300,0.9879453125,0.046074353432655334,-0.020378679830487818,-0.003493787799356505
1761431207457888300,1.00788818359375,0.026171967610716818,0.009077789343614131,0.009580450769281015
1761431207477832400,1.02783251953125,0.049963177564740176,0.010623822342371567,-0.00475589842335321
1761431207497776400,1.0477763671875,0.0251227508187294,0.03398990221950225,0.02035858689052984
1761431207517719600,1.067719482421875,0.03708849842250347,0.011083188049006275,0.019284098659968003
1761431207537663500,1.08766357421875,0.05654197143316268,-0.0035046516866656017,0.026096372490702194
1761431207557606400,1.1076064453125,0.043373277780413624,-0.030907658929680473,0.01209907339354977
1761431207577550300,1.12755029296875,0.036786885127425194,-0.04517697533466853,0.030515531506668775
1761431207597493500,1.147493408203125,0.053396659144759176,0.011322494963905774,0.0024910952965263274
1761431207617437400,1.1674375,0.034686697977781296,0.040642240814748216,-0.032435841177916154
1761431207637380400,1.18738037109375,0.03498480414152145,0.03477352687786333,0.0030545652650296688
1761431207657324500,1.207324462890625,0.04695698148608207,0.039826435486413535,0.01617184839094989
1761431207677268500,1.2272685546875,0.03887830444872379,-0.00327806268944405,0.020164781351480632
1761431207697211400,1.24721142578125,0.03902735753059387,-0.034288314343919046,0.009340468000946565
1761431207717155600,1.267155517578125,0.03618482758104801,-0.03557469632606953,0.014440869013033807
1761431207737098500,1.287098388671875,0.04277005119025707,-0.015768313657934775,-0.011003834635904057
1761431207757042400,1.30704248046875,0.04740823238492012,0.013357731685135512,0.015537240281840786
1761431207776985300,1.3269853515625,0.03229191179573536,0.017145068204123527,-0.006541503198491409
1761431207796929300,1.34692919921875,0.03872632875740528,0.01749131522537209,0.017565668236371127
1761431207816872400,1.36687255859375,0.046806174838542935,0.01615876514709089,0.013110542857879772
1761431207836816600,1.386816650390625,0.043511224946379656,-0.014576884516817516,0.009725220401678234
1761431207856759600,1.406759521484375,0.039021512311697,-0.01279181403121911,0.014429553034575656
1761431207876703500,1.426703369140625,0.0541360793352127,-0.00474898462537676,0.015401165412552653
1761431207896647400,1.4466474609375,0.04889876320362091,0.010325309753254987,0.017644112900597975
1761431207916590300,1.46659033203125,0.034385669204592705,0.018736141354427673,0.007917084134323522
1761431207936534500,1.486534423828125,0.04336509447395801,0.0020754865332273764,0.0012366382560227065
1761431207956477400,1.5064775390625,0.03752688983976841,0.0027246300577651707,0.023284210279956457
1761431207976421400,1.52642138671875,0.028996377381682394,-0.018899538055481387,0.035568832840863616
1761431207996364300,1.5463642578125,0.05578092393279075,0.0005610816485946998,0.019770731399441136
1761431208016308500,1.56630859375,0.0592208352535963,0.0028839077061275017,0.007623873341409489
1761431208036251600,1.586251708984375,0.027796353942155835,0.015374934992752968,0.0022052549593150612
1761431208056195600,1.606195556640625,0.03677168755829334,0.00901686206976883,0.025719017945136872
1761431208076138500,1.626138427734375,0.044998833155632016,0.016860027017933314,0.012847434942284599
1761431208096082400,1.64608251953125,0.06265607039928436,0.009506440251576714,0.010952360176993534
1761431208116026400,1.6660263671875,0.04126140019297599,0.004568362794886343,0.0005169730788096785
1761431208135969300,1.68596923828125,0.04320961165130138,-0.006416543378261849,0.011499171271640806
1761431208155912200,1.705912109375,0.03692775490283966,-0.0030537706805858758,-0.003645188101939857
1761431208175855000,1.725855224609375,0.03333937502205372,-0.014473885366646571,-0.014137940543703735
1761431208195799300,1.74579931640625,0.04217266981899738,-0.019788618682581,-0.00029532055160962046
1761431208215742500,1.765742431640625,0.04187631722092628,0.0023225611960515377,0.012738184147840365
1761431208235686400,1.785686279296875,0.04262625880539417,0.0208843049647985,-0.0006328362771309912
1761431208255629300,1.80562939453125,0.05205459688603878,0.00036608423287980255,-0.0005551496647298336
1761431208275573200,1.8255732421875,0.052505263262987135,0.015137034583650528,0.013454616188351065
1761431208295516200,1.84551611328125,0.04921557406783104,-0.00039324166786391284,0.01789887311295606
1761431208315460000,1.865460205078125,0.049663902357220645,-0.022562362278811633,0.024784878900181502
1761431208335403300,1.8854033203125,0.028413024535775183,-0.02884983591730706,-0.01059987521120347
1761431208355347200,1.90534716796875,0.02886076830327511,-0.0009744071232620626,0.012852257247874513
1761431208375291400,1.92529150390625,0.05010638542771339,0.007026108377659693,0.0082333926750347
1761431208395234300,1.945234375,0.047560208076238626,0.0253545548471855,-0.005775423329975456
1761431208415178200,1.96517822265625,0.06327040290534496,-0.0013953405156498773,-0.00782135040857829
1761431208435121400,1.985121337890625,0.03363923475146294,-0.0017884908519685268,0.018461393233388662
1761431208455065300,2.0050654296875,0.03558627716600895,-0.008108811880717985,0.0069893930964637545
1761431208475008300,2.02500830078125,0.037982816913723946,-0.017015002950513735,-0.0036838213455863294
1761431208494952200,2.0449521484375,0.04800912088751793,-0.008752722107712179,0.00663325486886315
1761431208514895000,2.06489501953125,0.04292202688157558,0.010640293986559845,0.012097493357816711
1761431208534839000,2.084839111328125,0.05773556513190269,0.0046278972626663745,0.01030590636646375
1761431208554782200,2.1047822265625,0.04366846133470535,0.015852941467775963,-0.00002902516508474946
1761431208574726400,2.124726318359375,0.03753799575567245,-0.010090843410254456,0.006531913386238738
1761431208594670300,2.14467041015625,0.03110240975022316,-0.0019889635938219723,0.000057155281025916335
1761431208614613200,2.16461328125,0.03948211556077003,0.005085555069404654,-0.0023233740468043833
1761431208634557200,2.18455712890625,0.0402285500138998,0.0022323256293311712,0.03447259856937453
1761431208654500400,2.204500244140625,0.04546645066738128,-0.01376709337073844,0.020597546745557336
1761431208674444300,2.2244443359375,0.03379237948656082,-0.008810525842709466,-0.003831988511467352
1761431208694387200,2.24438720703125,0.03184825968146324,-0.006651347647979855,-0.0014955266542267054
1761431208714331100,2.2643310546875,0.04471650908291339,0.016057610894134267,-0.012415573730506002
1761431208734274000,2.284274169921875,0.050553544673323625,0.010953625118895433,0.009403642030805348
1761431208754218200,2.30421826171875,0.04905950672328472,-0.0005507155182072893,0.023977745502069592
1761431208774161400,2.324161376953125,0.029005145210027693,0.013196974465739912,0.019398792814509944
1761431208794105300,2.344105224609375,0.04801145897507667,-0.010295649833930656,0.01901998609737493
1761431208814048300,2.36404833984375,0.028259879800677297,-0.009819332992495038,0.01387601080504246
1761431208833992200,2.3839921875,0.04247545215785503,-0.017363346030726097,-0.0016208974664099513
1761431208853935400,2.403935302734375,0.03783785548508167,-0.007717346611409447,0.030681353060249238
1761431208873879300,2.42387939453125,0.04741992282271385,0.003558852392202243,0.026185028021689503
1761431208893823200,2.4438232421875,0.03844166659712791,0.006398884423985145,0.0021023060414940118
1761431208913766100,2.46376611328125,0.0360457113713026,0.012829255398199893,0.012087245958438143
1761431208933710300,2.48371044921875,0.03799450735151767,0.00158115911106579,-0.0029167368300724774
1761431208953653200,2.5036533203125,0.042781741628050804,-0.013508839726774021,0.00949954928648658
1761431208973597200,2.52359716796875,0.03874211084842682,-0.006132031915034167,0.02455311597092077
1761431208993540400,2.543540283203125,0.05340601149499416,0.0024870264761848375,0.0032173546113073823
1761431209013484300,2.563484375,0.04248071285486221,-0.0019457683394895865,-0.0004915920423809438
1761431209033427200,2.58342724609375,0.037844285225868225,0.007705770338047296,-0.004022140788706019
1761431209053371100,2.60337109375,0.04397708889245987,0.015734151093428954,0.0059011868678033345
1761431209073314300,2.623314208984375,0.037242812201380725,-0.0037289254292147233,-0.0013138499443884938
1761431209093258200,2.64325830078125,0.043076925182342525,0.0024522200242849067,0.019693209183821454
1761431209113201200,2.663201171875,0.0390349563151598,-0.0009705803315155207,0.016960231422819196
1761431209133145300,2.683145263671875,0.052801615861058235,-0.009073729656427167,0.006851418531034142
1761431209153088800,2.7030888671875,0.03828910638391971,0.0032774325017817314,0.003071078008413315
1761431209173032700,2.72303271484375,0.046070261779427524,-0.0043077573636313895,0.005784538218192756
1761431209192976600,2.7429765625,0.03739069623947144,-0.004318808480608277,0.006421018623979762
1761431209212919800,2.762919921875,0.03544190025925636,-0.003490782991517335,-0.0016300580203998834
1761431209232863700,2.78286376953125,0.04082826947271823,-0.011804885353101417,0.010686777176521717
1761431209252806700,2.802806640625,0.03633621875047684,-0.00878755595907569,-0.008462835783045738
1761431209272750600,2.82275048828125,0.04142039014697075,-0.008901300265546887,-0.0003300082725007087
1761431209292693500,2.842693603515625,0.052637949731945986,-0.0009751195093151182,0.005598157933773473
1761431209312637700,2.8626376953125,0.043504795205593104,0.00876028435966,0.013241311364388093
1761431209332580900,2.882580810546875,0.05861819318532943,0.005813070192933082,0.015398014474241063
1761431209352524800,2.90252490234375,0.031681086421012875,-0.006686076468066312,0.005870079343486577
1761431209372467700,2.9224677734375,0.024047230541706082,-0.00027620029260870066,0.004866153864795342
1761431209392411600,2.94241162109375,0.049185178929567336,0.002754376742057502,0.006322353155631572
1761431209412354800,2.962354736328125,0.04978314482271671,0.003931946321181021,0.010479847294418141
1761431209432298800,2.982298828125,0.04050561338961124,0.004079775560344569,0.0024296748323366043
1761431209452241700,3.00224169921875,0.04125497045218944,0.01692538843830116,0.010510717356717214
1761431209472185600,3.022185546875,0.04843640638887882,-0.003476137978234328,0.02575668307440355
1761431209492128500,3.04212841796875,0.04604395829439163,-0.007666420141770504,0.011505464015109464
1761431209512072700,3.06207275390625,0.05022971954643726,0.00178383750973735,-0.010279831210291012
1761431209532015900,3.082015869140625,0.039303836384415626,-0.0035321287820581347,0.025961914189765227
1761431209551959800,3.101959716796875,0.038407179805636404,0.00960455316407606,0.011202124553825705
1761431209571903700,3.12190380859375,0.04019873939752579,0.012437201040424405,0.006856167771387845
1761431209591846700,3.1418466796875,0.05276946715712547,0.006655996423633769,0.016315713841049
1761431209611790600,3.16179052734375,0.042590602970123285,-0.005804937118827365,0.001596037019789219
1761431209631733800,3.181733642578125,0.04273731796443462,-0.009680367479799315,0.01174853378967382
1761431209651677700,3.201677734375,0.04782207388281822,0.009164873972022905,0.028868385354150084
1761431209671620600,3.22162060546875,0.04363339002132415,-0.009523048893082886,0.0025077633035369214
1761431209691564800,3.241564697265625,0.03121639151871204,-0.0007807066154899076,-0.005747311480343341
1761431209711507700,3.2615078125,0.03810147485733032,0.009761584056424908,0.008350662379153072
1761431209731451600,3.28145166015625,0.05725684170424938,-0.002792178868642077,0.0034027211155742403
1761431209751394800,3.301394775390625,0.04319266051650047,0.009262845320627093,0.016592539754742754
1761431209771338800,3.3213388671875,0.039454058510065074,-0.0114249506913824,0.018525297915609553
1761431209791281700,3.34128173828125,0.04828559974133968,0.00868678073203191,-0.0024960089336615054
1761431209811225600,3.3612255859375,0.03571428745985031,0.0017227960714604705,0.002442114188801497
1761431209831168800,3.381168701171875,0.03197276284396648,0.005124202012782916,0.014862437159661204
1761431209851112700,3.40111279296875,0.038706455013155935,0.01862551145364996,0.01581561883180402
1761431209871055600,3.4210556640625,0.04050152173638344,-0.011197457511862739,0.009135647877538577
1761431209890999800,3.440999755859375,0.04439034586846828,0.008081334785325453,-0.0018476828264538197
1761431209910942700,3.460942626953125,0.03765840726494789,-0.006201443889434449,0.009550119563098996
1761431209930886700,3.48088671875,0.04184884469211101,0.016419014385319314,0.02440249198647216
1761431209950829800,3.500829833984375,0.027480127599835393,-0.0003042847427772358,0.020229654148081318
1761431209970773800,3.520773681640625,0.04079436720311642,-0.007836333348578773,-0.0016485709246248006
1761431209990717700,3.5407177734375,0.02568213826715946,0.0028597048466326666,0.004983359636832029
1761431210010660600,3.56066064453125,0.047080315604805946,-0.004243094629584812,0.0022427374254912137
1761431210030604500,3.5806044921875,0.029427754536271094,0.008585790875856763,0.002492994992667809
1761431210050547700,3.600547607421875,0.05606207896173,0.012019528184202499,0.01452342359679751
1761431210070492000,3.620491943359375,0.0409475119382143,0.01580765015447978,0.004117783182905987
1761431210090434800,3.640434814453125,0.03241816852390766,-0.008970314947725273,0.019603220212273297
1761431210110378800,3.660378662109375,0.040949850025773046,0.01033077594623901,0.008494874889124183
1761431210130321700,3.68032177734375,0.038109658163785934,0.004518208076804876,0.010587033995939419
1761431210150265600,3.700265625,0.033471476969122886,0.005544427585694939,0.02318704264895059
1761431210170209300,3.720209228515625,0.029285131195187566,0.00557240700458642,0.028771418652543797
1761431210190153500,3.740153564453125,0.04020750722587108,0.012970495066372677,0.01160929884891957
1761431210210096400,3.760096435546875,0.04574059143364429,-0.00769165961430408,0.014641944543085992
1761431210230040300,3.780040283203125,0.03571779459118843,0.008314353523333557,0.006738176548061892
1761431210249983200,3.799983154296875,0.04185468991100788,0.009653228311124256,0.012180541131924837
1761431210269927200,3.81992724609375,0.034226094728708266,0.013089111910783685,0.004714936225302517
1761431210289870300,3.839870361328125,0.03826397194266319,-0.012708716024761087,0.01447526447298005
1761431210309814300,3.859814208984375,0.04425064513683319,-0.011928429534379392,0.015097625021869315
1761431210329757200,3.879757080078125,0.052635027122497555,-0.0010803014834178612,0.01384658378115855
1761431210349701400,3.899701416015625,0.05637888982594013,0.001955613880068995,0.004092767472658306
1761431210369644300,3.919644287109375,0.029442952105402945,0.01952799498501699,0.0042512733694631604
1761431210389588500,3.93958837890625,0.04306114309132099,0.0005499437666498124,-0.0006457414244767278
1761431210409531400,3.959531494140625,0.043511224946379656,-0.004367346630338579,0.012761026167310773
1761431210429475300,3.979475341796875,0.03752630531787872,-0.004746230979287065,0.030314273313526062
1761431210449417500,3.99941748046875,0.043813422763347626,0.0018280100116040557,0.024239803104894233
1761431210469361400,4.019361328125,0.037676527443528174,0.008142371657025069,-0.004522738121449947
1761431210489304300,4.03930419921875,0.04425999748706817,0.007986139915697276,0.012912444736203179
1761431210509248300,4.059248291015625,0.030938743621110914,-0.001229897987982258,0.016279491750197484
1761431210529191200,4.079191162109375,0.022407646641135214,0.006956212346069514,0.01202842844328843
1761431210549135000,4.099135009765625,0.039762686067819596,0.01880925682298839,-0.012651519644539802
1761431210569078300,4.119078369140625,0.05068389305472373,-0.001722115651448257,-0.03596390570621006
1761431210589022500,4.1390224609375,0.044399698218703265,0.00880108672750648,0.017329439194547012
1761431210608965400,4.15896533203125,0.0340764571249485,-0.018569538916135206,0.02342852325462736
1761431210628909300,4.178909423828125,0.03751987557709217,-0.013734195748134516,0.03587867510817013
1761431210648852200,4.198852294921875,0.04979308169484138,-0.024894645717856472,0.022160485213343052
1761431210668796400,4.21879638671875,0.04171615822315216,0.0073145288310246534,0.002200067327544093
1761431210688739300,4.2387392578125,0.0430652347445488,0.038030953204655084,-0.0019965989110060033
1761431210708683300,4.258683349609375,0.05458382310271263,0.029208134135953148,0.007958612587954848
1761431210728626200,4.278626220703125,0.04276362144947052,-0.0007784278934355825,0.011875868230080232
1761431210748570000,4.298570068359375,0.05383680412769317,-0.025616525685042142,0.005933125509181991
1761431210768513300,4.31851318359375,0.052336920958757395,-0.027256940702674908,0.015838552182819692
1761431210788457500,4.33845751953125,0.04485620981454849,-0.024148056001099757,0.02011927997563034
1761431210808400400,4.358400390625,0.03886836757659912,0.002916576999868266,0.009196282890439033
1761431210828344300,4.37834423828125,0.045453591185808176,0.03635340278071817,0.02643313016439788
1761431210848288300,4.398288330078125,0.04664835392832756,0.04125181951387785,0.0218894131870009
1761431210868231400,4.4182314453125,0.047397710990905756,0.012174321453692391,0.0036680666540283707
1761431210888175400,4.43817529296875,0.04784603928029537,-0.013490646482957527,-0.00006694602267816663
1761431210908118300,4.4581181640625,0.05906710599660873,-0.017931948832073247,0.00820712572261691
1761431210928062200,4.478062255859375,0.05278174211680889,-0.02019613090439234,0.02912732855128124
1761431210948005000,4.498005126953125,0.05173486341238021,-0.020252998491050674,-0.0023179215535521504
1761431210967949300,4.51794921875,0.036623218998312945,0.006160426892456598,0.016732103489059954
1761431210987892500,4.537892578125,0.04440086726248264,0.004594976807176136,0.01456065946780145
1761431211007836400,4.55783642578125,0.0348258141875267,0.017398828336060976,-0.0013233849577140061
1761431211027779300,4.577779296875,0.04455401199758052,0.011962993957684374,-0.004471071866294369
1761431211047723300,4.59772314453125,0.041111178067326545,-0.005913238065200857,0.008367960573825984
1761431211067666200,4.617666259765625,0.04365969350636005,-0.01681200032485649,0.014513989048171787
1761431211087610400,4.6376103515625,0.02929506806731224,-0.0078220810609404,0.01142335695591755
1761431211107553300,4.65755322265625,0.05518588064908981,0.0015374660998117178,0.022322406909940765
1761431211127497500,4.67749755859375,0.04366144707202911,0.00593306614367757,0.014827219715807586
1761431211147440400,4.6974404296875,0.03752630531787872,0.01596858090381138,0.006608814547350629
1761431211167385300,4.71738525390625,0.047105450046062466,0.013975877283210866,-0.004227974692266434
1761431211187328300,4.737328369140625,0.03647884209156036,-0.008311371548380702,0.005041574363783001
1761431211207272200,4.757272216796875,0.054440615239739414,-0.013024261947069316,0.00949677280751057
1761431211227215400,4.77721533203125,0.024365210449695585,-0.009140538681787437,0.0044925256462767715
1761431211247159300,4.7971591796875,0.03199848180711269,0.001908381771435961,0.0030347189202439037
1761431211267102200,4.817102294921875,0.04965688809454441,0.013961474298522807,0.0062736003767699
1761431211287046100,4.837046142578125,0.04547229588627815,0.01880576339138206,0.007159242371190339
1761431211306989300,4.8569892578125,0.03783960905075073,-0.00019830361765343696,0.017397864788258447
1761431211326933200,4.876933349609375,0.03469488128423691,-0.017251611018250696,0.017793942300602793
1761431211346877400,4.89687744140625,0.037840778094530104,-0.005848036475037224,-0.024506555149145424
1761431211366820400,4.9168203125,0.02886661352217197,-0.011232085867249407,0.029601293605426324
1761431211386764300,4.936764404296875,0.03934007674157619,-0.0008555345505243167,0.0064284164791461075
1761431211406707200,4.956707275390625,0.05011281516849994,-0.01396057468280196,0.0025391539556439964
1761431211426651100,4.976651123046875,0.030060207220911978,0.022884557137615048,0.009879698577336966
1761431211446594300,4.99659423828125,0.04667348836958408,0.011334651192580349,0.003871964328829199
1761431211466538200,5.016538330078125,0.026927754414081573,-0.008937558889016508,0.005176224460965022
1761431211486481200,5.036481201171875,0.03695464290976524,-0.021629177648504264,0.009112066072551533
1761431211506425000,5.056425048828125,0.03291384308636188,-0.017864820146304555,0.01589257479184307
1761431211526368300,5.0763681640625,0.04084931226074695,-0.007094926697015762,0.0113330574571155
1761431211546312400,5.0963125,0.055067222705483435,0.015215958738490007,0.005791525081405416
1761431211566255400,5.11625537109375,0.043994040027260775,0.019410327988676725,-0.011813844977691768
1761431211586199300,5.13619921875,0.0571644872456789,-0.0024620198990916832,0.016252384547563267
1761431211606142200,5.15614208984375,0.04384849407672882,0.013608733604406006,0.02874741672244854
1761431211626086100,5.176086181640625,0.039057168146967886,0.0012349349227035416,0.009588761939899996
1761431211646029300,5.196029296875,0.04279693919718265,-0.020708409541775472,-0.004617823393223807
1761431211665973200,5.21597314453125,0.05596680189371109,0.011861319114919751,-0.0030594332363922147
1761431211685916200,5.235916259765625,0.03471943120360374,0.009124144669412635,0.021206773818237705
1761431211705860000,5.255860107421875,0.036811435046792025,0.00326923549559433,0.013910506729688495
1761431211725803300,5.27580322265625,0.056559507089853286,-0.0011392331629991531,-0.0027937041054479778
1761431211745747200,5.295747314453125,0.039653380474448205,-0.0061103224067250266,0.010238238824578002
1761431211765690400,5.3156904296875,0.02813303855061531,0.0034554742161184548,0.012518257786845788
1761431211785634300,5.33563427734375,0.0380108739644289,-0.004769296761043369,0.003951030047563836
1761431211805577200,5.3555771484375,0.0574649314969778,0.006352446899795905,-0.011357534311246127
1761431211825521200,5.375521240234375,0.03247545166909695,0.0025324730531079693,-0.00780011582430452
1761431211845464300,5.39546435546875,0.03861293151080608,-0.007097077554906718,0.009255045606661587
1761431211865408300,5.415408203125,0.04265373133420944,0.0008596444700611754,0.02224515868895687
1761431211885351200,5.43535107421875,0.04220481852293014,-0.00011330591505393386,0.017872176902275532
1761431211905295000,5.455295166015625,0.04579553649127483,-0.011153312409459612,0.03509196344357915
1761431211925238000,5.475238037109375,0.057767713835835455,-0.021689607165427876,0.01194651318034157
1761431211945182200,5.49518212890625,0.04714169040322304,0.003029937713849358,0.015937582977348937
1761431211965125400,5.51512548828125,0.043100890579819674,0.0013333583624567835,0.016448245046380906
1761431211985069300,5.5350693359375,0.041302901247143746,0.021470776782976462,0.000574055294599384
1761431212005012200,5.55501220703125,0.042348610907793044,0.027006769900466313,0.0006188260180875659
1761431212024956200,5.5749560546875,0.04608955100178718,-0.000999235603841953,0.009893507906980813
1761431212044899300,5.5948994140625,0.0327735578328371,-0.016183484029816463,0.01122855590302497
1761431212064843300,5.61484326171875,0.04534545463621616,-0.013632192111806943,0.003498418308701366
1761431212084786200,5.6347861328125,0.036815526700019835,-0.009198497680411673,0.002953790037985891
1761431212104730000,5.654730224609375,0.047743747949600214,0.010337128055212088,-0.008641060160472988
1761431212124673000,5.674673095703125,0.04235445612668991,0.02903533485231455,0.008427527007646858
1761431212144617200,5.6946171875,0.043999885246157645,0.012235814983118324,0.008041285902727395
1761431212164558600,5.71455859375,0.04579729005694389,0.011283185866824351,0.017746376831829547
1761431212184502500,5.73450244140625,0.043105566754937166,0.0074518732087919485,0.004932433167193085
1761431212204445700,5.75444580078125,0.03098375180661678,0.0008229748546378687,-0.042614970226399596
1761431212224390000,5.774389892578125,0.0357715706050396,-0.008705887291301041,-0.016687150102481244
1761431212244332800,5.794332763671875,0.045348377245664595,0.005303965326747857,0.04216851423368789
1761431212264276700,5.81427685546875,0.0314314955741167,-0.012236952060856855,0.026571223460836336
1761431212284219600,5.8342197265625,0.03352525298297405,0.01247346423047129,0.00347890075747855
1761431212304163600,5.85416357421875,0.048637481918931004,0.0063841206796932965,-0.008314020163193344
1761431212324106800,5.874106689453125,0.05028232651650905,-0.005559026933205313,0.009134369235904887
1761431212344050700,5.89405078125,0.04998305130898952,0.009046617887215688,0.01576603493588045
1761431212363993600,5.91399365234375,0.034869068807363506,0.0013147221606457605,0.005204619438387454
1761431212383937500,5.9339375,0.043996378114819525,-0.00598659099577926,-0.0038234490119852123
1761431212403880700,5.953880615234375,0.04309621440470218,-0.007215429537836462,0.01112600884400308
1761431212423825000,5.973824951171875,0.02918400890827179,-0.008610861385031603,0.009197232738509774
1761431212443767800,5.993767822265625,0.04833645314574241,0.0013760649930220096,-0.0018543591624125837
1761431212463711700,6.013711669921875,0.047588265126943585,-0.00046807873605284836,-0.007851489818515255
1761431212483654700,6.033654541015625,0.04938099376261234,-0.0077829957261448725,0.005414042671676725
1761431212503598600,6.0535986328125,0.049532384932041165,-0.0001536379254423082,0.005256075630988925
1761431212523541800,6.073541748046875,0.02498714174032211,0.030558064607298,-0.0007971325939055532
1761431212543485700,6.093485595703125,0.04683481641113758,0.01060804025135003,-0.01038594019957818
1761431212563428600,6.1134287109375,0.03426233508586883,-0.003352781026624143,0.009663105817744507
1761431212583372500,6.13337255859375,0.057304772499203675,-0.016435467763198538,0.02284174547577277
1761431212603315700,6.153315673828125,0.04428454740643501,0.0007032574651064351,0.025101397503446785
1761431212623260000,6.173260009765625,0.04413607884645462,-0.020231133719114586,-0.00010786255495622753
1761431212643202800,6.193202880859375,0.035605566388368606,-0.013748671798058784,-0.0047965500941500065
1761431212663146800,6.213146728515625,0.04952186353802681,0.0036128476017620414,0.006643219140451401
1761431212683089700,6.233089599609375,0.051471244040131564,0.03599135083556175,0.032877438332419844
1761431212703033600,6.25303369140625,0.047586511561274525,0.021082074292912145,0.028621698850393295
1761431212722976800,6.272976806640625,0.026937106764316557,0.0016664308083010836,-0.011677651377394795
1761431212742920700,6.292920654296875,0.05596797093749046,-0.01755592316049151,0.011990123993204906
1761431212762863600,6.312863525390625,0.04594283600747585,-0.009294162907497957,0.005356595129705965
1761431212782807600,6.3328076171875,0.048337622189521784,-0.02704681878306437,-0.009976336485380306
1761431212802750500,6.35275048828125,0.0333750308573246,-0.028775857365643604,-0.018862904972676186
1761431212822694700,6.372694580078125,0.023648002091050148,-0.000026467881817370652,0.02068836683416739
1761431212842637800,6.392637939453125,0.04998363583087921,0.03367871281190309,0.026108875779248773
1761431212862581800,6.412581787109375,0.04743628943562507,0.03466570542210247,-0.030045466309506445
1761431212882524700,6.432524658203125,0.0525198763102293,0.0023121220004279166,-0.012517006544675677
1761431212902468600,6.452468505859375,0.04398410315513611,-0.026870087676402178,0.03335565030341968
1761431212922411800,6.472411865234375,0.0335100554138422,-0.021811776806949637,0.04064217231608927
1761431212942355700,6.492355712890625,0.0433873063057661,-0.04969212837128434,-0.00976367098223418
1761431212962298600,6.512298583984375,0.04368541246950626,-0.010064270497160032,-0.005437313949409872
1761431212982242600,6.53224267578125,0.04249298781454563,0.03564642812171951,0.007952338110795244
1761431213002185500,6.552185546875,0.04638473455607891,0.04532673166943714,0.033416577577264975
1761431213022129700,6.572129638671875,0.04368950412273407,0.03459211046292912,-0.0020311496345791964
1761431213042072800,6.59207275390625,0.042046997612714763,0.005279008982004597,-0.0038337055445183065
1761431213062016800,6.612016845703125,0.03995324020385742,-0.008055163731030188,-0.007566672394610941
1761431213081959700,6.631959716796875,0.039356443354487416,-0.04434049254448619,0.003922488939668983
1761431213101903600,6.651903564453125,0.04070668891966343,-0.02409213826251216,-0.0005250741868745535
1761431213121846800,6.6718466796875,0.04250058659911155,-0.015167201393051073,0.017235778694879262
1761431213141790700,6.691790771484375,0.03471826215982437,0.028416330737713724,0.029873269814066586
1761431213161734100,6.711734130859375,0.0460889664798975,0.039078215501573865,0.00251886008628644
1761431213181678300,6.73167822265625,0.04279986180663108,0.015904826918640175,-0.01684082456054166
1761431213201621200,6.751621337890625,0.04803133271932602,0.005413969606440514,-0.02831977502806112
1761431213221565200,6.771565185546875,0.0513216064363718,-0.035553110115346495,0.00994935714690946
1761431213241508400,6.79150830078125,0.041297640550136565,-0.04689299003889318,0.018129859724082053
1761431213261452300,6.811452392578125,0.05820961238443851,-0.03233333521808963,0.027752852727146816
1761431213281395200,6.831395263671875,0.041302901247143746,0.015096255048690364,0.0048977454463019965
1761431213301339100,6.851339111328125,0.04998422035276889,0.04547380742335226,0.024784221313055604
1761431213321282000,6.871281982421875,0.047591772258281706,0.05737045814655721,0.027948064771993086
1761431213341226000,6.89122607421875,0.037864158970117565,0.02944858269516844,-0.008961040229303762
1761431213361169200,6.911169189453125,0.032923779958486554,-0.009978345779376103,-0.0037577085657045243
1761431213381113300,6.93111328125,0.036816111221909524,-0.027430027680681087,0.0019521295816171914
1761431213401056300,6.95105615234375,0.04833645314574241,-0.04678736510679591,0.0036008740361779925
1761431213421000200,6.971000244140625,0.053430561414361,-0.01605163781107403,0.006627884574001655
1761431213440943400,6.990943359375,0.03741875329017639,0.01077827311856672,0.015555972381774336
1761431213460887300,7.01088720703125,0.03607084581255913,0.03185467115594074,0.013921941439155488
1761431213480830200,7.030830322265625,0.056119362106919285,0.047433937648334534,-0.010358358072908594
1761431213500773000,7.050773193359375,0.042052842831611634,0.030316981293843127,-0.016475854572514072
1761431213520717000,7.070717041015625,0.03352349941730499,-0.015229503206652588,0.027031269587483257
1761431213540660200,7.09066015625,0.030974399456381797,-0.030890086740371768,0.029992201752308753
1761431213560604200,7.110604248046875,0.046235681474208826,-0.05119535427477676,0.04086366957966238
1761431213580547000,7.130547119140625,0.04773205751180649,-0.02882506223565433,0.0004579911668784916
1761431213600491300,7.1504912109375,0.05102408479452133,0.007898840658157132,0.004167832869710401
1761431213620434200,7.17043408203125,0.050131519868969916,0.04752185339380521,0.027975838694907725
1761431213640378000,7.190378173828125,0.05267302104532719,0.045971824639942496,0.03871629142058082
1761431213660321300,7.2103212890625,0.04309621440470218,0.037562742037861606,0.013806388768088072
1761431213680265200,7.23026513671875,0.0436924267321825,-0.012844722395390272,-0.01142646222845651
1761431213700208000,7.2502080078125,0.047884617725014685,-0.06059349814655725,-0.030705227126181123
1761431213720152000,7.270152099609375,0.04519172537922859,-0.06260224871966057,0.01186059759571217
1761431213740095200,7.29009521484375,0.030528993776440617,-0.01586324366608169,0.028027422751672564
1761431213760039200,7.3100390625,0.04250175564289093,0.027724370984756386,0.004819072453211993
1761431213779982000,7.329982177734375,0.03800912039875984,0.05840255484038498,-0.023791949739539995
1761431213799926300,7.34992626953125,0.04548749345541,0.054726574307959526,-0.0011940686227753757
1761431213819869200,7.369869140625,0.04443710761964321,0.0036178936696378513,0.009890804493241012
1761431213839813000,7.389813232421875,0.03276362096071243,-0.06495978533097077,0.023386775605287402
1761431213859756300,7.40975634765625,0.049075873336195945,-0.03743741232487373,0.010982134260749444
1761431213879700200,7.4297001953125,0.04458732974529266,-0.02145799493321683,0.006065017393697053
1761431213899643100,7.44964306640625,0.04548573988974094,0.003996042799646966,0.009473410198232158
1761431213919586300,7.46958642578125,0.04444003022909164,0.044386140050808896,0.017753592023905366
1761431213939530200,7.4895302734375,0.05087386266887187,0.04212998602131847,0.0040139848817139865
1761431213959473200,7.50947314453125,0.040246670192480086,0.020841543535306116,0.015016741805383935
1761431213979417000,7.5294169921875,0.03620470132529735,0.0033629325278801843,0.008410703737009317
1761431213999360000,7.549360107421875,0.04263853376507759,-0.031106779964664016,0.004947603336861357
1761431214019304200,7.56930419921875,0.042488896161317825,-0.044650448976224284,0.0189315314957872
1761431214039247400,7.589247314453125,0.03650222296714783,-0.01966977350930683,0.00799066082718782
1761431214059191300,7.60919140625,0.05640168617963791,0.029368379898695274,0.030108567274129017
1761431214079134200,7.62913427734375,0.04457973096072673,0.03898294300013221,0.0029580460879951712
1761431214099078100,7.649078125,0.04951835640668869,0.030505092311045152,-0.01801927548907697
1761431214119021000,7.66902099609375,0.043532267734408374,0.004888425062107854,0.0181622458900325
1761431214138965200,7.68896533203125,0.0580488688647747,-0.027235043964697978,0.025632472172845155
1761431214158907600,7.70890771484375,0.03156301299929619,-0.05229444265705533,0.021121104828780515
1761431214178851600,7.7288515625,0.04413549432456493,-0.028499711871962062,0.0008681794029660522
1761431214198794500,7.74879443359375,0.04009469450116157,0.006028516741632483,0.004880401585856452
1761431214218738400,7.768738525390625,0.03740180215537548,0.06604700974551961,0.016559039343940093
1761431214238681600,7.788681640625,0.05371580809652805,0.04492437054677866,0.002864988376526162
1761431214258624500,7.80862451171875,0.05236906966269016,0.025002572204894383,0.016069904120126738
1761431214278568400,7.828568359375,0.05162088164389133,-0.024624747301870954,0.010662062860373406
1761431214298511600,7.84851171875,0.04563070131838321,-0.037701803448679856,0.01892363131712191
1761431214318455600,7.86845556640625,0.04623217434287071,-0.03449154073186218,-0.004405349686322733
1761431214338398500,7.8883984375,0.0478793570280075,0.0011318398744100703,-0.019932707894966005
1761431214358342700,7.9083427734375,0.035008769538998605,0.021130804238887503,-0.00037310762871056795
1761431214378285600,7.92828564453125,0.049072366204857824,0.03430577693537343,0.0027787439983338116
1761431214398229500,7.9482294921875,0.043536943909525866,0.05159697104534134,-0.006802044697664678
1761431214418172700,7.968172607421875,0.03425999699831009,0.013684123228443786,-0.02238582753497176
1761431214438116600,7.98811669921875,0.036654783180356025,-0.006166655703843571,0.014220321597531437
1761431214458059500,8.0080595703125,0.041297640550136565,-0.034691396985785106,0.02534752688477747
1761431214478002400,8.02800244140625,0.02917641012370586,-0.04454411165807396,0.003673336484190076
1761431214497946600,8.047946533203126,0.03666355100870132,-0.024000276994286102,-0.0016396204331889748
1761431214517889500,8.0678896484375,0.03786006731688976,0.026190425716014577,0.020420043887337667
1761431214537832400,8.08783251953125,0.049831660139560696,0.05415343232881278,0.02895346068856306
1761431214557776400,8.1077763671875,0.04668634785115718,0.04450641456276644,-0.002158137015113607
1761431214577719600,8.127719482421876,0.03217325385212898,0.02447937944785226,0.00011008191150613128
1761431214597663700,8.147663818359375,0.040402737537026404,-0.0024944882634328675,0.00598611607174389
1761431214617606700,8.167606689453125,0.031872809600830075,-0.04617364908866584,0.020603163635591042
1761431214637550600,8.187550537109376,0.031874563166499136,-0.040816437471029345,0.009806468944344669
1761431214657493500,8.207493408203124,0.0276847102612257,-0.010348708895151503,-0.0003686506493017077
1761431214677437400,8.2274375,0.048481999096274375,0.020169252030621282,0.018343356344290077
1761431214697380600,8.247380615234375,0.02424129180908203,0.037472068079723975,-0.0009833667478524148
1761431214717324500,8.267324462890626,0.03830781108438969,0.034651361802918834,-0.01126088727004826
1761431214737267500,8.287267333984374,0.04937631758749485,0.0015313834188971668,-0.0015488642766606062
1761431214757210400,8.30721044921875,0.03650865270793438,-0.030274525825027376,0.0255234223078005
1761431214777154600,8.327154541015625,0.04444236831665039,-0.04296441841830965,0.035545305834803725
1761431214797097700,8.34709765625,0.03396832057535648,-0.026383281406993045,0.0033362317506223913
1761431214817041700,8.367041748046875,0.0489338345170021,0.0032616823768010362,0.008874640587484463
1761431214836985600,8.386985595703125,0.02783843951821327,0.02359399318175856,0.013622794095799326
1761431214856928500,8.406928466796876,0.04190145166218281,0.03914528482183814,-0.01319113381342031
1761431214876872400,8.42687255859375,0.038760231027007104,0.014720804765843785,0.010704641626775264
1761431214896815600,8.446815673828125,0.029781390279531476,-0.004710027154744603,0.005632589926337823
1761431214916759600,8.466759521484375,0.04773848725259304,-0.025458234417368657,0.027508604775648562
1761431214936702500,8.486702392578126,0.03860825533568859,-0.036518507381668314,0.007092981335101649
1761431214956646700,8.506646728515625,0.05341653288900852,-0.025206716474867424,-0.003190009946655482
1761431214976589600,8.526589599609375,0.04054828348755836,-0.0014379284152062609,0.015254039426287636
1761431214996532700,8.54653271484375,0.03456628646850586,0.021131900217430666,0.030953311002580447
1761431215016476700,8.5664765625,0.043694764819741244,0.0175313823742792,0.006943645125441253
1761431215036419600,8.586419677734375,0.037409985461831094,0.013845017445157282,-0.0030361345591954883
1761431215056363500,8.606363525390625,0.043397243177890774,0.0009847412876086308,-0.013872220545914023
1761431215076306700,8.626306640625,0.027983400946855544,0.0019452751491451634,-0.014261375127127393
1761431215096250600,8.646250732421874,0.05132452904582023,-0.020368126470432617,0.021552692045923322
1761431215116193500,8.666193603515625,0.04369359577596187,-0.02367181222490035,0.02766370400581509
1761431215136137500,8.686137451171875,0.03067395520508289,-0.02075476943415124,0.018105912592913956
1761431215156080400,8.706080322265626,0.036507483664155,0.003359977952390909,0.017515234957076607
1761431215176025300,8.726025390625,0.041592824104428286,0.010120211068633943,-0.004186921162670478
1761431215195968500,8.745968505859375,0.034707156243920324,0.012227417047531343,0.011620523495832457
1761431215215911400,8.765911376953126,0.044129064583778375,0.011697013664990662,0.03306777327274903
1761431215235855400,8.78585546875,0.039190439137816425,0.004475537978857755,0.020390479866135864
1761431215255798300,8.80579833984375,0.03993395098149776,-0.013260696484870277,-0.004879196009458974
1761431215275742200,8.8257421875,0.04187456365525722,-0.035072044033557175,-0.0019428046308457851
1761431215295685400,8.845685302734376,0.03978197529017925,-0.014481082292413338,0.02045472247507423
1761431215315629300,8.86562939453125,0.026761750197410582,0.009706104709254577,-0.0037049919977784154
1761431215335572200,8.885572265625,0.040378772139549254,0.012992305039381608,-0.017636176189314574
1761431215355516400,8.905516357421876,0.04411678962409496,0.012822382699418813,0.009148260763939469
1761431215375459300,8.925459228515624,0.04172375700771808,-0.009961088683898561,0.024524026873754337
1761431215395403300,8.9454033203125,0.03783317930996418,-0.004026743898587301,0.02416916728778742
1761431215415346400,8.965346435546875,0.04217325434088707,-0.030931080904463303,0.020758701257174834
1761431215435289300,8.985289306640626,0.03918167130947113,-0.01459011389114894,-0.0022035196599550543
1761431215455233300,9.0052333984375,0.04052724069952965,0.010976827897969632,-0.016034321350092067
1761431215475176400,9.025176513671875,0.046668812194466586,0.02959315139816608,0.01715685910661705
1761431215495120400,9.045120361328125,0.048614101043343544,0.015623818020173347,0.0011787979884073138
1761431215515063300,9.065063232421876,0.04292728757858276,0.0013012142251012846,0.01648410181105137
1761431215535007500,9.085007568359375,0.04517302067875862,-0.02801465003506746,0.019514281553495674
1761431215554950400,9.104950439453125,0.04068389256596565,-0.012883392171654849,0.010242823668150231
1761431215574894300,9.124894287109376,0.035144963139295576,0.0008893728880444541,-0.018190723065845668
1761431215594837500,9.14483740234375,0.04801321254074573,0.014331965278461575,-0.007438972628023475
1761431215614781400,9.164781494140625,0.048912791728973386,0.04174711505041923,0.0191173272583168
1761431215634724400,9.184724365234375,0.0483107341825962,0.03293842497176956,0.010243061130167916
1761431215654668300,9.204668212890626,0.043073418051004404,-0.010908877228293567,0.004129510153317824
1761431215674611500,9.224611572265625,0.042025954824686046,-0.02607922955965623,0.009627797042345627
1761431215694554400,9.244554443359375,0.042025370302796364,-0.0168839878488332,0.006186625346215441
1761431215714498300,9.264498291015625,0.04965688809454441,0.015884254488069564,0.019819694240856913
1761431215734441200,9.284441162109376,0.04681377362310886,0.018010151467705144,-0.005710824528010562
1761431215754385400,9.304385498046875,0.05265139373540878,0.00915202819018159,0.01837116679982282
1761431215774328600,9.32432861328125,0.046366029855608934,0.012048041892633773,0.0022304350663442164
1761431215794272500,9.3442724609375,0.034841596278548236,-0.0221814001372084,0.0027654369921889153
1761431215814215400,9.36421533203125,-0.01588496687412262,-0.05725710199915338,0.0042348154250066725
1761431215834159400,9.384159423828125,0.027360300612449644,-0.041688329501310364,0.006784426842583343
1761431215854102300,9.404102294921875,0.057435120880603784,-0.016145869132899678,-0.0030748774006962775
1761431215874046200,9.424046142578124,0.048456280133128166,0.01114222475986462,-0.011977584172040224
1761431215893989400,9.4439892578125,0.05489186613857746,0.008567145540891215,-0.0025689097730908542
1761431215913932300,9.463932373046875,0.03798340143561363,0.01426138426028192,0.04409845938296057
1761431215933876200,9.483876220703126,0.049504912403225895,0.0015240403626579791,0.03344972179504111
1761431215953819400,9.5038193359375,0.04217266981899738,-0.020033716017450204,0.0028795283585321156
1761431215973763600,9.523763671875,0.05115384865403175,-0.004187428052746691,-0.00773087737984024
1761431215993706500,9.54370654296875,0.03439911320805549,0.002364208380691707,-0.022496767963003365
1761431216013650400,9.563650390625,0.027669512692093848,0.0012344097663182765,-0.01865805744980462
1761431216033593300,9.58359326171875,0.03784837687909603,0.012142442177818156,0.01918884899141267
1761431216053537300,9.603537353515625,0.0339589682251215,0.030194491991912945,0.04708623388893902
1761431216073480400,9.62348046875,0.021087796214222906,-0.0178044454283081,0.0031250914842821656
1761431216093424400,9.64342431640625,0.05759878700971603,-0.0055779690956929695,-0.012841333995060995
1761431216113367300,9.6633671875,0.03380699253380298,0.0016006081636296583,-0.016039143655681983
1761431216133310200,9.683310302734375,0.04413549432456493,0.005769459380069748,-0.016277911714464424
1761431216153254100,9.703254150390626,0.07526186947226524,0.0037671248480211942,0.0029267559005878865
1761431216173196800,9.72319677734375,0.01436170282959938,-0.008978146627731621,0.04019080268624239
1761431216193140700,9.743140625,0.05596154119670391,-0.00021061054337769746,0.035331535219959916
1761431216213083600,9.763083740234375,0.04668400976359844,-0.0004610051078721881,0.013302558298641815
1761431216233027600,9.783027587890626,0.02258943294882774,0.0008504336837213486,-0.01586813447033055
1761431216252970800,9.802970703125,0.04204290595948696,-0.0072855493317125364,-0.0013038856728002429
1761431216272914700,9.822914794921875,0.04548632441163063,0.003089385416661389,0.006923004196211695
1761431216292857600,9.842857666015625,0.04219546617269516,-0.005259112404868938,0.013358581068506464
1761431216312800800,9.86280078125,0.03545943591594696,-0.0016297748926095664,0.029956007060920817
1761431216332745000,9.882744873046875,-0.01507189692556858,0.014770859019225462,-0.011832202618289739
1761431216352687900,9.90268798828125,0.058012043985724446,0.010779697890672832,0.027904636622220275
1761431216372631800,9.9226318359375,0.07791852146089076,-0.002654697493556887,0.01808576485402882
1761431216392574700,9.94257470703125,0.047964112702012056,-0.0032691350308945402,-0.010669807775411754
1761431216412518700,9.9625185546875,0.03742576755285263,-0.012330242667766287,0.017437338282121344
1761431216432461800,9.9824619140625,0.04595101931393146,0.005732465537660755,0.0547670798482839
