time,seconds_elapsed,z,y,x
1761431206540487700,0.09048779296875,-0.0008804857498034835,-0.0025235116481781006,0.0010172816691920161
1761431206560430800,0.110430908203125,-0.0002832872560247779,-0.00140090798959136,-0.001070133177563548
1761431206580374800,0.130374755859375,0.00011254282435402274,0.0004278849810361862,0.0011490790639072657
1761431206600317700,0.150317626953125,0.0009696994093246758,0.0010347841307520866,-0.00025426619686186314
1761431206620261600,0.17026171875,-0.0006445050821639597,0.0004511638544499874,-0.0012455774703994393
1761431206640204500,0.19020458984375,-0.0004809375386685133,-0.00028375862166285515,-0.00001593900378793478
1761431206660148700,0.210148681640625,0.0009029909851960838,-0.0014250450767576694,-0.001453332370147109
1761431206680092700,0.2300927734375,-0.0009999260073527694,-0.00012410758063197136,-0.002260597888380289
1761431206700035800,0.250035888671875,-0.0003594554727897048,-0.0008067283779382706,-0.0017627322813495994
1761431206719979800,0.269979736328125,-0.0024310864973813295,0.000778107438236475,-0.00034889031667262316
1761431206739922700,0.289922607421875,0.0008207200444303453,0.0005598384886980057,0.00017687748186290264
1761431206759866600,0.30986669921875,0.003040668088942766,-0.0016455943696200848,0.0006693550385534763
1761431206779809800,0.329809814453125,0.0017010594019666314,0.0005653323605656624,0.0008407739223912358
1761431206799753700,0.349753662109375,-0.0008827918209135532,0.0010470813140273094,-0.0000786101445555687
1761431206819697700,0.36969775390625,0.0006138416356407106,0.0005524628795683384,0.0029952703043818474
1761431206839640600,0.389640625,0.0032008117996156216,-0.0007352158427238464,0.001143190311267972
1761431206859584800,0.409584716796875,0.0020391654688864946,-0.0014430438168346882,0.001219740603119135
1761431206879527700,0.429527587890625,-0.0016349807847291231,-0.0001496276818215847,-0.0010604271665215492
1761431206899472000,0.449471923828125,0.0011650914093479514,-0.0005402723327279091,-0.00041396007873117924
1761431206919414800,0.469414794921875,-0.0009028390049934387,0.001316471491008997,-0.00024008506443351507
1761431206939358700,0.489358642578125,0.0011575958924368024,0.000050387345254421234,-0.0010180540848523378
1761431206959302700,0.509302734375,-0.0009755844948813319,-0.0004260004498064518,0.0030942768789827824
1761431206979245600,0.52924560546875,-0.000027777045033872128,-0.0011831889860332012,0.000054667238146066666
1761431206999189500,0.549189453125,0.002179605420678854,0.0011373385787010193,-0.00035244086757302284
1761431207019132700,0.569132568359375,-0.001299650059081614,-0.000010848045349121094,-0.0024691508151590824
1761431207039076900,0.589076904296875,0.0009384809527546167,-0.0007064132951200008,0.0016093612648546696
1761431207059019800,0.609019775390625,-0.000949632958509028,-0.0009719254449009895,0.00014039117377251387
1761431207078963700,0.628963623046875,-0.00044816394802182913,0.0028545688837766647,-0.0009968681260943413
1761431207098907000,0.648906982421875,0.0012629268458113074,-0.0015641343779861927,0.000258486601524055
1761431207118850800,0.668850830078125,-0.0019030736293643713,0.0007012011483311653,-0.0023245764896273613
1761431207138794800,0.688794677734375,-0.000281854416243732,-0.0029551000334322453,0.00037812197115272284
1761431207158735600,0.708735595703125,0.0010405979119241238,0.0014871973544359207,0.0017476975917816162
1761431207178679600,0.728679443359375,0.0011942237615585327,0.00004320219159126282,-0.0005333884037099779
1761431207198622500,0.74862255859375,0.0006758078234270215,-0.0010041208006441593,0.0014637454878538847
1761431207218566400,0.76856640625,-0.0019340899307280779,-0.0004419274628162384,0.000052802846767008305
1761431207238509300,0.78850927734375,0.00017139094416052103,-0.0012445920147001743,0.001348193851299584
1761431207258453200,0.808453369140625,0.0009839917765930295,-0.0024496137630194426,0.000033802585676312447
1761431207278396400,0.828396484375,0.0005668777739629149,0.0006214743480086327,-0.0015459253918379545
1761431207298340600,0.848340576171875,-0.0006362753920257092,0.0026476760394871235,-0.001157695660367608
1761431207318284500,0.868284423828125,0.0016527115367352962,-0.001965451054275036,0.00028440600726753473
1761431207338227500,0.8882275390625,0.0013125871773809195,-0.0018874495290219784,-0.00047601491678506136
1761431207358171400,0.90817138671875,0.0026673232205212116,-0.0011579981073737144,-0.000430712359957397
1761431207378114600,0.928114501953125,0.0007830637623555958,0.00042246608063578606,0.0001620186958462
1761431207398058500,0.94805859375,0.000024289009161293507,0.00026995735242962837,0.00010933319572359324
1761431207418001400,0.96800146484375,-0.0007457149913534522,-0.0023302738554775715,0.0001185577129945159
1761431207437945300,0.9879453125,0.0008372918237000704,-0.001100651454180479,-0.000004094792529940605
1761431207457888300,1.00788818359375,-0.0006343608256429434,-0.0012342901900410652,-0.0010697440011426806
1761431207477832400,1.02783251953125,0.0006570445839315653,0.000937280710786581,-0.001226515043526888
1761431207497776400,1.0477763671875,0.0009993331041187048,-0.00044514378532767296,-0.0012491076486185193
1761431207517719600,1.067719482421875,0.0019163504475727677,-0.0004168250598013401,0.00223379023373127
1761431207537663500,1.08766357421875,0.0006051555974408984,0.002667519263923168,0.0011164301540702581
1761431207557606400,1.1076064453125,0.0008260175818577409,0.0015132869593799114,-0.0011970256455242634
1761431207577550300,1.12755029296875,-0.0016390432137995958,0.00009059766307473183,-0.0013236142694950104
1761431207597493500,1.147493408203125,0.0015867038164287806,0.00022123148664832115,0.0010707152541726828
1761431207617437400,1.1674375,0.00010919623309746385,-0.0020808172412216663,0.0009910570224747062
1761431207637380400,1.18738037109375,0.002065400592982769,-0.00036005908623337746,-0.00032125558936968446
1761431207657324500,1.207324462890625,0.000467425852548331,0.0007732189260423183,0.0008882781257852912
1761431207677268500,1.2272685546875,0.00003261893289163709,0.002776886336505413,-0.0023177340626716614
1761431207697211400,1.24721142578125,0.0008024051785469055,-0.0004072277806699276,-0.0021177674643695354
1761431207717155600,1.267155517578125,0.00021047794143669307,0.00002880999818444252,0.0012333996128290892
1761431207737098500,1.287098388671875,0.0012768707238137722,0.0005628434009850025,0.002310855081304908
1761431207757042400,1.30704248046875,0.0009849315974861383,-0.001131327822804451,0.0002150904620066285
1761431207776985300,1.3269853515625,0.0007666865130886436,-0.0008259378373622894,0.0011621448211371899
1761431207796929300,1.34692919921875,0.0006109692039899528,0.002644485794007778,-0.0013650183100253344
1761431207816872400,1.36687255859375,0.0007419967441819608,-0.0014541191048920155,-0.0022036477457731962
1761431207836816600,1.386816650390625,0.0003771918418351561,-0.0013797357678413391,-0.0018856946844607592
1761431207856759600,1.406759521484375,0.0007038507028482854,-0.0006965203210711479,0.000936277792789042
1761431207876703500,1.426703369140625,-0.002472525229677558,0.00023634498938918114,0.002545772586017847
1761431207896647400,1.4466474609375,0.0014069746248424053,0.002223215065896511,0.0002140046562999487
1761431207916590300,1.46659033203125,0.0006150318076834083,0.0015099314041435719,0.0006791463820263743
1761431207936534500,1.486534423828125,0.0010183360427618027,0.001524943858385086,-0.0009453526581637561
1761431207956477400,1.5064775390625,-0.0004970413283444941,-0.0010112137533724308,0.0010061238426715136
1761431207976421400,1.52642138671875,-0.00007485237438231707,0.0001268121413886547,-0.0010890753474086523
1761431207996364300,1.5463642578125,0.0008429901208728552,-0.0003521842882037163,-0.0014714375138282776
1761431208016308500,1.56630859375,-0.0019228443270549178,-0.0018981797620654106,0.0003232171293348074
1761431208036251600,1.586251708984375,-0.0031586976256221533,-0.0006136288866400719,0.0008804495446383953
1761431208056195600,1.606195556640625,0.00186671142000705,-0.001084345392882824,0.0013543826062232256
1761431208076138500,1.626138427734375,0.0008708511595614254,0.00033792294561862946,0.002304238034412265
1761431208096082400,1.64608251953125,-0.0007705753669142723,0.0009963936172425747,-0.00014916900545358658
1761431208116026400,1.6660263671875,0.0009756982908584177,0.001962617039680481,-0.00018689740682020783
1761431208135969300,1.68596923828125,-0.0017372012371197343,0.0013586822897195816,-0.00043889135122299194
1761431208155912200,1.705912109375,-0.001794737298041582,0.0030535669066011906,-0.001060066162608564
1761431208175855000,1.725855224609375,0.0006765452562831342,-0.0001555844210088253,-0.0016085018869489431
1761431208195799300,1.74579931640625,0.0018189873080700636,-0.00020939670503139496,0.0013299734564498067
1761431208215742500,1.765742431640625,0.0017278443556278944,0.0017506196163594723,-0.0017933229682967067
1761431208235686400,1.785686279296875,-0.002004793845117092,-0.0015981802716851234,-0.0003974106512032449
1761431208255629300,1.80562939453125,-0.0006035992410033941,0.0019467724487185478,-0.0035719280131161213
1761431208275573200,1.8255732421875,0.0000052192481234669685,0.0021184245124459267,-0.00180160254240036
1761431208295516200,1.84551611328125,-0.0017474583582952619,0.0008245375938713551,0.0013734451495110989
1761431208315460000,1.865460205078125,0.0032550508622080088,-0.0008171871304512024,-0.0007762379245832562
1761431208335403300,1.8854033203125,-0.002323199063539505,-0.0011560609564185143,-0.00029370764968916774
1761431208355347200,1.90534716796875,-0.0026466348208487034,0.0012719263322651386,-0.0017217920394614339
1761431208375291400,1.92529150390625,-0.0007591965259052813,-0.0006678653880953789,0.0013712351210415363
1761431208395234300,1.945234375,-0.0009570821421220899,0.001352943480014801,-0.00016788288485258818
1761431208415178200,1.96517822265625,0.0007473652367480099,-0.0001673777587711811,-0.00008443219121545553
1761431208435121400,1.985121337890625,0.0002028373710345477,0.0004950999282300472,0.001942470669746399
1761431208455065300,2.0050654296875,0.0007348641520366073,-0.0018875380046665668,0.0009177214233204722
1761431208475008300,2.02500830078125,0.00018267350969836116,-0.0011382563970983028,-0.0037137826438993216
1761431208494952200,2.0449521484375,-0.00026152905775234103,0.002806408330798149,-0.001335497130639851
1761431208514895000,2.06489501953125,0.00002083712024614215,0.0005971360951662064,-0.0008875124622136354
1761431208534839000,2.084839111328125,0.0021024970337748528,-0.00043815094977617264,0.0018090208759531379
1761431208554782200,2.1047822265625,-0.0029506850987672806,0.0011875354684889317,-0.0032258336432278156
1761431208574726400,2.124726318359375,0.000079881283454597,-0.0003878525458276272,0.000517929089255631
1761431208594670300,2.14467041015625,0.0004441477358341217,-0.0012698378413915634,0.003151529235765338
1761431208614613200,2.16461328125,-0.00029657664708793163,-0.001093030907213688,0.0015681753866374493
1761431208634557200,2.18455712890625,0.00015089614316821098,-0.0015937346033751965,0.0023777650203555822
1761431208654500400,2.204500244140625,0.0010261106071993709,-0.002502657240256667,0.0013739221030846238
1761431208674444300,2.2244443359375,0.0011697999434545636,-0.0005231201648712158,0.00035645870957523584
1761431208694387200,2.24438720703125,0.0021369694732129574,0.000002219807356595993,-0.0024954043328762054
1761431208714331100,2.2643310546875,-0.0010252224747091532,0.00022056745365262032,-0.0021192687563598156
1761431208734274000,2.284274169921875,0.0015701588708907366,0.0005689198151230812,-0.00009176507592201233
1761431208754218200,2.30421826171875,-0.0005418756045401096,-0.0007157241925597191,0.002772899344563484
1761431208774161400,2.324161376953125,-0.0012333056656643748,0.002544589340686798,-0.001126407878473401
1761431208794105300,2.344105224609375,0.0006838665576651692,0.00035119615495204926,-0.002013907302170992
1761431208814048300,2.36404833984375,0.0011254562996327877,-0.0004867697134613991,0.0003989223623648286
1761431208833992200,2.3839921875,-0.00034516368759796023,0.0005938760004937649,-0.00004018610343337059
1761431208853935400,2.403935302734375,0.0029132035560905933,0.001174686010926962,0.0002868287265300751
1761431208873879300,2.42387939453125,0.0011000406229868531,0.0026425221003592014,-0.0004221273120492697
1761431208893823200,2.4438232421875,-0.0022303354926407337,-0.0015921271406114101,0.0005106632597744465
1761431208913766100,2.46376611328125,0.001380925765261054,0.00024696439504623413,0.0020541497506201267
1761431208933710300,2.48371044921875,0.000654436822514981,0.0010410402901470661,0.001309401006437838
1761431208953653200,2.5036533203125,-0.0006432062946259975,0.002537679858505726,0.001739551080390811
1761431208973597200,2.52359716796875,0.0019527088152244687,-0.00009087752550840378,0.0000888030044734478
1761431208993540400,2.543540283203125,0.0006174470763653517,0.00032409513369202614,0.0012575120199471712
1761431209013484300,2.563484375,0.0008657555445097387,-0.0006441683508455753,0.0018391223857179284
1761431209033427200,2.58342724609375,0.0006947474321350455,-0.0016131727024912834,0.00018917745910584927
1761431209053371100,2.60337109375,0.0005627592909149826,-0.002759271766990423,-0.0005244663334451616
1761431209073314300,2.623314208984375,-0.0023302987683564425,0.00011534849181771278,0.0019244037102907896
1761431209093258200,2.64325830078125,-0.0001848533283919096,0.0007106559351086617,-0.0012529910309240222
1761431209113201200,2.663201171875,-0.0017226533964276314,-0.002045704983174801,0.0002674094866961241
1761431209133145300,2.683145263671875,0.0010852115228772163,-0.0009544659405946732,-0.003234242554754019
1761431209153088800,2.7030888671875,0.0019935122691094875,0.0004646172747015953,-0.00012723944382742047
1761431209173032700,2.72303271484375,-0.0009149762336164713,0.0008325884118676186,-0.0019088962581008673
1761431209192976600,2.7429765625,0.0011483534472063184,-0.0005494728684425354,0.0023423279635608196
1761431209212919800,2.762919921875,0.0010943906381726265,-0.001219533383846283,-0.0005032492917962372
1761431209232863700,2.78286376953125,-0.00008898816304281354,0.0008207559585571289,-0.0012746064458042383
1761431209252806700,2.802806640625,0.0003922826435882598,-0.0028115268796682358,0.0015510699013248086
1761431209272750600,2.82275048828125,0.0018988338997587562,-0.0023774076253175735,0.001034579356200993
1761431209292693500,2.842693603515625,0.0021584550850093365,-0.0024772831238806248,-0.000658513861708343
1761431209312637700,2.8626376953125,-0.00018709379946812987,-0.0009529944509267807,-0.0001431773998774588
1761431209332580900,2.882580810546875,-0.0007769514340907335,-0.000976222101598978,0.0015939600998535752
1761431209352524800,2.90252490234375,0.0019801429007202387,0.001611095853149891,-0.001417265273630619
1761431209372467700,2.9224677734375,-0.0004433732246980071,-0.0012132138945162296,-0.0020031542517244816
1761431209392411600,2.94241162109375,0.0008045067661441863,-0.0017975396476686,-0.00029495643684640527
1761431209412354800,2.962354736328125,-0.00030921364668756723,-0.002407575724646449,0.0010560727678239346
1761431209432298800,2.982298828125,-0.001034487853758037,-0.0006995787844061852,0.000009336625225841999
1761431209452241700,3.00224169921875,0.00007511995499953628,-0.00010028202086687088,-0.00045891577610746026
1761431209472185600,3.022185546875,0.0013232099590823054,0.0004023788496851921,0.0010785596678033471
1761431209492128500,3.04212841796875,-0.00010392366675660014,0.0027174362912774086,0.001342972507700324
1761431209512072700,3.06207275390625,0.0011213920079171658,-0.002537753898650408,-0.0007486655958928168
1761431209532015900,3.082015869140625,-0.00038436654722318053,-0.0008696769364178181,0.00013240613043308258
1761431209551959800,3.101959716796875,0.0006275942432694137,-0.0014934944920241833,-0.0020779725164175034
1761431209571903700,3.12190380859375,0.0011352039873600006,-0.0006086681969463825,-0.0010857863817363977
1761431209591846700,3.1418466796875,-0.00007288268534466624,0.0005089277401566505,0.002814110368490219
1761431209611790600,3.16179052734375,-0.0007271119393408298,-0.002539995824918151,-0.0004567704745568335
1761431209631733800,3.181733642578125,-0.0006738502997905016,-0.0006721774116158485,0.0005084214499220252
1761431209651677700,3.201677734375,0.000015505007468163967,0.000023286323994398117,-0.001184755121357739
1761431209671620600,3.22162060546875,-0.00029376643942669034,-0.0026543359272181988,-0.0025448990054428577
1761431209691564800,3.241564697265625,0.001525428146123886,-0.00019893329590559006,0.0007431963458657265
1761431209711507700,3.2615078125,0.0022264986764639616,-0.0006112037226557732,-0.00032987073063850403
1761431209731451600,3.28145166015625,-0.0007689114427193999,-0.001112423837184906,-0.0025906055234372616
1761431209751394800,3.301394775390625,0.0005508669419214129,-0.00026331376284360886,-0.0009525996283628047
1761431209771338800,3.3213388671875,0.0012358641251921654,0.0011287429369986057,-0.0035233001690357924
1761431209791281700,3.34128173828125,0.001788891153410077,-0.0012291576713323593,0.0005374870961531997
1761431209811225600,3.3612255859375,0.0015369831817224622,0.000006720423698425293,0.0007214884972199798
1761431209831168800,3.381168701171875,0.0007939979550428689,0.0004886793904006481,-0.0005793110467493534
1761431209851112700,3.40111279296875,0.0022171088494360447,-0.00024826638400554657,0.0008111343486234546
1761431209871055600,3.4210556640625,0.0009237161721102893,-0.0010660812258720398,-0.0002228153753094375
1761431209890999800,3.440999755859375,0.0022574462927877903,0.0010880040936172009,-0.001465516397729516
1761431209910942700,3.460942626953125,-0.0012157304445281625,-0.000264014583081007,-0.000889820046722889
1761431209930886700,3.48088671875,0.002781274961307645,-0.0007944242097437382,0.001653695129789412
1761431209950829800,3.500829833984375,0.0020745648071169853,-0.002287554554641247,0.0005592182278633118
1761431209970773800,3.520773681640625,-0.0013987646671012044,-0.0004522292874753475,0.002578462939709425
1761431209990717700,3.5407177734375,-0.0012981118634343147,-0.0001583094708621502,-0.00018108048243448138
1761431210010660600,3.56066064453125,0.0027476984541863203,-0.00012205773964524269,-0.001509808818809688
1761431210030604500,3.5806044921875,0.0002869302115868777,0.0012329453602433205,0.003689693985506892
1761431210050547700,3.600547607421875,-0.0006458117859438062,-0.002512728562578559,-0.0005385600961744785
1761431210070492000,3.620491943359375,0.0010243698488920927,0.0004001990891993046,0.0016263136640191078
1761431210090434800,3.640434814453125,-0.001308513106778264,0.000004093628376722336,-0.0004863906651735306
1761431210110378800,3.660378662109375,-0.0015021885046735406,-0.0024439606349915266,-0.004719884134829044
1761431210130321700,3.68032177734375,-0.0007987436838448048,-0.0013452814891934395,-0.0016034541185945272
1761431210150265600,3.700265625,-0.0009850927162915468,0.0007839580066502094,-0.0024631451815366745
1761431210170209300,3.720209228515625,0.0010233341017737985,0.0011060857214033604,0.000752055668272078
1761431210190153500,3.740153564453125,-0.0005556020187214017,0.0010697492398321629,0.0009159490000456572
1761431210210096400,3.760096435546875,0.0022197288926690817,-0.0006441227160394192,0.004471863619983196
1761431210230040300,3.780040283203125,-0.00013936887262389064,-0.0015795030631124973,0.001668717828579247
1761431210249983200,3.799983154296875,-0.0002547897747717798,0.0006880215369164944,-0.00035100599052384496
1761431210269927200,3.81992724609375,-0.000497729517519474,0.0010897968895733356,0.001975038554519415
1761431210289870300,3.839870361328125,-0.0010991205926984549,-0.0022101933136582375,-0.00130281422752887
1761431210309814300,3.859814208984375,-0.001447484828531742,0.002585883252322674,-0.0026824851520359516
1761431210329757200,3.879757080078125,0.0026537305675446987,0.00043501099571585655,0.0011188030475750566
1761431210349701400,3.899701416015625,0.0021454328671097755,-0.001461339183151722,0.0005785005632787943
1761431210369644300,3.919644287109375,0.0023259082809090614,-0.0009839092381298542,-0.00045109225902706385
1761431210389588500,3.93958837890625,0.0020121471025049686,0.0012860652059316635,-0.00010777160059660673
1761431210409531400,3.959531494140625,-0.0007794343400746584,-0.000005564186722040176,-0.0011044342536479235
1761431210429475300,3.979475341796875,0.0009755567298270762,-0.0007600225508213043,0.001011030049994588
1761431210449417500,3.99941748046875,0.0010221772827208042,0.002337282057851553,-0.0012658861232921481
1761431210469361400,4.019361328125,-0.000024465727619826794,-0.002760618459433317,-0.00018964370246976614
1761431210489304300,4.03930419921875,0.0005187885253690183,-0.000011857599020004272,-0.0005381157388910651
1761431210509248300,4.059248291015625,-0.000827656127512455,-0.0024008206091821194,0.0004237063694745302
1761431210529191200,4.079191162109375,0.0008952491916716099,-0.000011798925697803497,0.0036240483168512583
1761431210549135000,4.099135009765625,-0.000360403792001307,-0.0026763775385916233,0.00012719223741441965
1761431210569078300,4.119078369140625,0.0006669259164482355,0.0001747002825140953,-0.0006315804203040898
1761431210589022500,4.1390224609375,-0.0004317631246522069,0.0014499719254672527,-0.000005987472832202911
1761431210608965400,4.15896533203125,-0.0004937962512485683,0.0003319014795124531,-0.00043251289753243327
1761431210628909300,4.178909423828125,-0.0029707695357501507,0.00036506354808807373,0.0018363960552960634
1761431210648852200,4.198852294921875,-0.0001626214070711285,0.0018463977612555027,-0.0000835611717775464
1761431210668796400,4.21879638671875,-0.0014924363931640983,0.0022659525275230408,-0.0021972262766212225
1761431210688739300,4.2387392578125,0.0027793997433036566,-0.0009045149199664593,0.0014202757738530636
1761431210708683300,4.258683349609375,0.00020376421161927283,-0.00034324033185839653,0.0006029728101566434
1761431210728626200,4.278626220703125,0.0009904943872243166,-0.0002532447688281536,-0.0012982955668121576
1761431210748570000,4.298570068359375,0.0006122739287093282,-0.002218046225607395,-0.00019300420535728335
1761431210768513300,4.31851318359375,-0.0004382405604701489,-0.0015488183125853539,-0.000469615391921252
1761431210788457500,4.33845751953125,-0.00016594288172200322,0.00046933768317103386,0.0004357720026746392
1761431210808400400,4.358400390625,0.004093148745596409,0.00032463017851114273,-0.000896369805559516
1761431210828344300,4.37834423828125,-0.0002638700243551284,-0.0005105352029204369,-0.0012293400941416621
1761431210848288300,4.398288330078125,-0.0011538928374648094,-0.0007974854670464993,0.0023932037875056267
1761431210868231400,4.4182314453125,-0.0011566805187612772,0.0001632431522011757,0.00043482938781380653
1761431210888175400,4.43817529296875,-0.0014034479390829802,0.0006693955510854721,-0.00031146674882620573
1761431210908118300,4.4581181640625,-0.0010709103662520647,-0.0004277462139725685,0.001264170277863741
1761431210928062200,4.478062255859375,-0.0010788430226966739,-0.0021430039778351784,0.0009535637218505144
1761431210948005000,4.498005126953125,0.0018675884930416942,-0.0009938948787748814,0.0014185081236064434
1761431210967949300,4.51794921875,0.00037747304304502904,-0.0005055433139204979,0.0024963337928056717
1761431210987892500,4.537892578125,0.0017961595440283418,-0.001276184804737568,-0.002772072097286582
1761431211007836400,4.55783642578125,0.0004429311375133693,0.0006378176622092724,-0.0024497443810105324
1761431211027779300,4.577779296875,-0.0010555805638432503,-0.001817334908992052,0.0025739986449480057
1761431211047723300,4.59772314453125,0.0022760152351111174,-0.001098009292036295,0.0014520076802000403
1761431211067666200,4.617666259765625,-0.0009867718908935785,-0.0004500020295381546,-0.004536295775324106
1761431211087610400,4.6376103515625,0.0007503830129280686,0.00035972287878394127,-0.00007366936188191175
1761431211107553300,4.65755322265625,-0.0008805692195892334,-0.0017781234346330166,0.0015245801769196987
1761431211127497500,4.67749755859375,0.001172587275505066,0.0008597127161920071,0.0017122748540714383
1761431211147440400,4.6974404296875,-0.0004608022572938353,-0.000049655791372060776,-0.0018750294111669064
1761431211167385300,4.71738525390625,-0.0015134674031287432,-0.0005250228568911552,0.003253226401284337
1761431211187328300,4.737328369140625,-0.002388249384239316,0.004240925889462233,-0.002018577652052045
1761431211207272200,4.757272216796875,0.000017823156667873263,-0.0008751768618822098,-0.0011155041866004467
1761431211227215400,4.77721533203125,0.00012567604426294565,-0.0012176535092294216,-0.0002668278757482767
1761431211247159300,4.7971591796875,0.0004681346472352743,0.0002378411591053009,0.0013110539875924587
1761431211267102200,4.817102294921875,-0.0011503819841891527,0.0016233236528933048,0.0017436440102756023
1761431211287046100,4.837046142578125,-0.0008852997561916709,0.0015251142904162407,-0.0003799354308284819
1761431211306989300,4.8569892578125,0.0007934909663163126,-0.002053886651992798,-0.000516950327437371
1761431211326933200,4.876933349609375,0.000969558022916317,-0.0008395593613386154,-0.00034773501101881266
1761431211346877400,4.89687744140625,0.0007165182032622397,0.002704987768083811,-0.0027295055333524942
1761431211366820400,4.9168203125,-0.00010843019117601216,0.00043848855420947075,-0.0002951069036498666
1761431211386764300,4.936764404296875,0.003284271340817213,-0.0005379091016948223,0.0006641634972766042
1761431211406707200,4.956707275390625,0.003555190283805132,-0.0014546457678079605,0.0008678179001435637
1761431211426651100,4.976651123046875,0.00037172905285842717,0.0004773051477968693,-0.000022589578293263912
1761431211446594300,4.99659423828125,0.0011461154790595174,-0.0011671432293951511,-0.0035800221376121044
1761431211466538200,5.016538330078125,0.0009508624207228422,0.0009979498572647572,0.000297958729788661
1761431211486481200,5.036481201171875,-0.002163240220397711,-0.0025032281409949064,0.0024206615053117275
1761431211506425000,5.056425048828125,-0.00018085911870002747,0.003599095158278942,-0.00018233770970255136
1761431211526368300,5.0763681640625,-0.00429943110793829,0.00007540080696344376,-0.0004009745316579938
1761431211546312400,5.0963125,-0.0005692850099876523,-0.000016028992831707,0.0010728269116953015
1761431211566255400,5.11625537109375,0.0009082664619199932,-0.0012229452840983868,-0.00183737778570503
1761431211586199300,5.13619921875,-0.0015628470573574305,0.001983244903385639,-0.0024426663294434547
1761431211606142200,5.15614208984375,-0.0007328305509872735,-0.0006519239395856857,-0.0035007470287382603
1761431211626086100,5.176086181640625,0.0008825026452541351,-0.004590077791363001,0.00173666060436517
1761431211646029300,5.196029296875,0.0019064012449234724,0.0027013435028493404,-0.00039974594255909324
1761431211665973200,5.21597314453125,0.0007388448575511575,0.000051159411668777466,-0.0004231720813550055
1761431211685916200,5.235916259765625,-0.0002758942428044975,-0.00017504533752799034,0.002380786929279566
1761431211705860000,5.255860107421875,0.00028420015587471426,0.0016539692878723145,0.0002865369897335768
1761431211725803300,5.27580322265625,0.0000774656655266881,0.0021500689908862114,-0.0010022238129749894
1761431211745747200,5.295747314453125,-0.0020966590382158756,0.00081596989184618,-0.0007677469402551651
1761431211765690400,5.3156904296875,-0.0014196111587807536,0.0009126332588493824,-0.0016230817418545485
1761431211785634300,5.33563427734375,0.0003532078117132187,0.0014196820557117462,-0.0022941846400499344
1761431211805577200,5.3555771484375,-0.0010776545386761427,-0.0006387992762029171,-0.00019467948004603386
1761431211825521200,5.375521240234375,0.0017528659664094448,-0.00024906033650040627,-0.00013559777289628983
1761431211845464300,5.39546435546875,0.0002718038158491254,-0.0006898036226630211,0.00030915788374841213
1761431211865408300,5.415408203125,0.000451600702945143,0.0004728538915514946,0.0009100445313379169
1761431211885351200,5.43535107421875,0.0014575341483578086,0.0010507726110517979,-0.0022809484507888556
1761431211905295000,5.455295166015625,0.00022564137179870158,-0.0004186048172414303,0.002285463036969304
1761431211925238000,5.475238037109375,0.0009289225563406944,0.0007720207795500755,0.0016214416828006506
1761431211945182200,5.49518212890625,-0.0004922895459458232,-0.0014306483790278435,0.0002031333278864622
1761431211965125400,5.51512548828125,0.0006368138128891587,-0.0007603336125612259,0.0025666833389550447
1761431211985069300,5.5350693359375,-0.00014081125846132636,0.0007999995723366737,0.00029177230317145586
1761431212005012200,5.55501220703125,-0.0000354655203409493,-0.001261107623577118,-0.0013838091399520636
1761431212024956200,5.5749560546875,0.0006763681885786355,0.0005740723572671413,0.00068330904468894
1761431212044899300,5.5948994140625,-0.0012651870492845774,-0.0010823835618793964,-0.0010454910807311535
1761431212064843300,5.61484326171875,0.000694053596816957,-0.001241870690137148,0.0001831140834838152
1761431212084786200,5.6347861328125,0.0005270245601423085,0.00014579948037862778,0.00006410840433090925
1761431212104730000,5.654730224609375,0.0008998591220006347,0.0007634237408638,-0.002203624462708831
1761431212124673000,5.674673095703125,0.0022679264657199383,0.0013041733764111996,-0.0029246476478874683
1761431212144617200,5.6946171875,0.0014049860183149576,0.00027818791568279266,-0.0015333369374275208
1761431212164558600,5.71455859375,0.0005299816257320344,-0.000859774649143219,0.0004768264479935169
1761431212184502500,5.73450244140625,0.00037186071858741343,-0.0011539584957063198,0.002149888314306736
1761431212204445700,5.75444580078125,-0.0013728440972045064,0.0015028989873826504,0.00004399125464260578
1761431212224390000,5.774389892578125,-0.0016056622844189405,0.00044427672401070595,0.0006053387187421322
1761431212244332800,5.794332763671875,-0.0011086543090641499,0.0016627423465251923,-0.001097543747164309
1761431212264276700,5.81427685546875,0.00029416149482131004,0.0002812780439853668,0.0031152295414358377
1761431212284219600,5.8342197265625,0.0020063843112438917,-0.0015363506972789764,0.0020434355828911066
1761431212304163600,5.85416357421875,-0.00007051328429952264,-0.000005754642188549042,0.0008572455262765288
1761431212324106800,5.874106689453125,-0.0007369967643171549,-0.000647897832095623,0.00003988121170550585
1761431212344050700,5.89405078125,-0.0022580502554774284,0.0011621378362178802,0.00020425545517355204
1761431212363993600,5.91399365234375,0.000006297050276771188,-0.0014596981927752495,0.0013536226470023394
1761431212383937500,5.9339375,0.002914618933573365,-0.0008232602849602699,0.0009297290816903114
1761431212403880700,5.953880615234375,0.0005463427514769137,-0.0020562675781548023,-0.0001569164451211691
1761431212423825000,5.973824951171875,-0.0009275279007852077,0.0004485207609832287,-0.0005447064177133143
1761431212443767800,5.993767822265625,0.00011923036072403193,-0.001263684593141079,0.002476966008543968
1761431212463711700,6.013711669921875,-0.002286709612235427,-0.0014930563047528267,0.002476503374055028
1761431212483654700,6.033654541015625,0.00132467329967767,-0.002119151409715414,0.0011919595999643207
1761431212503598600,6.0535986328125,-0.0002601941814646125,-0.00036828406155109406,0.0024995366111397743
1761431212523541800,6.073541748046875,0.000810863624792546,0.0014149099588394165,0.00035848142579197884
1761431212543485700,6.093485595703125,-0.001242662314325571,0.00025758007541298866,-0.00018430990166962147
1761431212563428600,6.1134287109375,0.00034764944575726986,0.00008378410711884499,0.0005407279822975397
1761431212583372500,6.13337255859375,-0.0008070713374763727,-0.0004269862547516823,0.00022337643895298243
1761431212603315700,6.153315673828125,0.00010376542923040688,0.0016359235160052776,0.0008497671224176884
1761431212623260000,6.173260009765625,0.000933198956772685,-0.0018144878558814526,0.0020223078317940235
1761431212643202800,6.193202880859375,0.002511874306946993,-0.0008493363857269287,-0.0010263962903991342
1761431212663146800,6.213146728515625,-0.0012075112899765372,0.0012586535885930061,-0.0006263990653678775
1761431212683089700,6.233089599609375,0.001486556138843298,0.002215278334915638,0.00008154194802045822
1761431212703033600,6.25303369140625,0.00057540915440768,0.0015155798755586147,-0.002895273035392165
1761431212722976800,6.272976806640625,-0.00024368322920054197,-0.0003619757480919361,0.00030201429035514593
1761431212742920700,6.292920654296875,0.00045314550516195595,-0.001111901830881834,0.00015104911290109158
1761431212762863600,6.312863525390625,0.00031364569440484047,-0.0014082184061408043,0.0017417588969692588
1761431212782807600,6.3328076171875,-0.0005433199694380164,0.000451402273029089,-0.0006320911925286055
1761431212802750500,6.35275048828125,0.0016067815013229847,-0.0011130087077617645,-0.00017707212828099728
1761431212822694700,6.372694580078125,-0.0012521401513367891,0.002087058499455452,-0.0009197882609441876
1761431212842637800,6.392637939453125,0.0004668901674449444,0.00011629099026322365,0.002376587362959981
1761431212862581800,6.412581787109375,-0.000342151295626536,-0.0019874260760843754,0.0031510707922279835
1761431212882524700,6.432524658203125,0.0004742761957459152,-0.002736110705882311,0.00038354273419827223
1761431212902468600,6.452468505859375,0.0010765526676550508,-0.0005051428452134132,0.0003964488860219717
1761431212922411800,6.472411865234375,-0.0012123393826186657,0.0026775491423904896,-0.00025172578170895576
1761431212942355700,6.492355712890625,0.0003066652570851147,0.0004545883275568485,0.0001111798919737339
1761431212962298600,6.512298583984375,0.000289621006231755,-0.0011688745580613613,-0.002545589581131935
1761431212982242600,6.53224267578125,-0.000656600168440491,-0.002099116798490286,0.0001921399962157011
1761431213002185500,6.552185546875,-0.0009613113361410797,-0.0005722269415855408,0.0011981960851699114
1761431213022129700,6.572129638671875,-0.00012638902990147471,-0.001003835815936327,-0.0027521182782948017
1761431213042072800,6.59207275390625,-0.0008748795371502638,0.0001020943745970726,0.00028089398983865976
1761431213062016800,6.612016845703125,0.0017817732878029346,-0.00011454010382294655,0.0017425246769562364
1761431213081959700,6.631959716796875,-0.0019312337972223759,0.002038859762251377,-0.000570085016079247
1761431213101903600,6.651903564453125,0.0018970277160406113,-0.001768878661096096,0.0003364769509062171
1761431213121846800,6.6718466796875,0.0015096993884071708,-0.0005152793601155281,0.0025762938894331455
1761431213141790700,6.691790771484375,0.0007415786385536194,-0.0007628449238836765,0.00038667453918606043
1761431213161734100,6.711734130859375,-0.00005501954001374543,-0.000726065132766962,0.0003672572784125805
1761431213181678300,6.73167822265625,0.0018693532329052687,-0.0009807529859244823,0.0026328270323574543
1761431213201621200,6.751621337890625,0.0005754459416493773,-0.001207313034683466,-0.00041914230678230524
1761431213221565200,6.771565185546875,0.000044473883463069797,0.000493041705340147,-0.0005714455619454384
1761431213241508400,6.79150830078125,0.0010490429122000933,-0.0018100040033459663,-0.00046007533092051744
1761431213261452300,6.811452392578125,0.0016469004331156611,0.0024536754935979843,-0.0019398520234972239
1761431213281395200,6.831395263671875,-0.00026404368691146374,0.0003466550260782242,0.00007637310773134232
1761431213301339100,6.851339111328125,0.0004636555095203221,0.0008836877532303333,-0.0006481188465841115
1761431213321282000,6.871281982421875,-0.0014590233331546187,0.0015197908505797386,-0.001039982191286981
1761431213341226000,6.89122607421875,-0.0005406843265518546,-0.00027752015739679337,0.002299257554113865
1761431213361169200,6.911169189453125,-0.0014692263212054968,0.0015846602618694305,0.0011378810741007328
1761431213381113300,6.93111328125,0.001111603225581348,-0.00021671084687113762,-0.0014806058024987578
1761431213401056300,6.95105615234375,-0.00025457580341026187,0.00010986393317580223,-0.004267573822289705
1761431213421000200,6.971000244140625,-0.002729389350861311,-0.002155883703380823,-0.00147344172000885
1761431213440943400,6.990943359375,-0.0005562098231166601,-0.0008141547441482544,-0.00017107115127146244
1761431213460887300,7.01088720703125,0.0010213232599198818,-0.0021213735453784466,0.0005502252606675029
1761431213480830200,7.030830322265625,0.0007663719588890672,-0.001641260925680399,0.0014784657396376133
1761431213500773000,7.050773193359375,-0.001018689712509513,0.002657731994986534,-0.00006766826845705509
1761431213520717000,7.070717041015625,0.0003101714828517288,0.0020344844087958336,0.0002870440948754549
1761431213540660200,7.09066015625,0.0005392416496761143,-0.00013432186096906662,0.003418636042624712
1761431213560604200,7.110604248046875,-0.0028142258524894714,-0.00042600231245160103,-0.00090572121553123
1761431213580547000,7.130547119140625,0.00014247288345359266,0.0008442862890660763,0.003126978874206543
1761431213600491300,7.1504912109375,0.0021293971221894026,0.00037182634696364403,-0.0001040095230564475
1761431213620434200,7.17043408203125,0.0021200389601290226,0.0005175275728106499,0.0007711860816925764
1761431213640378000,7.190378173828125,-0.00009044696344062686,0.000019180122762918472,0.001601616619154811
1761431213660321300,7.2103212890625,-0.0010856324806809425,0.001443945337086916,-0.0009705460397526622
1761431213680265200,7.23026513671875,-0.0031236475333571434,-0.001512065064162016,0.0005690554389730096
1761431213700208000,7.2502080078125,-0.0016292431391775608,0.0013081086799502373,-0.00010159984230995178
1761431213720152000,7.270152099609375,0.0011329642729833722,-0.00017662718892097473,-0.0010968315182253718
1761431213740095200,7.29009521484375,-0.0007436039159074426,0.00129221985116601,0.0010502809891477227
1761431213760039200,7.3100390625,0.0017405522521585226,0.0005507678724825382,0.0027889744378626347
1761431213779982000,7.329982177734375,-0.00018898851703852415,-0.0007989793084561825,-0.00006210862193256617
1761431213799926300,7.34992626953125,0.000945770472753793,-0.0034403386525809765,-0.0018132803961634636
1761431213819869200,7.369869140625,-0.000837584666442126,0.0006485809572041035,0.0014365470269694924
1761431213839813000,7.389813232421875,-0.002002153778448701,0.001147946808487177,-0.0001522446982562542
1761431213859756300,7.40975634765625,0.0018021923024207354,-0.0002863965928554535,0.00014092237688601017
1761431213879700200,7.4297001953125,-0.0002999204443767667,-0.00008586235344409943,-0.0008180812583304942
1761431213899643100,7.44964306640625,0.001568163512274623,-0.0015664533711969852,0.001428940100595355
1761431213919586300,7.46958642578125,-0.0007259453414008021,0.0011115516535937786,0.000636439654044807
1761431213939530200,7.4895302734375,-0.00022890744730830193,-0.0016421708278357983,-0.0007710110512562096
1761431213959473200,7.50947314453125,-0.001588589046150446,-0.000848845113068819,0.000039430102333426476
1761431213979417000,7.5294169921875,0.0019225568976253271,-0.00040927622467279434,0.002328199800103903
1761431213999360000,7.549360107421875,-0.0011207159841433167,-0.0014070933684706688,0.0020034965127706528
1761431214019304200,7.56930419921875,0.0000665989937260747,0.002572809811681509,0.0006245534168556333
1761431214039247400,7.589247314453125,-0.00015259161591529846,0.0008404864929616451,-0.0018436710815876722
1761431214059191300,7.60919140625,0.00009934222907759249,-0.001002475619316101,-0.0000262334942817688
1761431214079134200,7.62913427734375,-0.0005490434123203158,-0.0006735664792358875,0.0006863442249596119
1761431214099078100,7.649078125,0.0018377924570813775,-0.000737073365598917,0.0021921824663877487
1761431214119021000,7.66902099609375,0.00007075050962157547,-0.0007023364305496216,-0.00016671197954565287
1761431214138965200,7.68896533203125,0.0005420728703029454,0.000173923559486866,0.00011782441288232803
1761431214158907600,7.70890771484375,0.00003028154605999589,0.0035241134464740753,-0.00024127867072820663
1761431214178851600,7.7288515625,0.0016423037741333246,-0.00019823387265205383,-0.001652281149290502
1761431214198794500,7.74879443359375,0.00011774621088989079,-0.0013888347893953323,0.00037041795440018177
1761431214218738400,7.768738525390625,0.0017576590180397034,0.001421529334038496,0.0003371848724782467
1761431214238681600,7.788681640625,0.0004971018643118441,0.0003343154676258564,0.00002659042365849018
1761431214258624500,7.80862451171875,-0.00007568229921162128,-0.0002597663551568985,-0.0014997232938185334
1761431214278568400,7.828568359375,0.0015277855563908815,-0.0006608790718019009,-0.0015946580097079277
1761431214298511600,7.84851171875,0.0009058780269697309,0.0012174327857792377,0.0015885761240497231
1761431214318455600,7.86845556640625,-0.00008117270772345364,0.002019998151808977,-0.0004775740089826286
1761431214338398500,7.8883984375,0.001818234333768487,0.0019875364378094673,-0.0005699016037397087
1761431214358342700,7.9083427734375,-0.002251342171803117,-0.00024792132899165154,0.0012048289645463228
1761431214378285600,7.92828564453125,-0.001169088645838201,0.000019898638129234314,-0.002587490249425173
1761431214398229500,7.9482294921875,0.00013501316425390542,0.0004931404255330563,-0.00046868500066921115
1761431214418172700,7.968172607421875,0.0010805397760123014,0.00022742105647921562,0.002545416820794344
1761431214438116600,7.98811669921875,0.000040613405872136354,0.0005452190525829792,-0.00150452577508986
1761431214458059500,8.0080595703125,0.0011056247167289257,-0.0006618672050535679,0.0018691992154344916
1761431214478002400,8.02800244140625,0.0007014655275270343,-0.0001973356120288372,0.0002048340393230319
1761431214497946600,8.047946533203126,0.000625729444436729,0.00021056272089481354,0.000025042681954801083
1761431214517889500,8.0678896484375,0.000030041876016184688,-0.00017659133300185204,0.0036295754835009575
1761431214537832400,8.08783251953125,0.0008328816620633006,-0.000060630496591329575,0.0005254626739770174
1761431214557776400,8.1077763671875,0.0018320766976103187,-0.0008119852282106876,0.0025719760451465845
1761431214577719600,8.127719482421876,0.0012583066709339619,0.0010709897615015507,-0.0012439076090231538
1761431214597663700,8.147663818359375,0.0024907200131565332,-0.0013243518769741058,0.0013503354275599122
1761431214617606700,8.167606689453125,0.003996347542852163,-0.0012616547755897045,-0.0013948199339210987
1761431214637550600,8.187550537109376,-0.0007079114438965917,-0.0003516273573040962,-0.0015364900464192033
1761431214657493500,8.207493408203124,0.0016029119724407792,-0.0016925837844610214,-0.002218428533524275
1761431214677437400,8.2274375,0.0008338736370205879,0.0020332899875938892,-0.0005211248644627631
1761431214697380600,8.247380615234375,0.00011248505325056612,0.002096476498991251,-0.00006391608621925116
1761431214717324500,8.267324462890626,0.0012907750206068158,0.0010512075386941433,0.0014573768712580204
1761431214737267500,8.287267333984374,-0.0027207445818930864,-0.0015003671869635582,0.0031894969288259745
1761431214757210400,8.30721044921875,-0.0009823774453252554,-0.0001921374350786209,-0.0005203005275689065
1761431214777154600,8.327154541015625,-0.0019520908826962113,0.0026389765553176403,-0.001066332682967186
1761431214797097700,8.34709765625,-0.0009439000277779996,0.000809856690466404,0.002360147424042225
1761431214817041700,8.367041748046875,-0.002064905595034361,0.0015385900624096394,-0.0018311112653464079
1761431214836985600,8.386985595703125,0.002292214659973979,0.0005985596217215061,-0.002451785374432802
1761431214856928500,8.406928466796876,0.001624765805900097,-0.0007293550297617912,0.0012932070530951023
1761431214876872400,8.42687255859375,-0.0012697118800133467,-0.0007323212921619415,-0.001533946255221963
1761431214896815600,8.446815673828125,-0.002550542587414384,0.000259574968367815,-0.0016140626976266503
1761431214916759600,8.466759521484375,-0.0007377932779490948,0.001492548268288374,-0.0001265989849343896
1761431214936702500,8.486702392578126,0.00048243493074551225,0.0012269802391529083,0.0004099251236766577
1761431214956646700,8.506646728515625,0.000017395184841006994,-0.0002522338181734085,-0.0011342898942530155
1761431214976589600,8.526589599609375,-0.002258545719087124,0.0012725014239549637,-0.000526740332134068
1761431214996532700,8.54653271484375,0.0007243268191814423,-0.0006928602233529091,0.0008765420643612742
1761431215016476700,8.5664765625,-0.0015221372013911605,0.0011600758880376816,0.0010915761813521385
1761431215036419600,8.586419677734375,-0.0015166520606726408,-0.0004905569367110729,-0.0018805114086717367
1761431215056363500,8.606363525390625,-0.00010035163722932339,0.000822944100946188,-0.0024832787457853556
1761431215076306700,8.626306640625,0.0011818860657513142,0.0009557479061186314,-0.00005704653449356556
1761431215096250600,8.646250732421874,0.0008587170159444213,-0.0003199833445250988,-0.0013971744338050485
1761431215116193500,8.666193603515625,-0.0002637367870192975,-0.0006943107582628727,-0.0008642708417028189
1761431215136137500,8.686137451171875,0.00038328769733197987,-0.0014553102664649487,-0.0016424928326159716
1761431215156080400,8.706080322265626,0.0002281571796629578,-0.00008842535316944122,0.0015309498412534595
1761431215176025300,8.726025390625,-0.0003199213242623955,-0.0012708287686109543,0.000010530580766499043
1761431215195968500,8.745968505859375,0.0029186808969825506,-0.002205908764153719,0.0003752579214051366
1761431215215911400,8.765911376953126,0.0011119781993329525,-0.0014995606616139412,0.00017135089728981256
1761431215235855400,8.78585546875,-0.0011596380500122905,-0.0018976875580847263,-0.0004951971932314336
1761431215255798300,8.80579833984375,0.00020850953296758235,-0.0035320131573826075,0.0004077809862792492
1761431215275742200,8.8257421875,0.0004569925949908793,-0.002005401998758316,0.0010705487802624702
1761431215295685400,8.845685302734376,-0.0014300541952252388,0.002149007748812437,0.0013160968665033579
1761431215315629300,8.86562939453125,-0.0013587494613602757,-0.00011803023517131805,0.0006722836988046765
1761431215335572200,8.885572265625,-0.0003629994753282517,-0.001753504853695631,0.00008371134754270315
1761431215355516400,8.905516357421876,0.000030391442123800516,0.0007290593348443508,0.0025153253227472305
1761431215375459300,8.925459228515624,0.00034890550887212157,-0.0008800225332379341,0.00009291409514844418
1761431215395403300,8.9454033203125,-0.00047990065650083125,-0.0010605272836983204,0.0024972669780254364
1761431215415346400,8.965346435546875,0.0018723177490755916,0.0007919422350823879,0.002177503891289234
1761431215435289300,8.985289306640626,0.0010436929296702147,-0.0004370477981865406,-0.0005631357780657709
1761431215455233300,9.0052333984375,0.0009134339634329081,0.0009681172668933868,-0.000243114132899791
1761431215475176400,9.025176513671875,-0.002066084649413824,0.002079368568956852,0.0022376831620931625
1761431215495120400,9.045120361328125,0.0016564743127673864,-0.0014377906918525696,0.0029981096740812063
1761431215515063300,9.065063232421876,0.0006192332948558033,0.0020230021327733994,0.0011706900550052524
1761431215535007500,9.085007568359375,0.0010019497713074088,-0.003322410397231579,-0.0013137732166796923
1761431215554950400,9.104950439453125,-0.0012076058192178607,-0.001354023814201355,-0.0014420343795791268
1761431215574894300,9.124894287109376,0.0011830009752884507,-0.0004466152749955654,-0.0019226705189794302
1761431215594837500,9.14483740234375,-0.001134052174165845,0.00011616339907050133,-0.00044027093099430203
1761431215614781400,9.164781494140625,0.00017803587252274156,-0.0005356781184673309,0.002434513531625271
1761431215634724400,9.184724365234375,-0.00022111026919446886,0.001555506605654955,0.0019369793590158224
1761431215654668300,9.204668212890626,-0.0004825303622055799,0.0012147198431193829,-0.0012063218746334314
1761431215674611500,9.224611572265625,-0.0006932269898243248,0.0013246797025203705,-0.001242358237504959
1761431215694554400,9.244554443359375,-0.00029217288829386234,0.00016617868095636368,0.0033556586131453514
1761431215714498300,9.264498291015625,0.0016279327683150768,0.002714832779020071,0.0008825815748423338
1761431215734441200,9.284441162109376,-0.0002781218208838254,-0.0010678530670702457,0.0012634352315217257
1761431215754385400,9.304385498046875,0.0025085469242185354,0.002590539399534464,-0.001177632249891758
1761431215774328600,9.32432861328125,-0.0006971253897063434,-0.0013591693714261055,0.0014984571607783437
1761431215794272500,9.3442724609375,0.002282726811245084,0.011210804805159569,-0.0019530011340975761
1761431215814215400,9.36421533203125,-0.0012061879970133305,-0.006979651283472776,-0.0036496196407824755
1761431215834159400,9.384159423828125,0.0013168920995667577,-0.005972389131784439,-0.0025034917052835226
1761431215854102300,9.404102294921875,0.00042805238626897335,0.007297482807189226,-0.000564822752494365
1761431215874046200,9.424046142578124,-0.0005158954299986362,0.005025667604058981,-0.0014451515162363648
1761431215893989400,9.4439892578125,0.00038771398249082267,0.00043379003182053566,0.00031156616751104593
1761431215913932300,9.463932373046875,-0.00031126340036280453,-0.0035275642294436693,-0.0026311990804970264
1761431215933876200,9.483876220703126,-0.0001908679259940982,-0.0015072482638061047,-0.0008715213043615222
1761431215953819400,9.5038193359375,-0.0005909348838031292,0.002894312608987093,0.0024247029796242714
1761431215973763600,9.523763671875,0.00040004929178394377,-0.00012082187458872795,-0.000059462967328727245
1761431215993706500,9.54370654296875,0.0008313162252306938,0.0013407650403678417,-0.001419414533302188
1761431216013650400,9.563650390625,0.00013537069025915116,-0.0005221869796514511,0.00043393485248088837
1761431216033593300,9.58359326171875,0.0006672454765066504,-0.000015836209058761597,-0.00010323699098080397
1761431216053537300,9.603537353515625,-0.0018409665208309889,0.0005533094517886639,-0.00005099375266581774
1761431216073480400,9.62348046875,0.0006534510175697505,0.0031814011745154858,-0.0004499567439779639
1761431216093424400,9.64342431640625,0.0010771170491352677,0.0015872051008045673,-0.003067509736865759
1761431216113367300,9.6633671875,-0.0008047958835959435,0.0023363661020994186,-0.0007065312820486724
1761431216133310200,9.683310302734375,0.0005225774366408587,0.00042578577995300293,-0.0003071536775678396
1761431216153254100,9.703254150390626,0.0007235684897750616,0.001138392835855484,0.0004079326754435897
1761431216173196800,9.72319677734375,-0.0011108610779047012,0.0033557824790477753,0.0008437243523076177
1761431216193140700,9.743140625,-0.000010842079063877463,0.0007128044962882996,0.0011865500127896667
1761431216213083600,9.763083740234375,0.000522534130141139,-0.0028307975735515356,-0.0013413071865215898
1761431216233027600,9.783027587890626,-0.000040820305002853274,-0.002199515700340271,0.0006050488445907831
1761431216252970800,9.802970703125,-0.00028576180920936167,-0.0006481544114649296,0.0009588690008968115
1761431216272914700,9.822914794921875,-0.00017472024774178863,0.000014678575098514557,-0.0005956838140264153
1761431216292857600,9.842857666015625,0.0018744294065982103,-0.0014868266880512238,0.000004874891601502895
1761431216312800800,9.86280078125,0.0009320788085460663,-0.00042620114982128143,0.0019828607328236103
1761431216332745000,9.882744873046875,-0.002097626682370901,0.024119552224874496,0.014149300754070282
1761431216352687900,9.90268798828125,-0.0009110573446378112,0.02355332113802433,0.0120495380833745
1761431216372631800,9.9226318359375,0.0004588750598486513,-0.008620594628155231,-0.005151284858584404
1761431216392574700,9.94257470703125,0.002206216799095273,-0.023754848167300224,-0.01578754372894764
1761431216412518700,9.9625185546875,-0.0011866912245750427,-0.017386220395565033,-0.0064735738560557365
1761431216432461800,9.9824619140625,-0.0014009183505550027,0.0039182137697935104,0.0014201346784830093
