time,seconds_elapsed,z,y,x
1761430219920102000,0.078101806640625,-0.03281049430370331,0.10146190226078033,0.30367857217788696
1761430219940045800,0.0980458984375,-0.07284589856863022,0.15602698922157288,0.25462907552719116
1761430219959988700,0.11798876953125,-0.08784212172031403,0.13595721125602722,0.15200790762901306
1761430219979933000,0.137932861328125,-0.052178867161273956,0.17331472039222717,0.18976092338562012
1761430219999876000,0.1578759765625,-0.04810046777129173,0.07741191983222961,0.20670436322689056
1761430220019820000,0.177820068359375,-0.03461681678891182,-0.010049140080809593,0.10543196648359299
1761430220039763000,0.197762939453125,0.0037120338529348373,-0.050594985485076904,0.00756804458796978
1761430220059707000,0.217706787109375,0.036639485508203506,-0.15328988432884216,-0.06250326335430145
1761430220079650000,0.237650146484375,0.05423448979854584,-0.2546478509902954,-0.11230330169200897
1761430220099594000,0.257593994140625,-0.0033886567689478397,0.05013182759284973,-0.08122702687978745
1761430220119538000,0.277537841796875,-0.022518975660204887,0.023113779723644257,-0.12723860144615173
1761430220139480800,0.297480712890625,0.09263501316308975,0.016871051862835884,-0.18148335814476013
1761430220159425000,0.317425048828125,0.27661699056625366,-0.08493183553218842,-0.1246960237622261
1761430220179368000,0.337367919921875,0.38534772396087646,-0.1558803766965866,0.002362841973081231
1761430220199312000,0.357311767578125,0.2885904610157013,-0.13355912268161774,-0.014572768472135067
1761430220219254800,0.3772548828125,0.2628311514854431,-0.0643828883767128,-0.08196613937616348
1761430220239198700,0.39719873046875,0.2764028012752533,-0.13284437358379364,-0.07524354755878448
1761430220259141600,0.4171416015625,0.2725066542625427,-0.17177730798721313,0.000764678989071399
1761430220279085600,0.43708544921875,0.19817006587982178,-0.11479414999485016,0.037202294915914536
1761430220299028700,0.45702880859375,0.10141801834106445,-0.014105068519711494,-0.047865428030490875
1761430220318973000,0.476972900390625,-0.02526063099503517,0.05965077877044678,-0.15496474504470825
1761430220338915800,0.496915771484375,-0.10464553534984589,0.11564025282859802,-0.15356981754302979
1761430220358859800,0.51685986328125,-0.11150604486465454,0.00841001607477665,-0.07488575577735901
1761430220378802700,0.536802734375,-0.08752749860286713,-0.051175884902477264,0.0047328900545835495
1761430220398746600,0.55674658203125,-0.049239832907915115,0.004824189003556967,0.025189530104398727
1761430220418690600,0.576690673828125,-0.05549553409218788,0.02419823221862316,-0.014382215216755867
1761430220438633700,0.5966337890625,-0.058347780257463455,-0.04273552447557449,-0.03972405567765236
1761430220458577700,0.61657763671875,-0.03487471118569374,-0.0859096422791481,-0.03120688535273075
1761430220478520600,0.6365205078125,-0.008462544530630112,-0.046572089195251465,-0.05009882152080536
1761430220498464800,0.65646484375,0.005007856525480747,0.014138821512460709,-0.08428974449634552
1761430220518408000,0.676407958984375,0.03451598063111305,0.11649130284786224,-0.038333289325237274
1761430220538351900,0.696351806640625,0.04009350389242172,0.06021799147129059,0.04460303857922554
1761430220558294800,0.716294677734375,0.05802743136882782,-0.06316260993480682,0.006528191268444061
1761430220578238700,0.73623876953125,0.038907866925001144,-0.10860005766153336,-0.13247880339622498
1761430220598181600,0.756181640625,0.015233530662953854,-0.06866990774869919,-0.20236821472644806
1761430220618125600,0.77612548828125,-0.014446401968598366,-0.019423773512244225,-0.1020180806517601
1761430220638068700,0.79606884765625,-0.06194361299276352,-0.054998382925987244,0.08060286939144135
1761430220658012700,0.8160126953125,-0.0771637111902237,-0.14020149409770966,0.20801588892936707
1761430220677955600,0.83595556640625,-0.09291377663612366,-0.14628058671951294,0.19894856214523315
1761430220697899800,0.855899658203125,-0.06523124873638153,-0.06520408391952515,0.058733273297548294
1761430220717843000,0.875843017578125,-0.06001971289515495,0.03033308871090412,-0.09641210734844208
1761430220737787000,0.895786865234375,-0.04969486966729164,0.025592463091015816,-0.13922426104545593
1761430220757730800,0.915730712890625,-0.051875267177820206,-0.11773281544446945,-0.037912726402282715
1761430220777673700,0.935673828125,-0.06531274318695068,-0.16095058619976044,0.11747860908508301
1761430220797617700,0.95561767578125,-0.0645771473646164,-0.13946786522865295,0.1706949770450592
1761430220817560600,0.975560546875,-0.08418919891119003,-0.11924365907907486,0.05582352355122566
1761430220837504500,0.99550439453125,-0.12206337600946426,-0.000682296697050333,-0.03205828368663788
1761430220857447700,1.01544775390625,-0.12358510494232178,0.07299985736608505,-0.026891348883509636
1761430220877392000,1.035391845703125,-0.10938526690006256,-0.004169652704149485,-0.006374421063810587
1761430220897334800,1.055334716796875,-0.067334845662117,-0.0593365915119648,-0.035340871661901474
1761430220917278700,1.07527880859375,-0.028530428186058998,-0.0903220921754837,-0.07346174865961075
1761430220937222000,1.095221923828125,-0.007256598211824894,-0.12293607741594315,-0.048405542969703674
1761430220957165800,1.115165771484375,-0.0057069044560194016,-0.13194315135478973,0.010110761970281601
1761430220977108700,1.135108642578125,-0.027004104107618332,-0.12004240602254868,0.014687317423522472
1761430220997052700,1.155052734375,-0.04287201538681984,-0.04557349532842636,-0.04948687553405762
1761430221016995600,1.17499560546875,-0.06593475490808487,0.02704545669257641,-0.10952772200107574
1761430221036939500,1.194939453125,-0.0844632014632225,-0.0065668439492583275,-0.11259796470403671
1761430221056883700,1.2148837890625,-0.0740617960691452,-0.05491316318511963,-0.07113099843263626
1761430221076827000,1.234826904296875,-0.06042760610580444,-0.09436587244272232,-0.036976419389247894
1761430221096770800,1.254770751953125,-0.07129426300525665,-0.08446074277162552,-0.04552791267633438
1761430221116713700,1.274713623046875,-0.07923898100852966,-0.07541753351688385,-0.05472912639379501
1761430221136657700,1.29465771484375,-0.09273625165224075,-0.10921031981706619,-0.04380115494132042
1761430221156600800,1.314600830078125,-0.1007717028260231,-0.07517923414707184,-0.02711706981062889
1761430221176544800,1.334544677734375,-0.07893721014261246,0.011979062110185623,0.0023364468943327665
1761430221196487700,1.35448779296875,-0.04974323883652687,-0.005773941054940224,0.007047378458082676
1761430221216433400,1.374433349609375,-0.022490711882710457,-0.03868086636066437,-0.01759292185306549
1761430221236376300,1.394376220703125,-0.005559299141168594,-0.05507199466228485,-0.011216731742024422
1761430221256320300,1.4143203125,-0.004968211520463228,-0.06357131153345108,-0.003096422180533409
1761430221276263200,1.43426318359375,-0.007025834172964096,-0.029399629682302475,0.035840027034282684
1761430221296207000,1.45420703125,-0.017960939556360245,0.024405106902122498,0.07304150611162186
1761430221316150300,1.474150390625,-0.03873256593942642,0.006084729451686144,0.07278555631637573
1761430221336094200,1.49409423828125,-0.03516462817788124,0.006808137055486441,0.028054622933268547
1761430221356037000,1.514037109375,0.0020360685884952545,0.08790333569049835,-0.009456368163228035
1761430221375981000,1.53398095703125,0.022165773436427116,0.04068376123905182,-0.0026653362438082695
1761430221395924000,1.553924072265625,0.02855333313345909,-0.03619005158543587,0.05020212382078171
1761430221415868200,1.5738681640625,0.027479110285639763,-0.030749810859560966,0.07708224654197693
1761430221435811300,1.593811279296875,0.021540798246860504,-0.012298474088311195,0.03691113740205765
1761430221455755300,1.61375537109375,0.032853372395038605,0.01880224235355854,-0.01690216362476349
1761430221475699200,1.63369921875,0.027133435010910034,-0.005758016370236874,-0.007536223158240318
1761430221495642000,1.65364208984375,0.020780595019459724,-0.02394879050552845,0.036543551832437515
1761430221515586000,1.6735859375,0.007056663744151592,-0.0029249456711113453,0.05413539707660675
1761430221535529200,1.693529296875,0.001629671547561884,-0.012534108944237232,0.030281860381364822
1761430221555473200,1.71347314453125,-0.01763932593166828,-0.02276122197508812,-0.005337367299944162
1761430221575416000,1.733416015625,-0.03514052554965019,0.04067619517445564,-0.023318883031606674
1761430221595360300,1.7533603515625,-0.06353012472391129,0.11832112073898315,-0.021029379218816757
1761430221615303200,1.77330322265625,-0.06989315152168274,0.1151195541024208,-0.005314166191965342
1761430221635247000,1.7932470703125,-0.03908320143818855,0.023575611412525177,0.01348993182182312
1761430221655190300,1.813190185546875,0.013788768090307713,-0.04802007973194122,0.01994808204472065
1761430221675134200,1.83313427734375,0.04696546494960785,-0.05828727036714554,0.03747040033340454
1761430221695077000,1.8530771484375,0.04133370891213417,-0.03418953716754913,0.059273045510053635
1761430221715021000,1.87302099609375,0.014329187572002411,0.03622356429696083,0.04718426242470741
1761430221734964200,1.892964111328125,-0.0175428856164217,0.02528301812708378,-0.00419738469645381
1761430221754908200,1.912908203125,-0.019603010267019272,0.014555417001247406,-0.059390150010585785
1761430221774851000,1.93285107421875,0.00026826586690731347,0.018045850098133087,-0.07970523089170456
1761430221794795300,1.952795166015625,0.026252159848809242,0.027885736897587776,-0.057322707027196884
1761430221814738200,1.97273828125,0.028739526867866516,0.01869579404592514,-0.022270994260907173
1761430221834682000,1.99268212890625,0.010090899653732777,-0.006732531823217869,0.0022512052673846483
1761430221854625300,2.012625244140625,0.005395885091274977,0.0025573703460395336,-0.02208082750439644
1761430221874569200,2.0325693359375,0.01852383278310299,0.020243437960743904,-0.0649588406085968
1761430221894512000,2.05251220703125,0.0077299452386796474,0.0021718256175518036,-0.1320686787366867
1761430221914456000,2.0724560546875,0.018160047009587288,-0.02077036164700985,-0.11272916197776794
1761430221934400000,2.09239990234375,-0.01594269834458828,0.02430991269648075,-0.05622894689440727
1761430221954343200,2.11234326171875,0.0056497473269701,-0.006189646665006876,-0.03668557107448578
1761430221974287400,2.132287353515625,-0.012055746279656887,-0.03441888839006424,-0.028460931032896042
1761430221994230300,2.152230224609375,-0.02104378305375576,-0.030993636697530746,-0.01630859449505806
1761430222014174200,2.17217431640625,-0.029911572113633156,-0.013601705431938171,-0.018039381131529808
1761430222034117000,2.1921171875,-0.02585861086845398,-0.021802149713039398,-0.0007537849014624953
1761430222054061000,2.21206103515625,-0.022944912314414978,-0.03936731815338135,0.05133228376507759
1761430222074004200,2.232004150390625,-0.03248082846403122,-0.02649969980120659,0.08159808069467545
1761430222093948200,2.2519482421875,-0.03454463928937912,-0.04647570103406906,0.039978668093681335
1761430222113891000,2.27189111328125,-0.02386360429227352,-0.02526339329779148,-0.008591985329985619
1761430222133835000,2.2918349609375,-0.01149175688624382,0.014477787539362907,-0.015508148819208145
1761430222153778200,2.311778076171875,-0.013280368410050869,-0.009369821287691593,0.006525499280542135
1761430222173722400,2.331722412109375,-0.005569817963987589,-0.028944680467247963,0.006837305147200823
1761430222193665300,2.351665283203125,0.001002563163638115,-0.05526764318346977,-0.017838897183537483
1761430222213608000,2.37160791015625,0.029178477823734283,-0.041119202971458435,-0.008086432702839375
1761430222233551000,2.391551025390625,0.03261122852563858,-0.027067702263593674,-0.003024062840268016
1761430222253495000,2.4114951171875,0.0011074939975515008,-0.011419016867876053,-0.02380184456706047
1761430222273438000,2.43143798828125,-0.023381603881716728,-0.008379285223782063,-0.04361975938081741
1761430222293382000,2.4513818359375,-0.012308578006923199,-0.03676368296146393,-0.030365006998181343
1761430222313325000,2.471324951171875,0.009725050069391727,-0.058321721851825714,0.01339111290872097
1761430222333269000,2.49126904296875,0.016233086585998535,-0.042079076170921326,0.03698462247848511
1761430222353212000,2.5112119140625,0.0028765297029167414,0.024318167939782143,0.02705768682062626
1761430222373156000,2.531156005859375,-0.011802081018686295,0.038814742118120193,-0.009411007165908813
1761430222393099000,2.55109912109375,-0.005838530603796244,-0.02098982036113739,-0.03567979857325554
1761430222413043000,2.57104296875,0.007667263969779015,-0.07572498917579651,-0.035457368940114975
1761430222432986000,2.590986083984375,0.006182382348924875,-0.07035829871892929,-0.01891176588833332
1761430222452930000,2.610929931640625,0.004186008125543594,-0.03899987041950226,0.012696726247668266
1761430222472874000,2.6308740234375,0.0008515642257407308,0.016236845403909683,0.017310436815023422
1761430222492817000,2.65081689453125,0.011759337037801743,0.048758625984191895,-0.0049968683160841465
1761430222512760800,2.6707607421875,0.02762529067695141,0.03216426447033882,-0.02039957232773304
1761430222532704000,2.6907041015625,0.024612488225102425,-0.012337089516222477,-0.0024115024134516716
1761430222552648200,2.710648193359375,0.015915900468826294,-0.043011125177145004,0.04617052897810936
1761430222572591000,2.730591064453125,0.010314809158444405,-0.018642377108335495,0.06778264790773392
1761430222592535000,2.75053515625,0.025953521952033043,0.005121689755469561,0.025155477225780487
1761430222612478000,2.77047802734375,0.041361309587955475,0.018822558224201202,-0.052844882011413574
1761430222632422000,2.790421875,0.024757934734225273,-0.039909105747938156,-0.08177901059389114
1761430222652365000,2.810364990234375,-0.00038627308094874024,-0.07578869163990021,-0.03829476609826088
1761430222672309000,2.83030908203125,-0.029410604387521744,-0.06128223240375519,0.0029316931031644344
1761430222692252000,2.850251953125,-0.028226986527442932,-0.017508458346128464,0.02198333479464054
1761430222712195800,2.87019580078125,-0.0033600209280848503,-0.010640710592269897,0.05194694548845291
1761430222732138800,2.890138671875,-0.0023108709137886763,-0.02608954720199108,0.06881573796272278
1761430222752083000,2.9100830078125,-0.009786266833543777,-0.004948161542415619,0.015196102671325207
1761430222772026000,2.930026123046875,0.011784639209508896,0.05387397110462189,-0.04370924085378647
1761430222791970000,2.949969970703125,0.04309755936264992,0.08882124722003937,-0.019413089379668236
1761430222811913000,2.969912841796875,0.05695497989654541,0.044944364577531815,0.03984873369336128
1761430222831857000,2.98985693359375,0.023300185799598694,-0.03499149531126022,0.0742320641875267
1761430222851800000,3.009800048828125,0.00989456195384264,-0.044219911098480225,0.040265269577503204
1761430222871744000,3.029743896484375,0.003710633609443903,-0.017188049852848053,-0.015008671209216118
1761430222891687000,3.04968701171875,0.00593094527721405,-0.007061633747071028,-0.046030350029468536
1761430222911630800,3.069630859375,0.0022094473242759705,-0.017718059942126274,-0.027869591489434242
1761430222931573800,3.08957373046875,0.00726935314014554,-0.025339322164654732,-0.0042458041571080685
1761430222951518000,3.10951806640625,0.006268869154155254,-0.032674118876457214,-0.017318028956651688
1761430222971461000,3.129461181640625,0.007475142367184162,-0.038992732763290405,-0.02867182344198227
1761430222991405000,3.149405029296875,0.0007948707789182663,-0.00919068418443203,-0.01449861004948616
1761430223011348000,3.169347900390625,-0.003488717833533883,0.0016672741621732712,0.006642412859946489
1761430223031292000,3.1892919921875,-0.012426991015672684,0.0070119090378284454,-0.003583011217415333
1761430223051235000,3.209235107421875,-0.008397958241403103,0.07100247591733932,-0.028504638001322746
1761430223071179000,3.229178955078125,-0.009029596112668514,0.08605106920003891,-0.027652127668261528
1761430223091123000,3.249123046875,0.006136140786111355,0.05783576890826225,-0.00865148939192295
1761430223111065900,3.26906591796875,0.03406757488846779,-0.026551099494099617,0.0052135600708425045
1761430223131008800,3.2890087890625,0.0452377088367939,-0.07640071958303452,-0.0010003765346482396
1761430223150953000,3.308952880859375,0.03445236757397652,-0.058467283844947815,-0.014713558368384838
1761430223170897000,3.32889697265625,0.020379558205604553,-0.010880433022975922,-0.022507764399051666
1761430223190840000,3.348840087890625,0.018611187115311623,0.0046953181736171246,-0.04539432376623154
1761430223210783700,3.36878369140625,0.03337781876325607,-0.025173766538500786,-0.07812460511922836
1761430223230726700,3.3887265625,0.04387013614177704,-0.060829974710941315,-0.07285887002944946
1761430223250670800,3.4086708984375,0.049319665879011154,-0.06499605625867844,-0.022256197407841682
1761430223270614000,3.428614013671875,0.06318488717079163,-0.046704720705747604,0.029321644455194473
1761430223290558000,3.448557861328125,0.054651644080877304,0.00249545369297266,0.05619563162326813
1761430223310500900,3.4685009765625,0.04681549593806267,0.047104064375162125,0.019118808209896088
1761430223330444800,3.48844482421875,0.007027165964245796,0.05893056467175484,-0.050641052424907684
1761430223350387700,3.5083876953125,-0.034874338656663895,0.07942763715982437,-0.07667204737663269
1761430223370331600,3.52833154296875,-0.042677029967308044,0.07294953614473343,-0.0357353538274765
1761430223390274800,3.54827490234375,-0.018376054242253304,0.062164440751075745,0.05138804763555527
1761430223410218800,3.56821875,-0.0020227825734764338,0.0042925127781927586,0.08139581978321075
1761430223430161700,3.58816162109375,0.009487866424024105,-0.0006525246426463127,0.020121105015277863
1761430223450105900,3.60810595703125,-0.011622481979429722,-0.0032575742807239294,-0.03524108603596687
1761430223470049000,3.628049072265625,-0.039929915219545364,0.017050666734576225,-0.06397028267383575
1761430223489993000,3.647992919921875,-0.04847003519535065,0.09314094483852386,-0.03239540383219719
1761430223509935900,3.667935791015625,-0.046492911875247955,0.06749587506055832,-0.0006007191259413958
1761430223529879800,3.6878798828125,-0.010976963676512241,0.003884423989802599,0.01139697153121233
1761430223549822700,3.70782275390625,0.021966708824038506,-0.03634604811668396,0.01916506141424179
1761430223569766700,3.7277666015625,0.03428884968161583,-0.017922524362802505,-0.004801539704203606
1761430223589709800,3.747709716796875,0.02593824453651905,0.043387435376644135,-0.028560398146510124
1761430223609653800,3.76765380859375,0.018353864550590515,0.06311716139316559,-0.04113396629691124
1761430223629596700,3.7875966796875,0.017391962930560112,0.029274309054017067,-0.023480119183659554
1761430223649540900,3.807540771484375,0.01840958744287491,0.006099281366914511,0.0016183264087885618
1761430223669483800,3.82748388671875,0.023972364142537117,0.06469866633415222,-0.03935348987579346
1761430223689428000,3.847427978515625,0.03359489515423775,0.0760139599442482,-0.10880940407514572
1761430223709371000,3.867370849609375,-0.011798717081546783,0.14192552864551544,-0.1484452486038208
1761430223729314800,3.887314697265625,-0.02527301199734211,0.0529862716794014,-0.09275616705417633
1761430223749257700,3.9072578125,-0.05020905286073685,-0.01694122888147831,0.04464786872267723
1761430223769201700,3.92720166015625,-0.02158123254776001,0.0004040566273033619,0.11309252679347992
1761430223789144800,3.947144775390625,-0.012851758860051632,0.041275762021541595,0.02317776344716549
1761430223809088800,3.9670888671875,-0.01480891928076744,0.08390504121780396,-0.09823907911777496
1761430223829031700,3.98703173828125,-0.0200483538210392,0.05965804681181908,-0.13301807641983032
1761430223848976000,4.006975830078125,-0.020211976021528244,0.008728780783712864,-0.07550276070833206
1761430223868918800,4.026918701171875,-0.009160186164081097,-0.023716378957033157,-0.02021157182753086
1761430223888863000,4.046863037109375,0.008293373510241508,-0.013126851990818977,0.004577397834509611
1761430223908807000,4.066806884765625,0.009344296529889107,0.010774976573884487,0.02411063387989998
1761430223928749800,4.086749755859375,0.002892447868362069,0.008892417885363102,0.04742591455578804
1761430223948693800,4.10669384765625,0.011968867853283882,0.023751618340611458,0.028152931481599808
1761430223968636700,4.12663671875,0.022400636225938797,0.05579867213964462,-0.005706281866878271
1761430223988580600,4.14658056640625,0.028574174270033836,0.055412594228982925,-0.017715640366077423
1761430224008523800,4.166523681640625,0.012200593948364258,0.007484831847250462,0.01081976480782032
1761430224028468000,4.186468017578125,-0.005248635075986385,0.002569727133959532,0.07244987785816193
1761430224048411000,4.206410888671875,0.00022313545923680067,0.03016030043363571,0.09417062997817993
1761430224068354800,4.226354736328125,0.016425998881459236,0.04568256065249443,0.05083310976624489
1761430224088297700,4.246297607421875,0.03527442738413811,0.012899966910481453,0.018649691715836525
1761430224108242000,4.266241943359375,0.03828266263008118,-0.012428050860762596,0.03322167694568634
1761430224128184800,4.286184814453125,0.019454913213849068,0.011188596487045288,0.049731411039829254
1761430224148128800,4.306128662109375,0.0021592138800770044,0.043875355273485184,0.04160460829734802
1761430224168071700,4.32607177734375,0.004199697636067867,0.026929326355457306,0.025942539796233177
1761430224188015600,4.346015625,0.01878403313457966,-0.042385753244161606,0.035798266530036926
1761430224207959000,4.365958984375,0.015832576900720596,-0.09898277372121811,0.03606558218598366
1761430224227903000,4.385903076171875,-0.00077964982483536,-0.028709713369607925,0.02360733039677143
1761430224247846000,4.405845947265625,-0.015058424323797226,0.023627862334251404,-0.01438770443201065
1761430224267790000,4.4257900390625,-0.009954174049198627,0.0012906109914183617,-0.025710515677928925
1761430224287733000,4.44573291015625,-0.0068323202431201935,-0.04182635247707367,-0.009294075891375542
1761430224307677000,4.465677001953125,0.004644901026040316,-0.05944989621639252,0.003922287840396166
1761430224327620000,4.4856201171875,0.008555463515222073,-0.014482388272881508,0.007766150403767824
1761430224347564000,4.50556396484375,0.013184338808059692,-0.026841307058930397,0.01652383804321289
1761430224367507000,4.5255068359375,0.00527218310162425,-0.08321308344602585,0.028544200584292412
1761430224387451000,4.545450927734375,-0.007273562718182802,-0.09177163988351822,0.03209798410534859
1761430224407394000,4.56539404296875,-0.006337003316730261,-0.06144645810127258,0.006297118030488491
1761430224427338000,4.585337890625,0.003601911012083292,-0.0024392781779170036,-0.03388798609375954
1761430224447281000,4.605281005859375,0.005570858716964722,-0.013574516400694847,-0.05526527762413025
1761430224467225000,4.62522509765625,0.006474704947322607,-0.008785421960055828,-0.024911653250455856
1761430224487168000,4.64516796875,-0.0017623254097998142,-0.013019366189837456,0.02375755086541176
1761430224507112000,4.66511181640625,-0.015237177722156048,-0.007959816604852676,0.05350462347269058
1761430224527055000,4.68505517578125,-0.01536637730896473,-0.028217695653438568,0.016704382374882698
1761430224546999000,4.7049990234375,-0.018848203122615814,-0.04294300451874733,-0.0440489761531353
1761430224566942000,4.72494189453125,-0.02566039375960827,-0.028842566534876823,-0.06683610379695892
1761430224586886000,4.744885986328125,-0.020392265170812607,0.02579021453857422,-0.037070680409669876
1761430224606828800,4.764828857421875,0.009294223971664906,0.07160669565200806,0.0223379023373127
1761430224626773000,4.78477294921875,0.03090927191078663,-0.010706812143325806,0.06500454992055893
1761430224646716000,4.8047158203125,0.033337581902742386,-0.05365506559610367,0.037858836352825165
1761430224666660000,4.82466015625,0.027904564514756203,0.0020668799988925457,-0.022740280255675316
1761430224686603000,4.84460302734375,0.013475351966917515,0.004626845009624958,-0.06972000747919083
1761430224706547000,4.864546875,0.009423522278666496,0.00278165889903903,-0.04923328757286072
1761430224726490000,4.884489990234375,0.016921356320381165,0.010934592224657536,0.00279607274569571
1761430224746434000,4.90443408203125,0.019327649846673012,0.0051807826384902,0.009509571827948093
1761430224766377000,4.924376953125,0.022890858352184296,-0.00011900020763278008,-0.02274455316364765
1761430224786321000,4.94432080078125,0.018558161333203316,-0.03278959542512894,-0.04270707815885544
1761430224806263800,4.964263916015625,0.01544242538511753,-0.06837265938520432,-0.03596014156937599
1761430224826208000,4.9842080078125,0.0005932406638748944,-0.02249888703227043,0.0026786308735609055
1761430224846151000,5.00415087890625,0.000890113995410502,0.09456539154052734,0.023819301277399063
1761430224866095000,5.02409521484375,-0.005808728281408548,0.0986410602927208,0.0001524885301478207
1761430224886038000,5.0440380859375,0.002637019846588373,-0.004780851770192385,-0.02663235366344452
1761430224905982000,5.06398193359375,0.002108316868543625,-0.07849163562059402,-0.007483859080821276
1761430224925925000,5.083925048828125,-0.01151155587285757,-0.07168611884117126,0.012348867952823639
1761430224945869000,5.103869140625,-0.02198163792490959,0.03520502150058746,0.014372535981237888
1761430224965812000,5.12381201171875,-0.011175951920449734,0.11737851053476334,0.008276769891381264
1761430224985756000,5.143755859375,0.009032737463712692,0.0831400528550148,-0.004093822557479143
1761430225005698800,5.16369873046875,0.01788867823779583,-0.017099568620324135,-0.011735961772501469
1761430225025642800,5.183642822265625,0.02623695693910122,-0.07671680301427841,-0.003974413499236107
1761430225045586000,5.2035859375,0.039086513221263885,-0.02423918806016445,0.031797729432582855
1761430225065530000,5.223530029296875,0.05972480773925781,0.07943335920572281,0.056312330067157745
1761430225085473000,5.24347314453125,0.05872964859008789,0.08658935129642487,0.02606644295156002
1761430225105417000,5.2634169921875,0.05270585045218468,0.00941062718629837,-0.023520417511463165
1761430225125360000,5.283360107421875,0.05063740536570549,-0.04013928398489952,-0.024440787732601166
1761430225145304000,5.303303955078125,0.05083247646689415,-0.055522870272397995,0.020977893844246864
1761430225165247000,5.3232470703125,0.031205613166093826,-0.002226267009973526,0.049381356686353683
1761430225185191000,5.34319091796875,-0.0010315538384020329,0.055696845054626465,0.025884350761771202
1761430225205134000,5.363134033203125,-0.02052176184952259,0.03801489621400833,-0.014196556061506271
1761430225225078000,5.383078125,-0.014099187217652798,0.00948646292090416,-0.0005982723087072372
1761430225245021200,5.403021240234375,-0.001189138856716454,0.02823483571410179,0.05024364963173866
1761430225264965000,5.422965087890625,0.0030266055837273598,0.024081144481897354,0.08510521799325943
1761430225284908000,5.442907958984375,-0.004127635154873133,0.042491015046834946,0.07708180695772171
1761430225304852000,5.46285205078125,-0.01345084235072136,0.014450488612055779,0.04652669280767441
1761430225324795000,5.482794921875,-0.000516690663062036,-0.01004677452147007,0.007093783002346754
1761430225344739000,5.502739013671875,-0.022593697533011436,-0.02002795599400997,-0.0157272107899189
1761430225364683300,5.522683349609375,-0.02591243013739586,0.026896502822637558,-0.012265050783753395
1761430225384626200,5.542626220703125,-0.029295507818460464,0.08611845970153809,0.018567796796560287
1761430225404569000,5.562569091796875,-0.014862911775708199,0.05805615708231926,0.03267928957939148
1761430225424513000,5.582512939453125,-0.00014681281754747033,0.020928971469402313,0.02788386680185795
1761430225444456200,5.602456298828125,0.0024354886263608932,-0.013381771743297577,0.0221173744648695
1761430225464400100,5.622400146484375,-0.003464050590991974,-0.015436969697475433,0.016697926446795464
1761430225484344000,5.642343994140625,-0.007945679128170013,0.00517149968072772,0.004308333620429039
1761430225504287000,5.662286865234375,0.0019188353326171637,0.0505191795527935,-0.013538091443479061
1761430225524231000,5.68223095703125,0.011324049904942513,0.041106026619672775,-0.009260387159883976
1761430225544174000,5.702174072265625,0.007571270223706961,0.022057494148612022,0.017983676865696907
1761430225564118300,5.7221181640625,0.007855514995753765,-0.008125979453325272,0.038359180092811584
1761430225584061200,5.742061279296875,0.0029868693090975285,-0.0005865767598152161,0.02124829776585102
1761430225604005000,5.762005126953125,-0.004697285592556,0.017085522413253784,-0.011959121562540531
1761430225623948000,5.781947998046875,0.004410554654896259,-0.024127811193466187,-0.018456781283020973
1761430225643892000,5.80189208984375,0.0018926711054518819,-0.05356921628117561,0.006436514668166637
1761430225663835100,5.821835205078125,-0.006582445930689573,-0.019707707688212395,0.006228724494576454
1761430225683779000,5.841779052734375,0.002437247894704342,-0.0159019585698843,-0.017158040776848793
1761430225703722000,5.861721923828125,0.024667488411068916,-0.007800609804689884,0.002492242492735386
1761430225723665000,5.881664794921875,0.029810985550284386,0.03152506425976753,0.039064034819602966
1761430225743608800,5.90160888671875,0.03418433666229248,0.041277945041656494,0.046719372272491455
1761430225763552000,5.921552001953125,0.033710118383169174,0.026898354291915894,0.03511429950594902
1761430225783496200,5.94149609375,0.022666068747639656,0.007595198694616556,0.036751240491867065
1761430225803440000,5.961440185546875,0.005321023520082235,-0.01526222936809063,0.02778298407793045
1761430225823383000,5.981383056640625,-0.00965682603418827,-0.018616467714309692,-0.013060703873634338
1761430225843327000,6.001326904296875,-0.014418888837099075,-0.007975355722010136,-0.06969059258699417
1761430225863270100,6.021270263671875,-0.01879165694117546,0.01976950466632843,-0.07556440681219101
1761430225883214000,6.041214111328125,-0.01448863372206688,0.030505258589982986,-0.018471330404281616
1761430225903157000,6.061156982421875,-0.00830067228525877,-0.013685068115592003,0.047808535397052765
1761430225923101000,6.081100830078125,0.004343241918832064,-0.04899819567799568,0.03881705924868584
1761430225943043800,6.1010439453125,0.008977816440165043,-0.02076144702732563,-0.02761276625096798
1761430225962988000,6.120988037109375,0.003717871382832527,0.013961993157863617,-0.07577746361494064
1761430225982931200,6.14093115234375,-0.0021558012813329697,0.02913612872362137,-0.061501093208789825
1761430226002874000,6.1608740234375,-0.0031358490232378244,0.044110339134931564,-0.007654767017811537
1761430226022818000,6.180818115234375,-0.003315406385809183,0.03886031359434128,0.023527083918452263
1761430226042761000,6.200760986328125,0.009119254536926746,0.00885862112045288,0.021614056080579758
1761430226062705200,6.220705078125,0.017332181334495544,0.01984996348619461,0.007397965062409639
1761430226082649000,6.240649169921875,0.015614140778779984,0.03478842228651047,-0.034304358065128326
1761430226102592000,6.260592041015625,0.004645344335585833,0.04258348047733307,-0.054940272122621536
1761430226122536000,6.280535888671875,-0.018736736848950386,0.02275025099515915,-0.04289216920733452
1761430226142478800,6.300478759765625,-0.01927625946700573,0.010680817998945713,-0.006258378736674786
1761430226162422000,6.320422119140625,-0.017900077626109123,0.014411590993404388,0.011523486115038395
1761430226182366200,6.3403662109375,-0.011989984661340714,0.018991373479366302,-0.0016624926356598735
1761430226202310100,6.36031005859375,-0.024442996829748154,-0.0009674462489783764,-0.02504987083375454
1761430226222253000,6.380253173828125,-0.028357110917568207,0.0022743395529687405,-0.024175724014639854
1761430226242196000,6.400196044921875,-0.015439145267009735,0.013982938602566719,-0.0025088947732001543
1761430226262140200,6.42014013671875,0.007872166112065315,-0.03970223292708397,0.008020247332751751
1761430226282084000,6.440083984375,0.01059318333864212,-0.09466633945703506,0.00238862750120461
1761430226302027000,6.460027099609375,0.006557062268257141,-0.0559331439435482,-0.027779176831245422
1761430226321970000,6.479969970703125,0.002310254843905568,0.029029786586761475,-0.022488610818982124
1761430226341914000,6.4999140625,-0.009463207796216011,0.025619111955165863,0.01835140958428383
1761430226361857300,6.519857177734375,-0.020894357934594154,-0.0019452166743576527,0.013860619626939297
1761430226381801200,6.53980126953125,-0.007091769017279148,0.003204315435141325,-0.02769375964999199
1761430226401744100,6.559744140625,0.004753308370709419,0.0040015047416090965,-0.03267660364508629
1761430226421688000,6.57968798828125,0.01105564460158348,-0.02016962319612503,-0.014180297031998634
1761430226441631000,6.599630859375,0.0004029763222206384,-0.022628113627433777,-0.01538340374827385
1761430226461575000,6.619574951171875,-0.016980748623609543,0.03751685470342636,-0.03929136320948601
1761430226481518000,6.63951806640625,-0.025241876021027565,0.02511291392147541,-0.027609670534729958
1761430226501462000,6.6594619140625,0.000641329272184521,0.004945991560816765,-0.00145640317350626
1761430226521405000,6.679405029296875,0.010784801095724106,0.00006347615271806717,-0.005739940796047449
1761430226541349000,6.69934912109375,0.003986720461398363,-0.0034994494635611773,-0.015957610681653023
1761430226561292300,6.719292236328125,0.001968411495909095,0.008759971708059311,0.010296945460140705
1761430226581236200,6.739236328125,0.014124871231615543,-0.01049843430519104,0.05871318280696869
1761430226601179100,6.75917919921875,0.0233076810836792,-0.041673943400382996,0.05720408633351326
1761430226621123000,6.779123046875,0.008002875372767448,-0.04049497842788696,-0.005802268162369728
1761430226641066000,6.79906591796875,-0.006523847114294767,0.013465845957398415,-0.043064795434474945
1761430226661010000,6.819010009765625,-0.005427222698926926,0.02593708224594593,-0.02075113169848919
1761430226680953000,6.838953125,-0.006354736629873514,0.02739924006164074,0.010451960377395153
1761430226700897000,6.85889697265625,0.0002893241180572659,0.017540426924824715,0.005996620748192072
1761430226720840000,6.87883984375,0.0036467949394136667,-0.008724342100322247,-0.006503035314381123
1761430226740784000,6.8987841796875,0.003966439515352249,-0.008561010472476482,-0.02584034763276577
1761430226760727000,6.91872705078125,0.013068093918263912,-0.014039652422070503,-0.04154592379927635
1761430226780671200,6.938671142578125,0.004926946479827166,0.01789148710668087,-0.0024454619269818068
1761430226800614100,6.9586142578125,-0.007272491231560707,0.01935455948114395,0.0627279281616211
1761430226820558000,6.97855810546875,-0.008317520841956139,0.020362623035907745,0.05614233389496803
1761430226840501000,6.9985009765625,-0.003441504668444395,0.01018483191728592,0.012202722951769829
1761430226860445000,7.01844482421875,-0.002879447303712368,0.001658350694924593,0.012376428581774235
1761430226880388000,7.03838818359375,-0.006544589996337891,0.0037451102398335934,0.034494198858737946
1761430226900332000,7.05833203125,-0.010577911511063576,0.02170148491859436,0.03201281651854515
1761430226920275200,7.078275146484375,-0.012339024804532528,0.0223342664539814,-0.005571697372943163
1761430226940219100,7.09821923828125,-0.008323208428919315,0.025285590440034866,-0.018680691719055176
1761430226960162000,7.118162109375,-0.007403187453746796,0.018449699506163597,-0.022651782259345055
1761430226980106200,7.138106201171875,-0.00593635393306613,0.020084068179130554,-0.01726675219833851
1761430227000049200,7.158049072265625,-0.0011790485586971045,0.025434719398617744,-0.018565259873867035
1761430227019993000,7.1779931640625,0.008905579335987568,0.0077159209176898,-0.009828878566622734
1761430227039936000,7.19793603515625,0.013088298961520195,0.004415774252265692,0.0009182963403873146
1761430227059880000,7.2178798828125,0.000563996669370681,0.002654248382896185,0.0184773076325655
1761430227079823000,7.237822998046875,-0.01122196950018406,0.014609983190894127,0.03264273703098297
1761430227099767300,7.257767333984375,-0.013675162568688393,-0.028848828747868538,0.020569607615470886
1761430227119710200,7.277710205078125,-0.009047091007232666,-0.10013678669929504,0.00895957462489605
1761430227139654100,7.297654052734375,0.014702021144330502,-0.11488054692745209,-0.00367694697342813
1761430227159597000,7.31759716796875,0.018820784986019135,0.00012948457151651382,-0.014708582311868668
1761430227179541000,7.337541015625,-0.005660284776240587,0.040385518223047256,-0.000478500674944371
1761430227199484200,7.357484130859375,-0.017100058495998383,0.012223748490214348,0.01440808642655611
1761430227219428000,7.377427978515625,-0.0189654603600502,-0.03865083307027817,-0.010636753402650356
1761430227239371000,7.39737109375,-0.014999090693891048,-0.02706693299114704,-0.0554700642824173
1761430227259315000,7.41731494140625,0.0013376385904848576,-0.022532008588314056,-0.07486502081155777
1761430227279258000,7.437258056640625,0.004088950343430042,-0.04014775529503822,-0.05473551154136658
1761430227299202000,7.4572021484375,0.07449906319379807,-0.04816184192895889,0.008931147865951061
1761430227319145000,7.47714501953125,0.13656313717365265,-0.053464822471141815,-0.04603441804647446
1761430227339089200,7.497089111328125,0.12983141839504242,-0.07189604640007019,-0.12472618371248245
1761430227359032000,7.517031982421875,0.11584001779556274,-0.06294168531894684,-0.11967428028583527
1761430227378976000,7.53697607421875,0.11126866191625595,0.09126891195774078,-0.06924747675657272
1761430227398919200,7.556919189453125,0.03258297219872475,0.07832176983356476,0.04757118970155716
1761430227418863000,7.576863037109375,-0.02947160042822361,-0.028052451089024544,0.1445813626050949
1761430227438806000,7.596805908203125,-0.02639232575893402,-0.03972998633980751,0.14719823002815247
1761430227458750000,7.61675,-0.008949548937380314,0.042170844972133636,0.10733011364936829
1761430227478693000,7.636693115234375,0.004982606507837772,0.08248007297515869,0.07729651033878326
1761430227498637000,7.656636962890625,-0.010148480534553528,0.02696831524372101,0.07707276940345764
1761430227518580000,7.676580078125,-0.036671724170446396,-0.03604699671268463,0.07741323113441467
1761430227538524200,7.696524169921875,-0.02061951905488968,0.0026021311059594154,0.05398567020893097
1761430227558467000,7.716467041015625,0.020598625764250755,0.05600341036915779,0.011783817782998085
1761430227578411000,7.736410888671875,0.0381561778485775,0.07186988741159439,-0.04103511944413185
1761430227598354200,7.756354248046875,-0.041104912757873535,0.13570784032344818,-0.04858376830816269
1761430227618298000,7.776298095703125,-0.09943100810050964,0.1960056722164154,-0.07392477244138718
1761430227638241000,7.796240966796875,-0.1413360983133316,0.41301655769348145,-0.07840672880411148
1761430227658185000,7.81618505859375,-0.14822275936603546,0.37426549196243286,-0.1034695953130722
1761430227678128000,7.836128173828125,-0.10930828005075455,0.24700775742530823,-0.04810775816440582
1761430227698072000,7.856072021484375,-0.10102821886539459,0.042829930782318115,-0.0281089935451746
1761430227718015000,7.876014892578125,-0.10049421340227127,-0.08188807219266891,0.0056002442725002766
1761430227737959200,7.895959228515625,-0.07285182923078537,-0.16847532987594604,0.030838269740343094
1761430227757902000,7.915902099609375,-0.048339731991291046,-0.21479400992393494,0.01325187087059021
1761430227777846000,7.935845947265625,-0.008759765885770321,-0.23469440639019012,0.022790683433413506
1761430227797789200,7.9557890625,0.04320216923952103,-0.14669299125671387,0.08363629132509232
1761430227817733000,7.975733154296875,0.010577837005257607,-0.10029643028974533,0.10100793093442917
1761430227837676000,7.995676025390625,-0.007122958078980446,-0.08080064505338669,0.035659629851579666
1761430227857620000,8.015619873046875,0.0004736034316010773,-0.10982780158519745,-0.061422090977430344
1761430227877563000,8.03556298828125,0.02496464177966118,-0.10644934326410294,-0.09633970260620117
1761430227897507000,8.055507080078126,0.024811167269945145,-0.0795425996184349,-0.05019393935799599
1761430227917450000,8.075449951171874,0.0077244313433766365,-0.09457211196422577,0.002468918450176716
1761430227937394200,8.095394287109375,0.023050231859087944,-0.042578116059303284,0.024647900834679604
1761430227957337000,8.115337158203126,0.033552106469869614,-0.015980340540409088,0.00708207581192255
1761430227977281000,8.135281005859374,0.01599631831049919,-0.02636772394180298,-0.00951699260622263
1761430227997224200,8.15522412109375,-0.023635823279619217,-0.04953638091683388,-0.031261179596185684
1761430228017167000,8.1751669921875,-0.03778642416000366,0.027721427381038666,-0.05498657375574112
1761430228037111000,8.195111083984376,-0.022944331169128418,0.09081976860761642,-0.0521625354886055
1761430228057054000,8.215053955078124,-0.006735921837389469,0.035825807601213455,-0.03316668048501015
1761430228076998000,8.234997802734375,0.0006393353687599301,-0.012868320569396019,0.006014226470142603
1761430228096941000,8.254941162109375,-0.000070699374191463,0.007321357261389494,0.03580766171216965
1761430228116885000,8.274885009765624,0.00559474341571331,0.03569477051496506,0.028823036700487137
1761430228136828000,8.294827880859375,0.02429632470011711,0.04741568863391876,0.005286188330501318
1761430228156772000,8.314772216796875,0.006851648911833763,0.07046256214380264,-0.03389271721243858
1761430228176715000,8.334715087890626,0.002883769338950515,0.08619891107082367,-0.12092097103595734
1761430228196659200,8.3546591796875,-0.010285915806889534,0.14269153773784637,-0.10397400707006454
1761430228216601900,8.374601806640625,0.003177882870659232,0.18883083760738373,-0.016410496085882187
1761430228236545800,8.3945458984375,0.024743836373090744,0.09964143484830856,0.06564917415380478
1761430228256488700,8.41448876953125,0.029659699648618698,0.02180434577167034,0.042534902691841125
1761430228276432600,8.4344326171875,0.023002726957201958,-0.02215575985610485,-0.03321278095245361
1761430228296375800,8.454375732421875,0.028975630179047585,0.007210905198007822,-0.07037495076656342
1761430228316320000,8.474320068359376,0.014364468865096569,0.06552448868751526,-0.05587470531463623
1761430228336263000,8.494262939453124,0.0011011562310159206,0.052561089396476746,-0.020000308752059937
1761430228356206800,8.514206787109375,-0.006064617540687323,-0.00871606171131134,0.04202139005064964
1761430228376150000,8.53414990234375,0.018277639523148537,-0.02982756495475769,0.0783149003982544
1761430228396094000,8.554093994140626,0.04506801813840866,0.03769844025373459,0.05145053565502167
1761430228416036900,8.574036865234374,0.04824938625097275,0.12412658333778381,-0.03606787323951721
1761430228435980800,8.593980712890625,0.040560148656368256,0.16493237018585205,-0.07120970636606216
1761430228455923700,8.613923828125,0.022884784266352654,0.060935936868190765,-0.011959012597799301
1761430228475867600,8.63386767578125,0.011818422004580498,0.006354826968163252,0.09045969694852829
1761430228495810800,8.653810791015625,-0.009415702894330025,-0.02002258040010929,0.11712224036455154
1761430228515755000,8.673755126953125,-0.01869179494678974,-0.02575371414422989,0.03123115748167038
1761430228535698000,8.693697998046876,-0.01844358816742897,0.060422711074352264,-0.053945254534482956
1761430228555641900,8.713641845703124,-0.022866997867822647,0.07663986086845398,-0.06876223534345627
1761430228575584800,8.733584716796875,-0.02320515550673008,0.03710611164569855,-0.007073937449604273
1761430228595529000,8.753529052734375,-0.026980213820934296,-0.01070115715265274,0.0426214262843132
1761430228615471900,8.773471923828126,-0.028339320793747902,-0.07296068966388702,0.034775570034980774
1761430228635414800,8.793414794921874,-0.01773741841316223,-0.059551455080509186,0.012788450345396996
1761430228655358700,8.813358642578125,-0.0017662402242422104,-0.019082937389612198,-0.023794760927557945
1761430228675302000,8.833302001953125,-0.009110137820243835,0.05638253688812256,-0.023833762854337692
1761430228695245800,8.853245849609374,-0.026229677721858025,0.08329098671674728,0.01021958515048027
1761430228715188700,8.873188720703125,-0.03504037484526634,0.020946957170963287,0.021717429161071777
1761430228735133000,8.8931328125,-0.023332474753260612,-0.06113456189632416,0.0006259020301513374
1761430228755075800,8.913075927734376,-0.00858908612281084,-0.06366387009620667,-0.03967111557722092
1761430228775019800,8.933019775390624,-0.009274555370211601,0.022746454924345016,-0.062123142182826996
1761430228794963000,8.952962890625,-0.02407236583530903,0.04691486433148384,-0.04466744512319565
1761430228814907000,8.972906982421875,-0.03464888781309128,-0.034362103790044785,-0.02063402161002159
1761430228834849800,8.992849853515626,-0.015238604508340359,-0.06724965572357178,0.005046355538070202
1761430228854793700,9.012793701171875,0.002696022856980562,-0.050580836832523346,0.000009035866241902113
1761430228874737000,9.03273681640625,0.009146997705101967,-0.05417024344205856,-0.05112925171852112
1761430228894680800,9.052680908203126,-0.0005951044149696827,-0.02271251194179058,-0.09011141210794449
1761430228914623700,9.072623779296874,-0.006292541511356831,-0.016380682587623596,-0.03715917468070984
1761430228934568000,9.09256787109375,0.011573238298296928,-0.02743920497596264,0.03323681652545929
1761430228954510800,9.1125107421875,0.023362699896097183,-0.1130288764834404,0.040501054376363754
1761430228974454800,9.132454833984376,0.023001791909337044,-0.09460023790597916,-0.020785341039299965
1761430228994398000,9.15239794921875,0.0022276733070611954,-0.017237434163689613,-0.06772974878549576
1761430229014342000,9.172341796875,-0.004213080741465092,0.020718827843666077,-0.043579086661338806
1761430229034284800,9.192284912109375,-0.004996813368052244,-0.02934272773563862,-0.0789550393819809
1761430229054228700,9.212228759765624,0.018390564247965813,-0.1232214868068695,-0.09071287512779236
1761430229074172000,9.232171875,-0.03797164931893349,-0.08227361738681793,-0.11961716413497925
1761430229094114800,9.25211474609375,-0.026346439495682716,-0.07049085199832916,-0.08491499722003937
1761430229114058800,9.272058837890626,-0.03249884396791458,-0.0066399057395756245,-0.007594358641654253
1761430229134001700,9.292001708984374,-0.007765067741274834,-0.01577010191977024,-0.01712012104690075
1761430229153945900,9.31194580078125,-0.016794251278042793,-0.024942826479673386,-0.05552982538938522
1761430229173889000,9.331888916015625,-0.007089480757713318,-0.01375582441687584,-0.015895109623670578
1761430229193833000,9.3518330078125,0.015957340598106384,-0.049159739166498184,0.044898390769958496
1761430229213777700,9.371777587890625,0.018712949007749557,-0.040946003049612045,0.03036673180758953
1761430229233721600,9.3917216796875,0.013421709649264812,-0.005870332941412926,-0.04165635630488396
1761430229253664500,9.41166455078125,0.009344188496470451,0.02106909267604351,-0.05690614506602287
1761430229273608400,9.4316083984375,0.0013525299727916718,-0.002776005771011114,-0.02928544022142887
1761430229293551400,9.45155126953125,0.018326682969927788,-0.015107253566384315,-0.017881665378808975
1761430229313495300,9.471495361328126,0.00017910514725372195,-0.052053019404411316,-0.03434985503554344
1761430229333438500,9.4914384765625,-0.007353681605309248,-0.03749193251132965,-0.047257814556360245
1761430229353382400,9.51138232421875,-0.006580767687410116,0.06384862214326859,-0.03543853387236595
1761430229373325300,9.5313251953125,0.0030699740163981915,0.021060282364487648,0.02664092183113098
1761430229393269500,9.55126953125,0.012126117944717407,-0.010746834799647331,0.07943479716777802
1761430229413212400,9.57121240234375,0.011253399774432182,-0.020331285893917084,0.04106423631310463
1761430229433156600,9.591156494140625,0.005479896906763315,-0.015087533742189407,0.002408839063718915
1761430229453099500,9.611099609375,-0.0070221759378910065,-0.003323181066662073,0.03012561798095703
1761430229473043500,9.63104345703125,0.008747613057494164,0.03345298767089844,0.07243025302886963
1761430229492986400,9.650986328125,0.005223794840276241,0.05662435293197632,0.08365168422460556
1761430229512930300,9.670930419921875,-0.013311309739947319,-0.01476036012172699,0.04885280877351761
1761430229532873500,9.69087353515625,-0.023766037076711655,-0.01812157966196537,0.005070984363555908
1761430229552816400,9.71081640625,-0.02437613159418106,0.004672160837799311,-0.05020144581794739
1761430229572760300,9.73076025390625,-0.022956566885113716,-0.06846746802330017,-0.056274205446243286
1761430229592703200,9.750703125,-0.014282247051596642,-0.06834965199232101,0.0046961368061602116
1761430229612647400,9.7706474609375,0.00001858867472037673,0.014103652909398079,0.04901297390460968
1761430229632590600,9.790590576171875,0.00773253571242094,0.056435488164424896,0.0636146068572998
1761430229652534500,9.810534423828125,0.016063326969742775,0.05286841839551926,0.05561668798327446
1761430229672477400,9.8304775390625,0.007781358435750008,0.04618199169635773,-0.01134533155709505
1761430229692421400,9.85042138671875,-0.01244396809488535,0.06243570148944855,-0.14429952204227448
1761430229712364500,9.870364501953125,-0.03175128996372223,0.08769240230321884,-0.3303227424621582
1761430229732308500,9.89030859375,-0.025110770016908646,0.1647472083568573,-0.46339985728263855
1761430229752251400,9.91025146484375,-0.012437987141311169,0.24901404976844788,-0.2946286201477051
1761430229772195300,9.9301953125,0.012752912007272243,0.14577887952327728,0.05199434235692024
1761430229792138200,9.95013818359375,0.004860841669142246,-0.0603824146091938,0.26548874378204346
1761430229812082400,9.97008251953125,0.016043750569224358,-0.10606008768081665,0.1842338591814041
1761430229832025600,9.990025634765624,0.045212846249341965,0.016645153984427452,0.05461019650101662
1761430229851969500,10.009969482421875,0.07085514068603516,0.00002636946737766266,0.12799257040023804
