time,seconds_elapsed,z,y,x
1761509413585800200,0.07080029296875,-0.05806757356524467,-0.012149442740762606,-0.020997925973683593
1761509413605957000,0.09095703125,-0.05716740985512733,-0.007870139720058069,-0.016293924417637752
1761509413626114000,0.111114013671875,-0.0520797313272953,-0.022523194745625367,-0.017845288895349948
1761509413646272300,0.131272216796875,-0.05881400801837444,0.0009348377312766387,-0.018963913095160385
1761509413666429000,0.151428955078125,-0.05342646976113319,-0.004592017665109597,-0.019376496501022484
1761509413686586000,0.171586181640625,-0.06360065777301788,-0.003231725629954599,-0.018426778577733782
1761509413706743000,0.191742919921875,-0.052827334824204444,-0.011986260668840258,-0.010636697806965094
1761509413726901000,0.21190087890625,-0.04878653500080108,-0.028645805811765603,-0.025531998339900747
1761509413747058200,0.23205810546875,-0.05432312633991241,-0.0017917376884026453,-0.021520433744136244
1761509413767215000,0.252215087890625,-0.050582770767807955,-0.023285041397018355,-0.013065947947616223
1761509413787372000,0.2723720703125,-0.06524784045815467,-0.018425084377569144,-0.00847521577400621
1761509413807530200,0.2925302734375,-0.04145370789468288,-0.019900874284864402,-0.02404072545239469
1761509413827687000,0.31268701171875,-0.0336713834553957,-0.013185306860832496,-0.02081883622986497
1761509413847844000,0.332843994140625,-0.05716565628945827,-0.0019313562216470017,-0.006442472403962164
1761509413868001000,0.3530009765625,-0.055817748811841005,-0.01311779914915096,-0.01304426583877066
1761509413888159000,0.373158935546875,-0.03995616281330585,-0.008971981748426332,-0.00995389860799769
1761509413908316200,0.393316162109375,-0.05940963582396507,-0.01941335106282495,-0.006171567057690117
1761509413928473000,0.41347314453125,-0.06719079121947288,0.001947074380586855,-0.013992036116856616
1761509413948630000,0.433630126953125,-0.04145253885090351,-0.029600435088900846,-0.02171871224561473
1761509413968788200,0.453788330078125,-0.038760231027007104,-0.009115682801743968,-0.022188850508013273
1761509413988945000,0.47394482421875,-0.0556698647737503,0.0010475636910181492,-0.0128571138027939
1761509414009102000,0.49410205078125,-0.04489654182493687,-0.005362887873174622,-0.013396111483743879
1761509414029260000,0.514260009765625,-0.06016074645221233,-0.011308005214249715,-0.014772375122876836
1761509414049417200,0.534417236328125,-0.05507189888060093,-0.011534845373220741,-0.0224809767388273
1761509414069574400,0.554574462890625,-0.04714169040322304,-0.005579558264580555,-0.01957826386753004
1761509414089731300,0.5747314453125,-0.057767129313945766,-0.002561292722215876,-0.015871634751802775
1761509414109889300,0.59488916015625,-0.05701718772947788,-0.009804697112366556,-0.019707536819984668
1761509414130046500,0.61504638671875,-0.05956044247150421,-0.004754688280378468,-0.015416881288203876
1761509414150203400,0.635203369140625,-0.07766717704832553,-0.011707745121559128,-0.013883018217852804
1761509414170360300,0.6553603515625,-0.048939095214009284,-0.01985834575081244,-0.021048386652441693
1761509414190518300,0.675518310546875,-0.0580664045214653,-0.006055185552849434,-0.015366637521865777
1761509414210675200,0.69567529296875,-0.0640524931937456,-0.00832092939459253,-0.011965190481347962
1761509414230832400,0.715832275390625,-0.04893967973589897,-0.0029091015128884464,-0.010857612831937149
1761509414250989300,0.7359892578125,-0.05522153648436069,-0.003468447862123139,-0.006938831953005865
1761509414271147300,0.756147216796875,-0.056120531150698656,-0.014413496948918327,-0.006227407164464239
1761509414291304400,0.776304443359375,-0.05492284579873085,-0.013633616883913055,-0.0052551623155362905
1761509414311461400,0.79646142578125,-0.05716740985512733,0.0010765157908666878,-0.023727529034088365
1761509414331618300,0.816618408203125,-0.0595610269933939,-0.011092663696827366,-0.01952014047212433
1761509414351776300,0.8367763671875,-0.050581601724028584,-0.012563156374497338,-0.01626040574052604
1761509414371933400,0.856933349609375,-0.04384790955483913,-0.0024586634648032487,-0.012466783327935263
1761509414392090400,0.87709033203125,-0.060009355282783505,-0.018731186618097126,-0.014655032353522255
1761509414412247300,0.897247314453125,-0.054473348465561865,-0.00007280037472955882,-0.00487824159481097
1761509414432405200,0.9174052734375,-0.0573170474588871,-0.008968903875350952,-0.006516039963671937
1761509414452562400,0.9375625,-0.028289105895161627,-0.008822166048153304,-0.019274052189989014
1761509414472719400,0.95771923828125,-0.039812370428442954,-0.006590539105143398,-0.02765341550724115
1761509414492877300,0.977877197265625,-0.05088672215044498,-0.010745028436090797,-0.026975029905198605
1761509414513034200,0.9980341796875,-0.061659460577368735,-0.000982905523548834,-0.020532459319825284
1761509414533191400,1.01819140625,-0.05237959105670452,-0.0040233463651034975,-0.02506799299076665
1761509414553348400,1.038348388671875,-0.048640404528379436,-0.012304793132678606,-0.006205802687432151
1761509414573506300,1.05850634765625,-0.05342822332680225,-0.003067949902988039,-0.01307288914505625
1761509414593663500,1.07866357421875,-0.055224459093809124,-0.005188618151657283,-0.018397166607470716
1761509414613820400,1.0988203125,-0.05208090037107467,-0.017278206764231436,-0.006427843373699579
1761509414633977300,1.118977294921875,-0.09053893358111381,-0.015266506182216108,-0.01400225155019434
1761509414654135600,1.139135498046875,-0.05357669188678264,-0.006309055282641202,-0.016292958586546592
1761509414674292200,1.159292236328125,-0.058664370414614676,-0.01150984336270485,-0.015141941370919811
1761509414694449400,1.179449462890625,-0.05043547125160694,-0.0022249232075875623,-0.012503087617177515
1761509414714606300,1.1996064453125,-0.04998422035276889,-0.012178586636856198,-0.00733040910345735
1761509414734764300,1.219764404296875,-0.057462593409419054,-0.00638275983966887,-0.014697131629311478
1761509414754921500,1.23992138671875,-0.046539048334956166,-0.010896337407128885,-0.01696909514928702
1761509414775078400,1.260078369140625,-0.04593932887613773,-0.013226191427069715,-0.021062453993700908
1761509414795235300,1.2802353515625,-0.05776011505126953,-0.010658610527962445,-0.017750626031972933
1761509414815393500,1.3003935546875,-0.048182723888754844,-0.005697458156361244,-0.01437941658280324
1761509414835550200,1.32055029296875,-0.06404138727784156,-0.008423723048786632,-0.02301300582287367
1761509414855707400,1.340707275390625,-0.04862520695924759,-0.012833324218541383,-0.009812875852244905
1761509414875865300,1.360865234375,-0.05161445190310478,-0.008102884463430382,-0.012473181102680973
1761509414896022300,1.381022216796875,-0.061487611141800874,-0.002377168326964602,-0.010213440026750321
1761509414916179500,1.401179443359375,-0.06672258918583393,-0.014600009664078243,-0.015698246379697228
1761509414936336400,1.42133642578125,-0.05729425110518932,-0.007474436667049303,-0.026278453342628197
1761509414956494300,1.441494384765625,-0.059091071394085884,-0.00137925703052897,-0.0206173497078591
1761509414976651500,1.461651611328125,-0.04607259986698627,-0.008640854664496146,-0.014965918083733412
1761509414996808200,1.48180810546875,-0.05534896225631237,-0.010804056013794616,-0.008355671914410777
1761509415016965400,1.50196533203125,-0.05894084926843643,-0.007329260609275661,-0.004572059439180884
1761509415037123300,1.522123291015625,-0.06133505092859268,-0.010232644767430611,-0.01044907998010749
1761509415057276400,1.5422763671875,-0.06776712980270386,-0.0039473128536716105,-0.009413069729565177
1761509415077433600,1.56243359375,-0.045620764446258545,-0.01871123524203431,-0.02591483506147051
1761509415097590500,1.582590576171875,-0.06746727007329463,-0.003450674743414856,-0.01797019391665235
1761509415117748500,1.60274853515625,-0.05983399871587753,-0.0044234881312120704,-0.011037828237051144
1761509415137905700,1.62290576171875,-0.05235328757166862,-0.010799585334653965,-0.008629837796848732
1761509415158062300,1.643062255859375,-0.05459843614995479,0.003356539319711737,-0.0247098637354793
1761509415178219500,1.663219482421875,-0.05983633680343627,-0.015659843748202548,-0.007430761922104284
1761509415198377700,1.683377685546875,-0.05654664760828018,-0.01342475077304989,-0.013779585242841858
1761509415218534400,1.703534423828125,-0.051909635457396505,-0.011786765174521133,-0.01651307217720896
1761509415238691600,1.723691650390625,-0.05280804560184479,-0.012961713538295588,-0.013275115452578756
1761509415258849500,1.743849609375,-0.06717442460656166,-0.0070809210045496,-0.006681215346569661
1761509415279006500,1.76400634765625,-0.046076106998324394,-0.012609740029159001,-0.010578106337389908
1761509415299163600,1.78416357421875,-0.06059153908491134,-0.007996775474143214,-0.008242948237957898
1761509415319320300,1.8043203125,-0.0541582911670208,-0.01685449689286761,-0.013250469635089393
1761509415339478500,1.824478515625,-0.05026654442548752,-0.010484788331016898,-0.010773777323251124
1761509415359635700,1.8446357421875,-0.04742284543216228,-0.014275896842824294,-0.017112197980983183
1761509415379792400,1.86479248046875,-0.06478080746829509,-0.0074028236024081704,-0.016653827788191848
1761509415399949600,1.884949462890625,-0.059092240437865255,-0.0037671248480211942,-0.009040359393076505
1761509415420107500,1.905107421875,-0.05415536855757236,-0.0144740680297371,-0.018638039858371484
1761509415440264400,1.925264404296875,-0.05236030183434486,-0.01211652685184963,-0.01126474146125838
1761509415460421600,1.945421630859375,-0.0511649545699358,-0.003998659448418766,-0.005097124492900912
1761509415480578600,1.96557861328125,-0.04278583328127861,-0.012568065445055253,-0.014927015412028413
1761509415500736500,1.985736572265625,-0.05236147087812423,-0.010744489579973742,-0.011498050176922696
1761509415520893700,2.005893798828125,-0.05670154590904712,-0.006115194944664836,-0.011804019986710044
1761509415541050600,2.026050537109375,-0.052961190336942666,-0.006282642199750989,-0.007395667775836773
1761509415561208600,2.04620849609375,-0.03949555956423283,-0.000036313422396779056,-0.011175142932066227
1761509415581365500,2.066365478515625,-0.06717793173789978,-0.0115611534248339,-0.01339440358384745
1761509415601522400,2.0865224609375,-0.04592939200401306,-0.004051526713394559,-0.016251875374198425
1761509415621679600,2.1066796875,-0.04847381578981876,-0.006578296111500822,-0.01954385014127474
1761509415641837600,2.126837646484375,-0.055954526934027665,-0.00562784068598412,-0.024689051559602375
1761509415661994500,2.146994384765625,-0.06089490594565868,-0.012394170182873494,-0.011466648108372465
1761509415682151700,2.167151611328125,-0.04413607884645462,0.0008415699572535231,-0.008976313146960456
1761509415702308600,2.18730859375,-0.04922317285239696,-0.006412908382760361,-0.009641304977890104
1761509415722466600,2.207466552734375,-0.0546112956315279,-0.0067912721419008445,-0.006872171341406647
1761509415742623500,2.22762353515625,-0.04608195221722126,-0.008400556802330539,-0.0182663478686125
1761509415762780700,2.24778076171875,-0.06747662242352961,-0.014762744211428798,-0.007780726137245074
1761509415782938400,2.2679384765625,-0.051018239575624465,-0.003208390420139767,-0.00868383300640853
1761509415803095600,2.288095458984375,-0.05894786353111267,-0.011196503097214735,-0.008261125498753972
1761509415823252500,2.30825244140625,-0.05131693026125431,-0.01628066079397686,-0.0018963077411521226
1761509415843409700,2.32840966796875,-0.06044482409060001,-0.002953972701076418,-0.0073180839114240365
1761509415863567600,2.348567626953125,-0.04922317285239696,-0.015479463946307077,-0.009790723385941237
1761509415883724500,2.368724609375,-0.04248948068320751,-0.0045772858868585896,-0.020463917278393636
1761509415903881500,2.388881591796875,-0.05909867017865181,-0.012189888915582559,-0.018719550979230552
1761509415924038700,2.40903857421875,-0.05969780511558056,-0.006539124011737294,-0.013998502390261272
1761509415944196400,2.4291962890625,-0.06358779829144477,-0.0029410355876898393,-0.01533042684745742
1761509415964353500,2.449353515625,-0.05027063607871532,-0.003241936496715061,-0.014445643369562458
1761509415984510700,2.4695107421875,-0.047129999965429305,-0.010882432179362512,-0.01269116438505007
1761509416004668400,2.48966845703125,-0.0531166731595993,-0.010004594465484842,-0.016857627281581515
1761509416024825600,2.50982568359375,-0.04503507351279259,-0.009923003429523668,-0.008705222854309249
1761509416044986400,2.529986328125,-0.07032207498252391,-0.0009399340315023436,-0.013990351049846503
1761509416065143000,2.55014306640625,-0.05775368531048298,-0.009641907766088843,-0.01618769441405311
1761509416085301200,2.57030126953125,-0.06269172623455524,-0.007545949266990646,-0.01454547559840139
1761509416105458200,2.590458251953125,-0.05969838963747024,-0.01563756341773551,-0.02224857905532699
1761509416125615000,2.610614990234375,-0.059548167511820786,-0.01092811621830333,-0.011970553926343563
1761509416145772300,2.630772216796875,-0.057602878662943835,-0.006817918120231479,-0.016319901392399333
1761509416165930200,2.65093017578125,-0.05131693026125431,-0.014170139479986391,-0.00664903924317332
1761509416186087200,2.671087158203125,-0.059843351066112514,-0.004416578899812885,-0.008716616464580874
1761509416206244400,2.691244384765625,-0.06104337450563907,-0.0232678847662406,-0.019237471622822338
1761509416226402300,2.71140234375,-0.05116729265749454,-0.005499350901530124,-0.010332705325132701
1761509416246559200,2.731559326171875,-0.06897533654868603,-0.007086852988414466,-0.012057891999790444
1761509416266716200,2.751716064453125,-0.06523615002036094,-0.0056513174596941095,-0.010315085186762735
1761509416286873000,2.771873046875,-0.05835223572552204,-0.0020477856755489483,-0.018762771349737885
1761509416307031000,2.792031005859375,-0.054608957543969154,-0.011513816284923813,-0.009825020664476323
1761509416327188200,2.812188232421875,-0.061791562524437904,-0.005479449757817201,-0.004295484687236603
1761509416347345200,2.83234521484375,-0.061191843065619464,-0.009972769988537765,-0.015345960060018114
1761509416367503000,2.852503173828125,-0.05834989763796329,-0.014576263462309724,-0.013407651224487926
1761509416387660300,2.872660400390625,-0.04922200380861759,-0.0023083637073403225,-0.0035211621467606162
1761509416407817200,2.892817138671875,-0.05610533358156681,-0.00900142247204203,-0.005994219463097397
1761509416427974100,2.91297412109375,-0.05909633209109306,-0.0067673615433508525,-0.002490211663825903
1761509416448132400,2.93313232421875,-0.05281213725507259,-0.009358341584354639,-0.013584850405319593
1761509416468289000,2.9532890625,-0.050716626280546184,-0.008741460928181186,-0.001203343341196887
1761509416488446200,2.9734462890625,-0.06148819566369056,-0.006291227365005761,-0.007013776335760485
1761509416508603100,2.99360302734375,-0.06148878018558025,0.0019916761407162992,-0.006628172268369235
1761509416528761000,3.013760986328125,-0.06478197651207447,-0.008102898163162172,-0.0092426861652988
1761509416548918300,3.033918212890625,-0.05011982943117618,-0.0018070174559252335,-0.013396750804560724
1761509416569075200,3.0540751953125,-0.04682897119224071,-0.016522515858989208,-0.011820895772986114
1761509416589233200,3.074233154296875,-0.06149404088258743,-0.0062715043178061015,-0.007175038161943666
1761509416609390300,3.094390380859375,-0.05775426983237266,-0.000516105429129675,-0.006379725349077488
1761509416629547000,3.114547119140625,-0.06254208863079548,-0.009902718693320638,-0.014272049501480068
1761509416649704200,3.1347041015625,-0.03964695073366165,-0.008344091074471361,-0.020331137194600887
1761509416669862100,3.154862060546875,-0.05880056401491165,-0.003137192914029583,-0.007110069467220455
1761509416690019000,3.17501904296875,-0.052965866512060165,-0.017959663389483467,-0.019338705790881067
1761509416710176300,3.19517626953125,-0.06224339794516563,-0.012363587814942002,-0.008932958062423859
1761509416730333200,3.215333251953125,-0.05221826301515102,-0.016308329685614444,-0.013250108875485602
1761509416750491100,3.2354912109375,-0.05685761325359344,-0.0032208252100273966,-0.00752706418671878
1761509416770648300,3.2556484375,-0.0634434213846922,-0.007864422365324572,-0.012303035000432281
1761509416790805000,3.275804931640625,-0.05805646764934062,-0.005930102435033768,-0.013900263896887189
1761509416810963200,3.295963134765625,-0.06509118859171867,-0.007610022912570275,-0.010838113547023385
1761509416831120100,3.3161201171875,-0.05386895283162593,-0.00878916796084959,-0.006263186297321226
1761509416851277000,3.336277099609375,-0.05222293919026851,-0.0027233559827087445,-0.011255590040422975
1761509416871434200,3.356434326171875,-0.05596329476237297,-0.012747308169212192,-0.00139817636013031
1761509416891592200,3.37659228515625,-0.06209785199463367,-0.0038016618718625973,-0.012178593486722093
1761509416911749000,3.3967490234375,-0.04489186564981937,-0.018972922952100634,-0.008812425538850947
1761509416931906300,3.41690625,-0.06449556078612804,-0.002749928895803168,-0.00612302205809392
1761509416952064300,3.437064208984375,-0.05581716428995132,-0.010296850843750871,-0.007657323519862256
1761509416972221200,3.45722119140625,-0.050131519868969916,-0.007486054039606824,-0.005786401381716132
1761509416992378000,3.477378173828125,-0.05327274050414562,-0.003117497266293503,-0.023304424234211907
1761509417012535000,3.49753515625,-0.06284837810099124,-0.007711464859894476,-0.009511109576828311
1761509417032693200,3.517693359375,-0.05775777696371078,-0.00016929215230047703,-0.014208080887177493
1761509417052847000,3.53784716796875,-0.04144727815389633,-0.009804089757590555,-0.002894314935710281
1761509417073004000,3.558004150390625,-0.05745850175619125,-0.0034097810440231113,-0.003638027708791196
1761509417093161200,3.5781611328125,-0.06793430306315422,-0.016774600057071074,-0.014081440566515084
1761509417113319200,3.598319091796875,-0.050579848158359524,-0.003689881193614565,-0.012700532718305475
1761509417133476000,3.61847607421875,-0.05821195047199726,-0.010824532546242698,-0.009929453719907905
1761509417153633000,3.638633056640625,-0.053123102900385855,-0.005031459395145065,-0.01328793155166786
1761509417173791200,3.658791259765625,-0.05192483302652835,-0.0031520388567121698,-0.011820261018746532
1761509417193948000,3.678947998046875,-0.05716214915812015,-0.00665926152637694,-0.012739967396261636
1761509417214105000,3.69910498046875,-0.06853460704386234,-0.008667094217450358,-0.004310668556636665
1761509417234262000,3.719261962890625,-0.05910802252888679,-0.009102037868881597,-0.018308214248961303
1761509417254420000,3.739419921875,-0.05611643949747085,-0.0005064927839906885,-0.009446777919633314
1761509417274577200,3.7595771484375,-0.0571644872456789,-0.009193995035230182,-0.018857975352520588
1761509417294734000,3.779734130859375,-0.04848492170572281,-0.003667194437771104,-0.012366594906069804
1761509417314892000,3.79989208984375,-0.06404664797484874,-0.0056583682549884535,-0.007338786489446647
1761509417335049200,3.82004931640625,-0.05851005663573742,-0.011099490729835815,-0.0030258323608897625
1761509417355206000,3.840205810546875,-0.056714989912509915,-0.00580257163180504,-0.0101719047232531
1761509417375363000,3.860363037109375,-0.05791209074258804,0.005651185028953477,-0.01565738007976906
1761509417395521300,3.880521240234375,-0.04803600889444351,-0.017239162528631276,-0.005031342947424855
1761509417415678000,3.900677978515625,-0.05267477461099624,-0.010794667130941524,-0.010442547491332516
1761509417435835100,3.920835205078125,-0.059408466780185694,-0.00409944380861707,-0.012827243820915464
1761509417455993000,3.9409931640625,-0.04175006049275398,-0.01395082504034508,-0.01259524571292568
1761509417476150000,3.96114990234375,-0.06419511653482914,-0.0022629673627670853,-0.002944106610899325
1761509417496307200,3.98130712890625,-0.06689268505573272,-0.008228771298844367,-0.012812162699503823
1761509417516463000,4.001463134765625,-0.06344926660358906,-0.001981547472346574,-0.016884465056157205
1761509417536620000,4.0216201171875,-0.054471010378003115,0.000906141359754838,-0.0117621650228044
1761509417556777000,4.04177685546875,-0.062249827685952185,-0.005369034486170858,-0.004244896144315134
1761509417576935200,4.06193505859375,-0.06344634399414062,-0.006038535812147893,-0.00724890939904144
1761509417597092000,4.082092041015625,-0.06883446677327155,-0.012798143307305871,-0.008134270548960194
1761509417617249000,4.1022490234375,-0.04489420373737812,-0.013255791980889626,-0.01613034505349351
1761509417637406200,4.12240625,-0.05192658659219741,-0.008318130082730203,-0.012437027510488405
1761509417657564200,4.142564208984375,-0.056712067303061484,-0.00636141109096352,-0.0038518302896758537
1761509417677721000,4.16272119140625,-0.05925532204508781,-0.001268302902765572,-0.01610347759616561
1761509417697878000,4.1828779296875,-0.05970423485636711,-0.0030280791169032453,-0.013953092345956247
1761509417718036200,4.2030361328125,-0.05581424168050289,-0.010472006481257267,-0.01565286145156715
1761509417738193200,4.223193115234375,-0.058955462315678595,-0.005583280025050044,-0.009568011412816121
1761509417758350000,4.24335009765625,-0.04937748663127422,-0.008925430059805511,-0.007767948854062706
1761509417778507000,4.263507080078125,-0.05596095667481422,-0.00932139797429554,-0.0025974577308516015
1761509417798665000,4.2836650390625,-0.05506196200847625,-0.010945734073384665,-0.0005613739095395431
1761509417818822100,4.303822265625,-0.05356617049276829,-0.0034931484785396603,-0.015214903859142212
1761509417838979000,4.32397900390625,-0.05551145934164524,-0.007468979607219807,-0.004218033253564499
1761509417859136000,4.344135986328125,-0.05311608863770961,-0.004816076778527349,-0.012752502650849054
1761509417879294200,4.364294189453125,-0.06957505600750447,-0.003432887924974784,-0.010448502308083698
1761509417899451100,4.384451171875,-0.06149579444825649,-0.01796422540016938,-0.013529763783793896
1761509417919608000,4.404608154296875,-0.044286885493993754,-0.005359298543445766,-0.015741683662624562
1761509417939766300,4.424766357421875,-0.05356500144898891,-0.006771101570129394,-0.008602769410121254
1761509417959924000,4.444924072265625,-0.05251753822267055,-0.004416624565585516,-0.007304422995541245
1761509417980081200,4.4650810546875,-0.05042319629192352,-0.006917871363367885,-0.011658142959326505
1761509418000237800,4.48523779296875,-0.0531166731595993,-0.008073206277796998,-0.01347170432046987
1761509418020396000,4.50539599609375,-0.05491232440471649,-0.01815418131458573,-0.02075965795511147
1761509418040553200,4.52555322265625,-0.0469821159273386,-0.00826119399741292,-0.005495272948034108
1761509418060709600,4.545709716796875,-0.05670856017172336,-0.013129078594991005,-0.005061534873000346
1761509418080866600,4.565866455078125,-0.05775543887615203,-0.0029673071066848933,0.004476357679476495
1761509418101024500,4.5860244140625,-0.06074819095134735,-0.0053802636996610085,-0.009814083711931015
1761509418121181700,4.606181640625,-0.0626934798002243,-0.007948470219853334,-0.009200573189777787
1761509418141338600,4.626338623046875,-0.05162088164389133,-0.0196385883531766,-0.008021667886804789
1761509418161495800,4.646495849609375,-0.05446633420288562,0.009344066463829948,-0.015093809646565932
1761509418181653800,4.66665380859375,-0.05626490805745125,-0.012081784332031383,-0.005281089057947975
1761509418201810700,4.686810791015625,-0.06704115361571311,-0.010215675366320646,-0.002822010034613777
1761509418221967600,4.706967529296875,-0.05791267526447773,-0.006637542884913273,-0.011844694490393158
1761509418242125800,4.727125732421875,-0.04683949258625507,-0.0037192716848803683,-0.009869101834797766
1761509418262282500,4.747282470703125,-0.06269932501912116,-0.007024126483127474,-0.011359372358594555
1761509418282439700,4.767439697265625,-0.0577612840950489,-0.005364257846353576,0.000924711346195545
1761509418302596600,4.7875966796875,-0.06584229921996593,-0.010940555574768222,-0.0064417349017341615
1761509418322754600,4.807754638671875,-0.052823243170976635,-0.005947711156960576,-0.007406652677443343
1761509418342911700,4.827911865234375,-0.03725976333618164,-0.008196339467121288,-0.006567751884600148
1761509418363068700,4.848068603515625,-0.058956631359457966,-0.009851326432800851,-0.0031121498043183236
1761509418383226600,4.8682265625,-0.04968085349202156,-0.001529657252691686,-0.004629267235845327
1761509418403383800,4.8883837890625,-0.051178983095288275,-0.012921842752210795,-0.01005958062231075
1761509418423540500,4.90854052734375,-0.055820086899399754,-0.01223172332989052,-0.0028866042700014076
1761509418443697700,4.92869775390625,-0.05627016875445842,-0.004252045121020637,-0.005802857042883988
1761509418463855600,4.948855712890625,-0.04819149171710014,-0.009984044867800548,-0.0027205247048055752
1761509418484012500,4.969012451171875,-0.05657295109331607,-0.003721879200497642,-0.0024234871201450005
1761509418504169700,4.989169677734375,-0.04939034611284732,-0.011795021546212956,-0.0156730754058226
1761509418524327700,5.00932763671875,-0.052532151269912716,-0.011704991475469433,-0.007786432075535412
1761509418544484600,5.029484619140625,-0.060462359747290605,-0.005671040506893769,-0.01619587087064283
1761509418564641800,5.049641845703125,-0.04609656526446342,-0.013517571022501215,-0.010873990861291531
1761509418584798500,5.069798583984375,-0.05657061300575733,-0.0018943852121243252,-0.017382637536374385
1761509418604956700,5.089956787109375,-0.06285597688555718,-0.005209167749341577,-0.015431905327399726
1761509418625113600,5.110113525390625,-0.054476855596899985,-0.0133132623557467,-0.011030816257663537
1761509418645270500,5.1302705078125,-0.052530397704243656,-0.005378094575461,-0.007029921469674445
1761509418665428700,5.1504287109375,-0.06001052432656288,-0.007024505509040318,-0.005705570680869277
1761509418685585700,5.170585693359375,-0.04848725979328155,-0.005576325127878226,-0.009354969167045783
1761509418705742600,5.19074267578125,-0.06255377906858921,-0.012130103286053052,-0.011511729359114542
1761509418725899800,5.210899658203125,-0.06075754330158233,0.00017983181262388824,-0.0025475929904263464
1761509418746057700,5.2310576171875,-0.05686521203815937,-0.007125778493005782,-0.007509718042984604
1761509418766214700,5.251214599609375,-0.05357201571166515,-0.003905542371445335,-0.007246870422293432
1761509418786371600,5.27137158203125,-0.05162614234089851,-0.014036420964566058,-0.004809135581087321
1761509418806528500,5.291528564453125,-0.057761868616938584,-0.0006792646681657061,-0.01355234094178304
1761509418826686700,5.311686767578125,-0.05521919839680194,-0.008771184779587202,-0.01166032121668104
1761509418846843600,5.33184375,-0.09262976838052273,-0.01872009440192487,-0.0032278668721672146
1761509418867000600,5.35200048828125,-0.08544950148761273,-0.008992257351474835,-0.001079132439638488
1761509418887158500,5.372158447265625,-0.061358431804180144,-0.007211223720177076,-0.005577539837430231
1761509418907315700,5.392315673828125,-0.05282967291176319,-0.009024871846288442,-0.015621831559063866
1761509418927472600,5.41247265625,-0.05626899971067905,-0.004811957725835964,-0.008903199961688368
1761509418947629600,5.432629638671875,-0.060608490219712256,-0.003111154290474951,-0.014880187445483169
1761509418967787800,5.452787841796875,-0.05492284579873085,-0.008280643049976787,-0.004705040452373214
1761509418987944700,5.47294482421875,-0.05162964947223663,-0.0046243353324010965,-0.009009491614066063
1761509419008101600,5.4931015625,-0.05178279420733452,-0.006447810732782818,-0.009827922724327072
1761509419028259800,5.513259765625,-0.041158524340391155,-0.0037994059826945885,-0.010789516031788661
1761509419048416800,5.533416748046875,-0.05462766224443912,-0.007603743868833408,-0.005883048422913998
1761509419068573700,5.55357373046875,-0.04534896176755428,-0.00010654738070443272,-0.0012442461737431586
1761509419088731000,5.57373095703125,-0.07273322777748108,-0.008155523399543016,-0.005975489646452479
1761509419108888800,5.593888916015625,-0.05163432564735412,-0.011342167778755538,-0.001334458907577209
1761509419129045800,5.614045654296875,-0.04968845227658748,-0.007344471878139302,-0.0018083052307134493
1761509419149203000,5.634202880859375,-0.055227381703257555,-0.004458988702856004,-0.01393028000923805
1761509419169361000,5.65436083984375,-0.06151566819250583,-0.005009717920795083,-0.0005451534271007403
1761509419189517800,5.674517822265625,-0.049991819137334824,-0.01914209637339227,-0.0059526247940957545
1761509419209674800,5.6946748046875,-0.07303659463822841,-0.019622477468592112,-0.0015106191920815034
1761509419229831700,5.714831787109375,-0.07109130578935145,-0.004602082401397638,-0.006070319189899601
1761509419249989600,5.73498974609375,-0.04655015425086021,-0.012748372181714512,-0.008930900819366797
1761509419270146800,5.755146728515625,-0.04609598074257373,-0.010427002862328663,-0.0054410722424974665
1761509419290303700,5.7753037109375,-0.060008770760893816,-0.025738818624150006,-0.008725829534209332
1761509419310461700,5.795461669921875,-0.06449672982990741,-0.009657776622078382,-0.0068183199790306384
1761509419330619000,5.815618896484375,-0.061655368924140926,-0.0026720824531977993,-0.010761353949806653
1761509419350775800,5.83577587890625,-0.05896189205646515,-0.007569521938823163,-0.006533434056467376
1761509419370932700,5.8559326171875,-0.06494564264118671,-0.008452031261241062,-0.014444124982622451
1761509419391091000,5.876091064453125,-0.06419745462238788,-0.00837760061842855,0.004218937435862608
1761509419411247600,5.89624755859375,-0.04654080190062523,-0.001024210214894265,-0.018048620314570142
1761509419431404800,5.91640478515625,-0.06240414146482944,-0.015514530693111008,-0.006433435147558338
1761509419451561700,5.936561767578125,-0.05925999822020531,-0.010846780910668895,-0.005033327125245705
1761509419471719700,5.9567197265625,-0.06090601186156273,-0.010471115998690947,-0.005469996942882426
1761509419491876900,5.976876953125,-0.058064066433906554,-0.0018461393233388662,0.005894126939354464
1761509419512033800,5.99703369140625,-0.05626958423256874,-0.005705878924834542,-0.00741291573815979
1761509419532191700,6.017191650390625,-0.05537234313189983,-0.007964476073160767,-0.008858662133640609
1761509419552349000,6.037348876953125,-0.05372632949054241,-0.0056423167359083886,-0.007380424540932289
1761509419572505600,6.057505615234375,-0.06360241133868694,-0.009213284257589839,-0.013893966586841269
1761509419592662800,6.077662841796875,-0.05986322481036186,-0.000008242671960033475,-0.011785815326450393
1761509419612820700,6.09782080078125,-0.05492518388628959,-0.007144241164880804,-0.015404489880800246
1761509419632977700,6.117977783203125,-0.04609831883013248,-0.011369763605156912,-0.0065174784355098376
1761509419653134800,6.138134765625,-0.04909048638343811,-0.0031245663278969002,-0.0007857800828292965
1761509419673292800,6.158292724609375,-0.05507599053382873,-0.009991209827526472,0.0000526069700717926
1761509419693449700,6.17844970703125,-0.053881227791309355,-0.004986903300788254,-0.017830520584480834
1761509419713607000,6.19860693359375,-0.05956862577795982,-0.005310052574239671,-0.0066814368255669245
1761509419733763600,6.218763671875,-0.054930444583296774,-0.0026278003534767774,-0.002734996188152581
1761509419753921800,6.238921875,-0.05987140811681747,-0.01080298286813777,-0.00038935094403568654
1761509419774078700,6.25907861328125,-0.04999532626867294,-0.015044118436076677,-0.010168013999424875
1761509419794235600,6.279235595703125,-0.055682724255323404,-0.005395780929201282,-0.008398031485104002
1761509419814393900,6.299393798828125,-0.05627952110469341,-0.007809061749163083,-0.005971877483837306
1761509419834550800,6.31955078125,-0.05762742858231067,-0.00342028873830568,-0.006878238039300776
1761509419854707700,6.339707763671875,-0.06271393806636333,-0.00528942077816464,-0.013694708554539829
1761509419874865000,6.359864990234375,-0.06989771209061145,-0.008328496213117613,-0.010657487149955704
1761509419895022800,6.38002294921875,-0.051642508953809736,-0.01769594811911229,-0.0054403233238263056
1761509419915179800,6.4001796875,-0.04925006085932254,-0.005032756303087808,-0.007060668234387412
1761509419935336700,6.420336669921875,-0.05418810178339481,-0.009701159106078557,-0.004967130021238699
1761509419955495000,6.440494873046875,-0.0441629668533802,-0.01022990025449544,0.0012322269423864782
1761509419975651800,6.46065185546875,-0.03982172277867794,-0.004432182894321159,-0.005780592695437371
1761509419995808800,6.480808837890625,-0.05508417384028434,-0.0022901202311739325,-0.003199713923339732
1761509420015965700,6.500965576171875,-0.058224225431680675,-0.009735107041453011,-0.007737001159950159
1761509420036123600,6.52112353515625,-0.05403378800451755,-0.006998288788972422,-0.009941151007567532
1761509420056281000,6.541281005859375,-0.05433364773392677,-0.022208877232600933,-0.004285527265514247
1761509420076438000,6.56143798828125,-0.0538835658788681,-0.011711261386051773,-0.009210982702649199
1761509420096595000,6.581594970703125,-0.07109247483313083,-0.008017000844841823,-0.000045725138136185704
1761509420116753000,6.6017529296875,-0.055230888834595676,-0.009045937467203474,-0.0014624600682640447
1761509420136910000,6.62191015625,-0.0686976886510849,-0.007685777862789109,-0.004330951009551063
1761509420157067000,6.64206689453125,-0.06436112075150012,-0.010088473356654868,-0.0030331845502834767
1761509420177225000,6.662224853515625,-0.0540361260920763,-0.0023052630013786256,-0.018087545819161457
1761509420197382000,6.6823818359375,-0.06376257033646106,-0.012083154305210337,0.0007985938986297697
1761509420217539000,6.7025390625,-0.06780044755041599,-0.01061308631922584,-0.0011556774077238513
1761509420237696000,6.722696044921875,-0.048646249747276306,-0.004121276614512317,-0.007777511266851798
1761509420257854000,6.74285400390625,-0.04849427405595779,-0.010057457163883373,-0.004913322041346691
1761509420278011100,6.76301123046875,-0.057173255074024196,-0.009277280271355994,-0.011367717778543009
1761509420298168000,6.78316796875,-0.06405775389075279,-0.009086187279201113,-0.0006996727019548416
1761509420318326000,6.803325927734375,-0.0643581981420517,-0.009237541916011833,-0.0074530513857258476
1761509420338483000,6.82348291015625,-0.056876902475953096,-0.007979865438537672,-0.005139198652515188
1761509420358639900,6.843639892578125,-0.04685001398026943,-0.007519138891878537,-0.006159769305330701
1761509420378797000,6.863797119140625,-0.05208557654619217,-0.006791203643241897,-0.004258397229993716
1761509420398954800,6.883954833984375,-0.06121405489742755,-0.004123774532275274,-0.003603417619713582
1761509420419112000,6.90411181640625,-0.05971592529416084,-0.010136988673498853,-0.009822940588532947
1761509420439269000,6.92426904296875,-0.0592646743953228,-0.005340484245121479,-0.004064061967981979
1761509420459426800,6.9444267578125,-0.06375263346433639,-0.005484573457506485,-0.002508685752144083
1761509420479584000,6.964583984375,-0.04609714978635311,0.0016146823547547682,-0.0023176886581117288
1761509420499741200,6.9847412109375,-0.06195756674110889,-0.008740602411655708,0.0014684559842105954
1761509420519897900,7.00489794921875,-0.058364510685205456,-0.00328486232298892,-0.0018127896095858885
1761509420540056000,7.02505615234375,-0.055819502377510065,-0.008749192143487744,-0.009904362661135382
1761509420560213000,7.045212890625,-0.056117608541250225,-0.005304595514410175,-0.010222013775561936
1761509420580370000,7.065369873046875,-0.05132978974282741,-0.0067673569767735895,-0.010058580541890114
1761509420600527000,7.085527099609375,-0.054472763943672176,0.002675046161841601,-0.003664472757722251
1761509420620684800,7.105684814453125,-0.0627022476285696,-0.01213960176676046,-0.015465567851695231
1761509420640842000,7.125842041015625,-0.05387304448485374,-0.004656470336602069,0.001962632709322497
1761509420660999200,7.145999267578125,-0.04579202935993671,-0.00844755601552315,0.0014036699525779113
1761509420681156900,7.166156982421875,-0.03411912722289562,-0.006338281377125531,-0.00024947668246459216
1761509420701314000,7.18631396484375,-0.05626666162312031,-0.01232403668926563,-0.00038967973759863525
1761509420721471000,7.206470947265625,-0.05297346529662609,-0.012833470349013805,-0.011146535608801059
1761509420741628000,7.2266279296875,-0.06359831968545913,0.0023272419377462937,-0.0007358171609928831
1761509420761786000,7.2467861328125,-0.04803659341633319,-0.005711806342122145,-0.012125034385290927
1761509420781943000,7.266943115234375,-0.05925941369831562,-0.011100321846897713,-0.0012303272462449966
1761509420802100000,7.287099853515625,-0.06255027193725109,-0.007982568852277471,-0.006998147225077264
1761509420822258000,7.3072578125,-0.05237491488158703,-0.011238040684000588,0.000049305334710516034
1761509420842414800,7.327414794921875,-0.0588069937556982,0.0036901140890549865,-0.006826809246162883
1761509420862572000,7.347572021484375,-0.06613689825236797,-0.005354663467523641,-0.002529331247950904
1761509420882729000,7.36772900390625,-0.05192015685141086,-0.005489893520018086,-0.008739332903176546
1761509420902887000,7.387886962890625,-0.04354162008464336,-0.012644943773280829,0.009482337856781669
1761509420923043800,7.4080439453125,-0.061797992265224456,0.001770407206006348,-0.004738120738067664
1761509420943201000,7.428200927734375,-0.06404547893106936,-0.0068144338217796755,-0.007007234713830985
1761509420963358000,7.44835791015625,-0.04668810141682624,-0.007583080106717534,0.0003818982899421826
1761509420983516000,7.468515869140625,-0.059706572943925854,-0.008049067350383847,-0.014144995905575341
1761509421003673000,7.488673095703125,-0.05551613551676273,-0.0008560049079824239,-0.0064358965327031906
1761509421023830000,7.508830078125,-0.061950552478432654,0.0009449298670282587,-0.00886950318806339
1761509421043988000,7.528988037109375,-0.049530631366372105,-0.013023755056993104,-0.006101047688303515
1761509421064145000,7.549144775390625,-0.047885202246904374,-0.006151955891633406,-0.0009240149431629106
1761509421084301800,7.5693017578125,-0.04683773902058601,-0.007774734787875786,0.004416483001690358
1761509421104458800,7.589458740234375,-0.061951721522212025,-0.005558410445274785,-0.0028176695029251274
1761509421124617000,7.609616943359375,-0.05851181020140647,-0.00023143413569778204,-0.004647465046239085
1761509421144773600,7.629773681640625,-0.05432312633991241,-0.00460812398311682,0.001983255372243002
1761509421164930800,7.649930908203125,-0.07287877372801303,-0.005787753088586032,0.0015033994334284215
1761509421185088800,7.6700888671875,-0.05402677374184131,-0.008325249376683495,0.0020932459522038697
1761509421205245700,7.69024560546875,-0.051034021666646,-0.002493492749589495,-0.006585986227612011
1761509421225403000,7.71040283203125,-0.06031213762164116,-0.0060016470010159535,-0.002616036850446835
1761509421245559800,7.730559814453125,-0.052530397704243656,-0.006711489470535889,-0.0008593750420026481
1761509421265717800,7.7507177734375,-0.038164018699526785,-0.001178779722098261,-0.0020495392412180078
1761509421285875000,7.770875,-0.05686696560382843,-0.013036080249026418,-0.0012271671747788786
1761509421306031600,7.791031494140625,-0.07078267823159694,-0.007489784933230839,0.0012555484524695202
1761509421326189800,7.81118994140625,-0.05656827491819858,-0.005464594681980088,0.0010944487397791817
1761509421346346800,7.8313466796875,-0.05986030220091343,-0.004093511824752204,0.002587107583484612
1761509421366503700,7.851503662109375,-0.047589434170722957,-0.008226081584836356,-0.0007966394035611301
1761509421386660900,7.871660888671875,-0.06689210053384304,-0.00501864101276733,-0.01101106809428893
1761509421406818800,7.89181884765625,-0.05013093534708023,-0.003752945625619031,0.005053241968690418
1761509421426975700,7.911975830078125,-0.060305707880854605,-0.0056285804715007545,-0.005884555393410846
1761509421447133000,7.9321328125,-0.06659107176065444,0.001267553984094411,-0.003641315644420683
1761509421467289900,7.952289794921875,-0.042350364473462104,0.0009994639327051118,-0.006517240973492153
1761509421487447800,7.97244775390625,-0.058958969447016715,-0.003810790459811687,0.00017243852403480558
1761509421507604700,7.992604736328125,-0.05985796411335468,-0.008534330116678028,0.0006546690830262378
1761509421527760600,8.0127607421875,-0.057013096076250075,-0.001930251109949313,0.0012223951015388592
1761509421547918800,8.0329189453125,-0.04249883303344249,-0.0074561520916875445,-0.0004338842055061832
1761509421568075800,8.05307568359375,-0.05431903468668461,-0.002738836679630913,-0.005337196309491992
1761509421588232700,8.073232666015626,-0.05356850858032703,-0.008960327843250706,-0.001818260369147174
1761509421608391000,8.093390869140626,-0.05745733271241188,-0.007138911969214678,0.002247714994708076
1761509421628547800,8.1135478515625,-0.06134907945394515,-0.007195738456677645,0.008406886078417301
1761509421648704800,8.133704833984375,-0.04533902489542961,-0.005578695181477814,-0.0010801736192544921
1761509421668862000,8.153862060546874,-0.05491583153605461,-0.011384248788235709,-0.00552082294782158
1761509421689020000,8.17402001953125,-0.052073886108398436,-0.010022577646747232,-0.006128547616582363
1761509421709176800,8.1941767578125,-0.04698445401489734,0.0008224085990572348,-0.0021607490973081438
1761509421729333800,8.214333740234375,-0.06314356165528297,0.003783454928314313,-0.009080547556281088
1761509421749490700,8.23449072265625,-0.0613473258882761,-0.010594034558883867,0.0014714151262771337
1761509421769649000,8.25464892578125,-0.05955167464315891,-0.0016466620953287927,0.001528620639652945
1761509421789805800,8.274805908203126,-0.059551090121269225,-0.008780573662440292,-0.009797559552104212
1761509421809962800,8.294962646484375,-0.06059855334758758,-0.008949573553795926,-0.004845722998119891
1761509421830120700,8.31512060546875,-0.052068625411391255,-0.00759356953469105,0.000625146161019802
1761509421850278000,8.33527783203125,-0.056256724750995635,-0.001863350753043778,-0.0014374443580163641
1761509421870434800,8.355434814453124,-0.056557753524184226,-0.014466656474838965,-0.002145583494217135
1761509421890591700,8.375591796875,-0.058951955184340474,-0.012771209634607657,-0.002657350674946792
1761509421910750000,8.39575,-0.05985094985067844,-0.011410049949772655,-0.0006239634175086394
1761509421930907000,8.415906982421875,-0.060599137869477265,-0.006265700198104605,-0.0058262584680691355
1761509421951063800,8.436063720703125,-0.0594037906050682,-0.00991209387644194,0.005897766501433216
1761509421971222000,8.456221923828124,-0.05027765034139156,-0.0036672903358936308,-0.006456341099110432
1761509421991378700,8.476378662109376,-0.05910685348510742,-0.012618790985294616,-0.010014257342973723
1761509422011536000,8.496535888671875,-0.0595563508182764,-0.002199103779741563,-0.007997054035356268
1761509422031692800,8.51669287109375,-0.053421793586015696,0.0022154795258073133,-0.014782165864529087
1761509422051851000,8.53685107421875,-0.06644084963500499,-0.004201346980244852,0.001959477204433642
1761509422072008000,8.557008056640624,-0.05387245996296405,-0.00826631313052494,-0.00240505641431082
1761509422092165000,8.5771650390625,-0.06045593000650405,-0.004767954187327996,-0.007245610046968795
1761509422112321800,8.59732177734375,-0.049531800410151476,-0.004716470595262944,0.006610714243492111
1761509422132480000,8.61747998046875,-0.06524374880492687,-0.00712284218382556,0.005150779492454603
1761509422152637000,8.637636962890625,-0.056714405390620226,-0.005933851594966836,-0.007856467387732118
1761509422172793900,8.6577939453125,-0.05716390272378921,-0.0026597435614326968,0.006670198478922248
1761509422192951800,8.677951904296876,-0.04564180723428726,-0.0033603113125311207,0.002552671024342999
1761509422213109000,8.69810888671875,-0.06688859340250491,-0.0065622126263799145,-0.0030523413419025016
1761509422233266000,8.718265869140625,-0.0577612840950489,0.0027496229351265354,0.003963606401346624
1761509422253422800,8.7384228515625,-0.055666357642412186,-0.0035146387911401686,-0.005288786023925058
1761509422273581000,8.7585810546875,-0.06135375562906265,-0.008346716856397688,0.0033335055039962753
1761509422293738000,8.778738037109376,-0.0540232666105032,-0.009517541600903496,0.001979962870036252
1761509422313895000,8.79889501953125,-0.05851531733274459,-0.010079271703469566,0.011169765787338838
1761509422334051800,8.8190517578125,-0.022455577436089516,-0.004139296328392811,-0.0023638658873969686
1761509422354209800,8.839209716796875,-0.058521747073531145,-0.01554134563480038,0.0049546769650420175
1761509422374367000,8.859366943359374,-0.05253682744503021,-0.006800747789721936,0.004449549587653018
1761509422394524000,8.87952392578125,-0.07064414654374122,-0.011869146228348835,0.00030136669990606606
1761509422414681900,8.899681884765625,-0.06765139446854591,-0.0014877132405294105,0.007321314764837734
1761509422434839000,8.919839111328125,-0.036977439263463016,-0.009934063679655082,-0.00573300439377781
1761509422454996000,8.939995849609375,-0.06121990011632442,0.00243931487693917,-0.0023626192118041214
1761509422475153000,8.96015283203125,-0.047153380841016765,-0.004174326542578637,-0.000014635880128480494
1761509422495311000,8.98031103515625,-0.051342649224400516,-0.009829959417786449,-0.006822338567022234
1761509422515467800,9.0004677734375,-0.05343874472081661,-0.007340129063162021,0.005142783415666781
1761509422535625000,9.020625,-0.05777765070796013,-0.018054077374399638,0.008924270149180666
1761509422555783000,9.040782958984375,-0.056281859192252155,0.0009105983391636982,0.00803794316817075
1761509422575939800,9.06093994140625,-0.05254208814203739,-0.00534501428976655,-0.0029698232907569033
1761509422596097000,9.081096923828126,-0.06077274087071419,-0.010467430770839564,0.0037704219168052076
1761509422616254000,9.10125390625,-0.0657090282291174,-0.013296630881354212,0.0023307582022389396
1761509422636412000,9.121411865234375,-0.06525953089594841,-0.0064911566841648885,0.01006130678851623
1761509422656569000,9.141569091796875,-0.047750762212276456,-0.0012518495248863473,-0.002781707706977613
1761509422676725800,9.161725830078124,-0.05553250212967396,-0.006830430541932582,0.005204792968323454
1761509422696883000,9.181883056640626,-0.05747779097855091,-0.0067830340365180744,-0.00310351897329092
1761509422717041000,9.202041015625,-0.056879825085401535,-0.009031493383320047,0.003176086452580057
1761509422737197800,9.22219775390625,-0.062117725738883016,-0.004359204423078336,0.0023929230185225606
1761509422757355000,9.24235498046875,-0.06466156500279903,-0.008123201165674254,-0.002711820808541961
1761509422777513000,9.262512939453124,-0.06705693570673465,-0.0023709303824231026,0.00384398947651498
1761509422797670000,9.282669921875,-0.07065057628452777,-0.012957439221977255,0.001497403517481871
1761509422817827000,9.3028271484375,-0.050451253342628476,-0.01228475955822505,0.008326897911075503
1761509422837983700,9.322983642578125,-0.0505985528588295,-0.00592188259596005,-0.01571748765299562
1761509422858142000,9.343141845703125,-0.0585281768143177,-0.0089390110605862,0.0010368642004905267
1761509422878299000,9.363298828125,-0.06675999858677387,-0.014473026850121095,0.0017796956241596489
1761509422898455800,9.383455810546875,-0.08157762849032879,-0.014479657520307228,-0.00989929832695052
1761509422918613000,9.403613037109375,-0.08816343662142753,-0.01034926601757761,0.012623407794907688
1761509422938771000,9.42377099609375,-0.030103461840748785,-0.012872989508649334,-0.006724568147817626
1761509422958928000,9.443927978515624,-0.04985504101514816,-0.0002630759495543316,-0.004537899157963693
1761509422979085000,9.4640849609375,-0.06496902351677418,-0.007159466133476234,0.0035249044568277893
1761509422999243000,9.484242919921876,-0.06093114630281925,-0.0090558058406692,-0.003251051384932361
1761509423019400000,9.50439990234375,-0.05793839422762394,-0.00939392435438931,-0.005457091795536689
1761509423039556900,9.524556884765625,-0.05973287642896175,-0.014075533698825166,-0.00929802166528534
1761509423059714800,9.54471484375,-0.05524257927238941,-0.006693277960410342,-0.0026895450446521862
1761509423079872500,9.56487255859375,-0.06347147843539715,-0.0006537375012645498,0.005609715940826572
1761509423100029700,9.58502978515625,-0.05120119492709636,-0.0028700253112474454,-0.004187062726565637
1761509423120186600,9.6051865234375,-0.052099605071544645,-0.0027736750975716857,-0.00031494770068675275
1761509423140343600,9.625343505859375,-0.046862873461842536,-0.001732458948949352,-0.003069927230942994
1761509423160501800,9.645501708984375,-0.059581485259532926,-0.0017587213347898796,0.0033995153783354906
1761509423180658700,9.66565869140625,-0.05329787494540214,-0.016180652751913292,0.0012416340915486217
1761509423200815600,9.685815673828126,-0.03953179992139339,-0.003955427661468274,-0.002446457003778778
1761509423220973800,9.705973876953125,-0.04970715697705745,-0.003912684498284943,0.00267303230126854
1761509423241130500,9.726130615234375,-0.06272679754793643,-0.0038664342037634924,-0.0015698933649575338
1761509423261287700,9.74628759765625,-0.049857379102706906,-0.006599923421419226,-0.004814875768707133
1761509423281444900,9.76644482421875,-0.060330842322111125,-0.0033252262994181363,-0.0014245118112070484
1761509423301602600,9.7866025390625,-0.06257482185661792,-0.005495076585211791,0.000618309994856827
1761509423321759700,9.806759765625,-0.04865910922884941,-0.007383022923395037,-0.0007189253916963935
1761509423341916700,9.826916748046875,-0.060630702051520345,-0.004564668433880433,-0.00417813963459339
1761509423362073600,9.847073486328124,-0.05688859291374683,-0.009462404747027904,0.006240584023157135
1761509423382231800,9.867231689453124,-0.04910626847445965,-0.0035184929823502895,0.0019138753638835622
1761509423402388500,9.887388427734376,-0.054043140354752536,-0.009910048049828037,0.005202253951365128
1761509423422545700,9.907545654296875,-0.058682490593194955,-0.0054900990159949285,0.00038980760176200415
1761509423442703600,9.92770361328125,-0.05254676431715488,-0.005193422190938144,-0.002649158235336654
1761509423462860500,9.947860595703125,-0.056285366323590276,-0.0010734881501412018,0.004216138124000281
1761509423483017700,9.968017822265624,-0.05703180077672004,-0.0038784854011610147,0.0034515834922902284
1761509423503174700,9.988174560546875,-0.04311608814895153,-0.010172096519498153,0.007584915870777331
1761509423523332600,10.00833251953125,-0.06571136631667614,-0.00668767020353116,-0.0029555618699640034
1761509423543489800,10.02848974609375,-0.05643383488357067,-0.007320177687099203,0.009662457363773136
1761509423563646700,10.048646728515624,-0.05149754752516746,-0.0005317824888741598,0.007824519613198936
1761509423583803600,10.0688037109375,-0.05254501075148582,-0.009534926560544409,0.002564713088585995
1761509423603961600,10.088961669921876,-0.059576809084415434,-0.011496075132256374,-0.0023127430549357087
1761509423624118500,10.109118408203125,-0.05882686749994755,-0.009061637359834276,0.011713005818566307
1761509423644275700,10.129275634765625,-0.06211714121699333,-0.003069205711735412,-0.0015022669222671539
1761509423664433700,10.14943359375,-0.058522916117310524,0.0005725209246389567,-0.0006406816568691284
1761509423684590600,10.169590576171874,-0.052984571212530134,-0.010618168919719754,0.009786051777401007
1761509423704747800,10.189747802734376,-0.05477846889197826,-0.011010022348095663,0.00503297549879644
1761509423724904700,10.20990478515625,-0.059416065564751624,-0.007017048288369551,0.005802763428050093
1761509423745062700,10.230062744140625,-0.048341713842749594,-0.0011388267376227304,-0.001642132050683722
1761509423765219600,10.250219482421874,-0.05582593211829662,-0.0034339062717044723,0.0005125343657098711
1761509423785376800,10.270376708984376,-0.06450666670203209,-0.012614206141722388,0.010256733462493867
1761509423805533700,10.29053369140625,-0.0318850845605135,0.002147423824854195,-0.0015749850986059755
1761509423825691600,10.310691650390625,-0.0451999086856842,-0.010052977351588197,0.002204081348958425
1761509423845848800,10.330848876953125,-0.07213584640622138,0.011159819782059639,0.008360695149400271
1761509423866005800,10.351005859375,-0.07333060914874076,-0.002615520827216096,0.0061436310212826355
1761509423886163700,10.371163818359374,-0.05402502017617225,0.008018567180843091,0.0068936182715231544
1761509423906320600,10.391320556640625,-0.03606675415933132,-0.004410747380647808,0.005175982432370074
1761509423926477600,10.4114775390625,-0.05761398457884788,-0.0017300843287725001,-0.00372465111289639
1761509423946634800,10.431634765625,-0.06479717408120632,-0.007493479294236749,0.009734549919026904
1761509423966792700,10.451792724609374,-0.03860942437946796,0.002369327513803728,0.0013057990686735138
1761509423986949600,10.47194970703125,-0.06389642584919929,-0.004905239199590869,0.004494434475572779
1761509424007106800,10.49210693359375,-0.05057926363646984,-0.008168761907028966,0.013361252516205421
1761509424027263700,10.512263671875,-0.06120528706908226,-0.011267353543452917,-0.0059275314520346
1761509424047421700,10.532421630859375,-0.06045709905028343,-0.0005076207285746932,0.0007866157664684579
1761509424067577900,10.552577880859374,-0.04279986180663108,-0.003372942465241067,-0.003283990106731653
1761509424087734800,10.57273486328125,-0.0516267268627882,-0.0040606598679209125,0.009712196523323655
1761509424107891700,10.5928916015625,-0.05881050088703632,-0.005332026944030076,0.0013837140099378302
1761509424128050000,10.6130498046875,-0.046989130190014834,0.0032081209920812397,0.0009590588570805266
1761509424148206600,10.63320654296875,-0.047585927039384836,0.0023282739842077718,0.00462965996148996
1761509424168363800,10.65336376953125,-0.03680617434978485,-0.011394596652314066,-0.009430319975176826
1761509424188522000,10.67352197265625,0.4023006977081299,-0.008140983417537063,-0.04426457776406314
1761509424208678700,10.6936787109375,0.0903349354416132,-0.03628968532816507,0.0032283486460684798
1761509424228835800,10.7138359375,-0.06931669733226299,0.059355279854801477,0.00978385525373742
1761509424248993000,10.733992919921874,-0.1646574782371521,0.007046507278294302,0.038942154332017524
1761509424269150700,10.754150634765624,-0.1889776805013418,0.0006754515761509538,0.040192487753252494
1761509424289308000,10.774307861328126,-0.013184475743770598,-0.0118085705809528,0.016592452989774756
1761509424309464600,10.794464599609375,-0.15459493390619755,-0.03252698092693463,0.02580086014284752
