time,seconds_elapsed,z,y,x
1761509413585800200,0.07080029296875,0.0003967764787375927,0.00182435754686594,0.0024870052002370358
1761509413605957000,0.09095703125,-0.00044137449003756046,-0.0001570219174027443,0.0016495343297719955
1761509413626114000,0.111114013671875,0.002680456032976508,0.0001366976648569107,-0.0017650607042014599
1761509413646272300,0.131272216796875,0.0003395630046725273,-0.0008898535743355751,-0.003433058736845851
1761509413666429000,0.151428955078125,-0.0011052716290578246,0.0010079145431518555,0.0005068548489362001
1761509413686586000,0.171586181640625,-0.0031203217804431915,-0.00014402717351913452,-0.0008139433339238167
1761509413706743000,0.191742919921875,-0.000883301836438477,-0.0011432049795985222,0.00018978933803737164
1761509413726901000,0.21190087890625,0.0007650943007320166,-0.0006147762760519981,0.00054558040574193
1761509413747058200,0.23205810546875,-0.0007549971342086792,0.000517670065164566,0.0016724460292607546
1761509413767215000,0.252215087890625,0.00001450302079319954,0.0012962091714143753,-0.0032331226393580437
1761509413787372000,0.2723720703125,0.001649192301556468,0.0005418909713625908,-0.000997436000034213
1761509413807530200,0.2925302734375,-0.00202511646784842,-0.0026455624029040337,-0.0011648039799183607
1761509413827687000,0.31268701171875,-0.0015500523149967194,-0.00005786772817373276,0.00040039350278675556
1761509413847844000,0.332843994140625,-0.0007197613595053554,0.0011256840080022812,0.00015344074927270412
1761509413868001000,0.3530009765625,0.00046242913231253624,-0.00021450314670801163,-0.001571632456034422
1761509413888159000,0.373158935546875,-0.0016974990721791983,0.0017607901245355606,0.0003044544719159603
1761509413908316200,0.393316162109375,-0.0005710573168471456,0.001995430327951908,-0.0008957667741924524
1761509413928473000,0.41347314453125,-0.0011334428563714027,-0.00002976972609758377,-0.00028891698457300663
1761509413948630000,0.433630126953125,-0.0007708423072472215,-0.002617304213345051,-0.0027465992607176304
1761509413968788200,0.453788330078125,0.00003839563578367233,-0.0011343173682689667,-0.0009508940856903791
1761509413988945000,0.47394482421875,0.00153489806689322,-0.000959416851401329,-0.0011060105171054602
1761509414009102000,0.49410205078125,0.00005749170668423176,0.00004383549094200134,-0.0009291877504438162
1761509414029260000,0.514260009765625,0.0008143398445099592,-0.0012888936325907707,0.001250390661880374
1761509414049417200,0.534417236328125,-0.00004302919842302799,0.0007799211889505386,-0.0006227483972907066
1761509414069574400,0.554574462890625,-0.0015285452827811241,0.0008508730679750443,-0.0017433555331081152
1761509414089731300,0.5747314453125,0.0008529718033969402,0.0011420613154768944,0.0024862848222255707
1761509414109889300,0.59488916015625,-0.0009746422292664647,0.0005292007699608803,0.0005218768492341042
1761509414130046500,0.61504638671875,-0.0014016014756634831,0.0007506273686885834,0.0008299474138766527
1761509414150203400,0.635203369140625,0.0002723748330026865,0.0011509070172905922,0.0002705950755625963
1761509414170360300,0.6553603515625,-0.0004207694437354803,-0.0008782157674431801,-0.0019930172711610794
1761509414190518300,0.675518310546875,-0.0008658141596242785,0.000834205187857151,-0.0006216366309672594
1761509414210675200,0.69567529296875,-0.0015201447531580925,0.002215930260717869,-0.0004797619767487049
1761509414230832400,0.715832275390625,-0.00006896187551319599,0.0002685217186808586,0.00009143119677901268
1761509414250989300,0.7359892578125,0.00001779966987669468,0.0008890042081475258,0.00031157885678112507
1761509414271147300,0.756147216796875,0.0008856654167175293,-0.0011103590950369835,0.0003847035113722086
1761509414291304400,0.776304443359375,-0.000750482315197587,0.0013070767745375633,0.0011435674969106913
1761509414311461400,0.79646142578125,0.0020970606710761786,-0.0021470291540026665,-0.0009650501888245344
1761509414331618300,0.816618408203125,0.00024402467533946037,0.002781863324344158,-0.0011017920915037394
1761509414351776300,0.8367763671875,0.001050011720508337,-0.0017626387998461723,-0.0008008491713553667
1761509414371933400,0.856933349609375,-0.0024252627044916153,0.0010950211435556412,0.0005236752331256866
1761509414392090400,0.87709033203125,0.0004485424142330885,-0.0016844747588038445,-0.0006063496693968773
1761509414412247300,0.897247314453125,0.0012638024054467678,0.00202818401157856,0.000014811521396040916
1761509414432405200,0.9174052734375,0.0023199119605123997,-0.005070715211331844,-0.0009893784299492836
1761509414452562400,0.9375625,0.00023469049483537674,-0.0011563990265130997,0.0021401704289019108
1761509414472719400,0.95771923828125,-0.0020409009885042906,-0.001493731513619423,-0.0010397478472441435
1761509414492877300,0.977877197265625,0.00013235793448984623,0.0008165296167135239,-0.00046305754221975803
1761509414513034200,0.9980341796875,-0.001225064042955637,-0.00046404357999563217,0.000023320550099015236
1761509414533191400,1.01819140625,-0.0016651579644531012,0.003067484125494957,0.0001122115645557642
1761509414553348400,1.038348388671875,0.0018974721897393465,-0.0010153697803616524,-0.0016056033782660961
1761509414573506300,1.05850634765625,0.0023447514977306128,-0.0003924975171685219,0.0016345982439815998
1761509414593663500,1.07866357421875,-0.002156913047656417,0.0015865527093410492,0.002665219595655799
1761509414613820400,1.0988203125,-0.0008761661592870951,0.001637158915400505,-0.000267671886831522
1761509414633977300,1.118977294921875,-0.0023683076724410057,-0.0028266413137316704,-0.004118152894079685
1761509414654135600,1.139135498046875,-0.00027135293930768967,0.0009013013914227486,0.0001653942745178938
1761509414674292200,1.159292236328125,-0.0004193612840026617,-0.0013815956190228462,0.0004963581450283527
1761509414694449400,1.179449462890625,-0.0015870712231844664,0.00028082355856895447,0.000008983537554740906
1761509414714606300,1.1996064453125,0.00017177523113787174,0.0030874870717525482,0.0027724071405828
1761509414734764300,1.219764404296875,-0.0006863495800644159,0.0021494748070836067,0.0016600098460912704
1761509414754921500,1.23992138671875,-0.002535132924094796,-0.0017730249091982841,0.0009221797809004784
1761509414775078400,1.260078369140625,-0.002361656865105033,0.001196593977510929,0.0009556531440466642
1761509414795235300,1.2802353515625,-0.0016235026996582747,0.003057180903851986,-0.003473800141364336
1761509414815393500,1.3003935546875,-0.00011769775301218033,0.0020035812631249428,0.0010143008548766375
1761509414835550200,1.32055029296875,0.0016745300963521004,0.0024064313620328903,0.0013187872245907784
1761509414855707400,1.340707275390625,0.0009514540433883667,0.0038814665749669075,-0.0010383578483015299
1761509414875865300,1.360865234375,0.0006545251235365868,0.004209837876260281,0.0023504735436290503
1761509414896022300,1.381022216796875,-0.0027305311523377895,0.0026627788320183754,0.0018877570983022451
1761509414916179500,1.401179443359375,-0.0014888085424900055,0.0036787735298275948,0.0007891606073826551
1761509414936336400,1.42133642578125,-0.0013604689156636596,-0.0019534341990947723,-0.002611084608361125
1761509414956494300,1.441494384765625,0.000762891722843051,-0.0026700198650360107,0.0014191600494086742
1761509414976651500,1.461651611328125,0.002422620542347431,0.002143600955605507,0.002583494409918785
1761509414996808200,1.48180810546875,0.00007508811540901661,0.001782841980457306,-0.0011785016395151615
1761509415016965400,1.50196533203125,0.0002876962535083294,0.0026368899270892143,-0.0018065990880131721
1761509415037123300,1.522123291015625,0.0000741786789149046,0.0013127513229846954,0.0009241015650331974
1761509415057276400,1.5422763671875,-0.000041801948100328445,-0.0004256078973412514,0.0025744165759533644
1761509415077433600,1.56243359375,-0.0015673970337957144,0.0010678954422473907,0.0024333177134394646
1761509415097590500,1.582590576171875,-0.0001019949559122324,0.0007899301126599312,0.0027122797910124063
1761509415117748500,1.60274853515625,-0.0007113117026165128,-0.00033667217940092087,-0.00009798235259950161
1761509415137905700,1.62290576171875,-0.0018866725731641054,-0.0007280083373188972,-0.0003926206845790148
1761509415158062300,1.643062255859375,0.0020837457850575447,0.001776580698788166,0.0022505009546875954
1761509415178219500,1.663219482421875,-0.0003523300401866436,-0.0019052373245358467,0.0004436939489096403
1761509415198377700,1.683377685546875,0.0001549010630697012,-0.0007802136242389679,0.00014555733650922775
1761509415218534400,1.703534423828125,0.000153818866237998,-0.0016181319952011108,-0.0019499813206493855
1761509415238691600,1.723691650390625,0.00037543848156929016,0.0008101137354969978,0.00010023568756878376
1761509415258849500,1.743849609375,0.001314397668465972,-0.0027844486758112907,0.001214747317135334
1761509415279006500,1.76400634765625,-0.00021310499869287014,-0.0010111453011631966,-0.0001796495635062456
1761509415299163600,1.78416357421875,-0.0033838236704468727,-0.0010255957022309303,-0.0016303560696542263
1761509415319320300,1.8043203125,-0.000027129193767905235,0.0016229571774601936,0.000053510069847106934
1761509415339478500,1.824478515625,0.0006256799679249525,0.00008386187255382538,-0.00019684294238686562
1761509415359635700,1.8446357421875,0.001071588834747672,0.0006716931238770485,0.0014676876598969102
1761509415379792400,1.86479248046875,0.002863906556740403,0.0018359441310167313,0.0005471545737236738
1761509415399949600,1.884949462890625,0.002345038577914238,-0.0008669979870319366,0.0006534701678901911
1761509415420107500,1.905107421875,-0.000382991973310709,-0.00039544887840747833,-0.0008706136140972376
1761509415440264400,1.925264404296875,-0.0006733938353136182,0.0009971922263503075,-0.0021252341102808714
1761509415460421600,1.945421630859375,-0.002597093116492033,0.0016567474231123924,-0.000005970243364572525
1761509415480578600,1.96557861328125,0.0004173701163381338,-0.0017905998975038528,0.00038717174902558327
1761509415500736500,1.985736572265625,-0.00013818824663758278,0.00017076265066862106,-0.0003857880365103483
1761509415520893700,2.005893798828125,0.0012066054623574018,-0.0012573087587952614,-0.001242323312908411
1761509415541050600,2.026050537109375,0.00015677977353334427,-0.0030804239213466644,-0.0014196077827364206
1761509415561208600,2.04620849609375,-0.0012982102343812585,-0.0006301645189523697,0.0013070341665297747
1761509415581365500,2.066365478515625,-0.0002686758525669575,-0.00041637662798166275,-0.0010931426659226418
1761509415601522400,2.0865224609375,-0.000046868808567523956,0.00012417975813150406,0.0021902876906096935
1761509415621679600,2.1066796875,-0.002514792140573263,0.00013802852481603622,0.0018591958796605468
1761509415641837600,2.126837646484375,-0.0006032289238646626,-0.0011987239122390747,-0.00047120568342506886
1761509415661994500,2.146994384765625,0.0004734180402010679,-0.002968447282910347,-0.0007400559261441231
1761509415682151700,2.167151611328125,0.00121117546223104,0.00023325718939304352,-0.0016485333908349276
1761509415702308600,2.18730859375,0.00009829876944422722,0.0015292661264538765,0.0017000770894810557
1761509415722466600,2.207466552734375,0.0010037519969046116,-0.0005106590688228607,0.0014233902329578996
1761509415742623500,2.22762353515625,0.001230345806106925,0.002168005332350731,0.0016192345647141337
1761509415762780700,2.24778076171875,-0.0005853848997503519,-0.00027614738792181015,-0.0004052931908518076
1761509415782938400,2.2679384765625,0.00034782104194164276,-0.0019395388662815094,-0.00037467386573553085
1761509415803095600,2.288095458984375,0.0012327837757766247,0.0006847474724054337,0.0012933975085616112
1761509415823252500,2.30825244140625,-0.0024901069700717926,0.00008870940655469894,0.00032041035592556
1761509415843409700,2.32840966796875,0.0011651981621980667,-0.0008233170956373215,0.001961981877684593
1761509415863567600,2.348567626953125,-0.000046487897634506226,-0.0010018330067396164,-0.004028253722935915
1761509415883724500,2.368724609375,-0.0006407641340047121,0.0012967521324753761,-0.0003581100609153509
1761509415903881500,2.388881591796875,0.0005460879765450954,-0.0007327469065785408,0.00011777388863265514
1761509415924038700,2.40903857421875,-0.0004905984969809651,-0.0018222983926534653,0.0017082104459404945
1761509415944196400,2.4291962890625,0.0013989831786602736,-0.0009797047823667526,0.0018804334104061127
1761509415964353500,2.449353515625,-0.0013053198345005512,-0.0016931286081671715,-0.0020215557888150215
1761509415984510700,2.4695107421875,0.0003154084552079439,-0.003837697207927704,-0.0002134570386260748
1761509416004668400,2.48966845703125,-0.0001953647006303072,0.0003913920372724533,0.0004694052040576935
1761509416024825600,2.50982568359375,-0.0004507945850491524,-0.0006155427545309067,0.0002175518311560154
1761509416044986400,2.529986328125,0.0005831008311361074,0.0005774879828095436,0.0011428254656493664
1761509416065143000,2.55014306640625,-0.0002846841234713793,0.0002599162980914116,0.0007766105700284243
1761509416085301200,2.57030126953125,-0.0004980064695701003,0.000432625412940979,-0.0002688358072191477
1761509416105458200,2.590458251953125,0.003274548565968871,-0.000707489438354969,0.0004894090816378593
1761509416125615000,2.610614990234375,-0.0025564495008438826,0.0012424197047948837,-0.0012536428403109312
1761509416145772300,2.630772216796875,-0.00010272674262523651,0.00027246586978435516,0.002780764829367399
1761509416165930200,2.65093017578125,-0.0003683080431073904,0.0029330290853977203,0.0014355641324073076
1761509416186087200,2.671087158203125,0.0023132208734750748,0.0017695659771561623,0.0004720771685242653
1761509416206244400,2.691244384765625,0.0010050402488559484,-0.00046855583786964417,-0.0013069151900708675
1761509416226402300,2.71140234375,-0.0005531661445274949,0.0001340201124548912,0.0016133285826072097
1761509416246559200,2.731559326171875,-0.0006044689798727632,-0.0016810186207294464,-0.0013444935902953148
1761509416266716200,2.751716064453125,0.0002460984978824854,0.003237287513911724,-0.0009631572756916285
1761509416286873000,2.771873046875,0.0003905724734067917,-0.0015851901844143867,0.001572796725668013
1761509416307031000,2.792031005859375,-0.0017217478016391397,0.00043812859803438187,0.0009330329485237598
1761509416327188200,2.812188232421875,-0.0005046192090958357,0.001360294409096241,0.001247246516868472
1761509416347345200,2.83234521484375,0.002032193588092923,-0.0007990449666976929,-0.0006911286618560553
1761509416367503000,2.852503173828125,-0.0025142747908830643,-0.002067939378321171,0.0012438374105840921
1761509416387660300,2.872660400390625,0.0009070395026355982,0.0007695676758885384,0.0012189748231321573
1761509416407817200,2.892817138671875,-0.0006572939455509186,0.0002898499369621277,0.0007218548562377691
1761509416427974100,2.91297412109375,0.000022796448320150375,0.0013759545981884003,0.000628042034804821
1761509416448132400,2.93313232421875,-0.000617762329056859,-0.0009032534435391426,-0.0029037930071353912
1761509416468289000,2.9532890625,0.0006264171097427607,0.0033717649057507515,0.0014673488913103938
1761509416488446200,2.9734462890625,0.0008854139596223831,-0.0017758011817932129,-0.00033372524194419384
1761509416508603100,2.99360302734375,-0.002283997368067503,0.0005938513204455376,-0.00031255465000867844
1761509416528761000,3.013760986328125,-0.0016148965805768967,-0.0028090719133615494,-0.0013419999741017818
1761509416548918300,3.033918212890625,0.0012989677488803864,-0.00018558930605649948,-0.0012764439452439547
1761509416569075200,3.0540751953125,-0.0010555825429037213,-0.0010707173496484756,0.0009714288171380758
1761509416589233200,3.074233154296875,-0.000045565422624349594,-0.0022494271397590637,-0.00007251161150634289
1761509416609390300,3.094390380859375,0.00035532028414309025,-0.0016730166971683502,-0.0025481488555669785
1761509416629547000,3.114547119140625,0.0005934042856097221,-0.001169382594525814,0.00025787437334656715
1761509416649704200,3.1347041015625,-0.0010149184381589293,0.0019183224067091942,0.002966826083138585
1761509416669862100,3.154862060546875,-0.0012290789745748043,-0.00414655078202486,0.0003512762486934662
1761509416690019000,3.17501904296875,0.0023880470544099808,0.0006453152745962143,0.0009057566057890654
1761509416710176300,3.19517626953125,-0.001451942720450461,-0.0017912797629833221,-0.000004836590960621834
1761509416730333200,3.215333251953125,-0.0038985107094049454,0.0007729288190603256,0.00017818179912865162
1761509416750491100,3.2354912109375,0.0023670815862715244,-0.0007768841460347176,-0.0011563003063201904
1761509416770648300,3.2556484375,0.0031423333566635847,-0.0028836922720074654,-0.0007350947707891464
1761509416790805000,3.275804931640625,0.0011888747103512287,-0.00022355467081069946,0.0013375175185501575
1761509416810963200,3.295963134765625,0.002208556281402707,-0.0005743047222495079,-0.0022794038522988558
1761509416831120100,3.3161201171875,0.0010986062698066235,0.002008921466767788,-0.00024297810159623623
1761509416851277000,3.336277099609375,0.0001529548317193985,0.0023515094071626663,-0.00035120570100843906
1761509416871434200,3.356434326171875,0.0008555434178560972,0.0006107445806264877,0.0008569038473069668
1761509416891592200,3.37659228515625,-0.000226716510951519,-0.0030161552131175995,-0.000521800946444273
1761509416911749000,3.3967490234375,0.00109007372520864,0.00009950809180736542,0.0006153744179755449
1761509416931906300,3.41690625,-0.0003296679351478815,-0.0008411463350057602,0.0015504813054576516
1761509416952064300,3.437064208984375,-0.0038105305284261703,0.0003896662965416908,0.0003061520401388407
1761509416972221200,3.45722119140625,-0.0005638244329020381,0.0011233119294047356,0.00005210447125136852
1761509416992378000,3.477378173828125,-0.0017921233084052801,0.0003348458558320999,0.0009062557946890593
1761509417012535000,3.49753515625,-0.0004932646406814456,0.003054467961192131,0.0007408992387354374
1761509417032693200,3.517693359375,0.0013284904416650534,-0.00028919149190187454,0.0016300816787406802
1761509417052847000,3.53784716796875,-0.002723842393606901,-0.0017363373190164566,0.0018051788210868835
1761509417073004000,3.558004150390625,0.0014814210589975119,0.0010078540071845055,0.0014334694715216756
1761509417093161200,3.5781611328125,-0.002159461844712496,0.0013630939647555351,-0.0017804219387471676
1761509417113319200,3.598319091796875,0.0008132718503475189,0.00040869228541851044,-0.0020655361004173756
1761509417133476000,3.61847607421875,-0.0005887598963454366,0.00289106834679842,-0.00009941263124346733
1761509417153633000,3.638633056640625,-0.0006282905815169215,0.0014513293281197548,0.00011542835272848606
1761509417173791200,3.658791259765625,0.001992245437577367,0.0009458819404244423,-0.0004578414373099804
1761509417193948000,3.678947998046875,0.000427227932959795,-0.000018892809748649597,-0.0007817069999873638
1761509417214105000,3.69910498046875,0.002158088842406869,-0.00038094259798526764,-0.0020777995232492685
1761509417234262000,3.719261962890625,-0.0010926261311396956,0.0013597691431641579,-0.0017459751106798649
1761509417254420000,3.739419921875,0.00009122909978032112,0.0006151497364044189,-0.0014322553761303425
1761509417274577200,3.7595771484375,-0.0022626202553510666,0.0012070350348949432,0.0011225687339901924
1761509417294734000,3.779734130859375,0.0027423964347690344,0.003403034992516041,-0.002437748247757554
1761509417314892000,3.79989208984375,0.0009567327797412872,0.0022273166105151176,-0.001107810065150261
1761509417335049200,3.82004931640625,-0.0015846611931920052,0.001950039528310299,-0.0005208395887166262
1761509417355206000,3.840205810546875,0.0012235958129167557,0.0003672409802675247,-0.0014772724825888872
1761509417375363000,3.860363037109375,0.0007733467500656843,0.0004826420918107033,-0.000594776589423418
1761509417395521300,3.880521240234375,0.00008481740951538086,-0.0002686120569705963,-0.00006433017551898956
1761509417415678000,3.900677978515625,0.0011901096440851688,-0.0005351174622774124,-0.0019517801702022552
1761509417435835100,3.920835205078125,-0.0006819990230724216,-0.001140747219324112,-0.0021262553054839373
1761509417455993000,3.9409931640625,-0.0017230745870620012,0.001229732297360897,-0.0008011276368051767
1761509417476150000,3.96114990234375,0.002018999308347702,-0.0008864989504218102,-0.0018082305323332548
1761509417496307200,3.98130712890625,0.00021301116794347763,-0.001174692064523697,-0.0006568422541022301
1761509417516463000,4.001463134765625,-0.0021053312812000513,-0.00031226594001054764,0.0005558363627642393
1761509417536620000,4.0216201171875,-0.00034316442906856537,0.0019635017961263657,-0.0012276391498744488
1761509417556777000,4.04177685546875,-0.0009705914417281747,0.0007837237790226936,-0.0007600556127727032
1761509417576935200,4.06193505859375,-0.00022967811673879623,0.0035950830206274986,-0.001840390032157302
1761509417597092000,4.082092041015625,0.00013905204832553864,0.00007237773388624191,-0.0014338816981762648
1761509417617249000,4.1022490234375,0.002475014189258218,0.00009870808571577072,-0.0005438295193016529
1761509417637406200,4.12240625,-0.0007358918664976954,0.00023585651069879532,0.0004931120201945305
1761509417657564200,4.142564208984375,-0.0002123562153428793,0.0010710228234529495,-0.00008555315434932709
1761509417677721000,4.16272119140625,0.0010283333249390125,-0.0009344778954982758,0.00009461701847612858
1761509417697878000,4.1828779296875,-0.00045803841203451157,-0.0002947859466075897,-0.002881050342693925
1761509417718036200,4.2030361328125,0.0004240053240209818,0.000027348287403583527,0.000997983617708087
1761509417738193200,4.223193115234375,-0.000515101826749742,0.0000119796022772789,0.0018707073759287596
1761509417758350000,4.24335009765625,0.0015559280291199684,-0.00024270638823509216,-0.0011572639923542738
1761509417778507000,4.263507080078125,-0.00010329089127480984,0.0002585100010037422,0.00040604593232274055
1761509417798665000,4.2836650390625,-0.0008281129412353039,0.0029180245473980904,-0.0014327939134091139
1761509417818822100,4.303822265625,-0.0027566570788621902,-0.0001243632286787033,-0.0005449396558105946
1761509417838979000,4.32397900390625,0.0010024283546954393,0.0009298836812376976,-0.00130055146291852
1761509417859136000,4.344135986328125,-0.0015119705349206924,-0.001004631631076336,0.00009108311496675014
1761509417879294200,4.364294189453125,0.004471992142498493,0.0005535949021577835,-0.00008880090899765491
1761509417899451100,4.384451171875,-0.0002479397226125002,-0.0025673378258943558,-0.0013947240076959133
1761509417919608000,4.404608154296875,0.002479397226125002,0.0003498261794447899,-0.0000770248007029295
1761509417939766300,4.424766357421875,-0.0015493647661060095,-0.002397080883383751,-0.0010747388005256653
1761509417959924000,4.444924072265625,-0.0008105433080345392,0.0016495781019330025,0.0011890879832208157
1761509417980081200,4.4650810546875,-0.0011933037312701344,-0.001910974271595478,-0.0011712720151990652
1761509418000237800,4.48523779296875,0.001553650014102459,-0.0006925761699676514,0.0016799777513369918
1761509418020396000,4.50539599609375,-0.00015074037946760654,-0.0003786366432905197,0.0012257567141205072
1761509418040553200,4.52555322265625,0.0009071086533367634,-0.0010748161002993584,-0.0012341942638158798
1761509418060709600,4.545709716796875,0.001573219196870923,0.0008954992517828941,0.0012815899681299925
1761509418080866600,4.565866455078125,0.0022710387129336596,0.0016957605257630348,0.0013715482782572508
1761509418101024500,4.5860244140625,-0.0011346883838996291,0.0028676073998212814,0.0012938899453729391
1761509418121181700,4.606181640625,0.0009771091863512993,-0.0010418491438031197,-0.0002379133366048336
1761509418141338600,4.626338623046875,0.0013955810572952032,-0.0007152007892727852,-0.0018856883980333805
1761509418161495800,4.646495849609375,-0.002035414567217231,0.002167605794966221,0.0014392200391739607
1761509418181653800,4.66665380859375,-0.0029493412002921104,0.00002029258757829666,-0.002251360798254609
1761509418201810700,4.686810791015625,-0.0009008904453366995,0.00020818691700696945,-0.0031261479016393423
1761509418221967600,4.706967529296875,0.0024218643084168434,0.0005435654893517494,0.001057666726410389
1761509418242125800,4.727125732421875,-0.0011660290183499455,0.000546860508620739,-0.0001629665493965149
1761509418262282500,4.747282470703125,-0.0009660916402935982,0.0007817624136805534,0.0006484747864305973
1761509418282439700,4.767439697265625,-0.002838259330019355,-0.0001300843432545662,0.00008741556666791439
1761509418302596600,4.7875966796875,-0.000053151510655879974,0.000708920881152153,0.002840353175997734
1761509418322754600,4.807754638671875,0.0031775818206369877,-0.0017632879316806793,0.0005105745512992144
1761509418342911700,4.827911865234375,0.0001725577749311924,0.00034172646701335907,-0.0005852750036865473
1761509418363068700,4.848068603515625,-0.00041781552135944366,0.0007824413478374481,0.0007005874067544937
1761509418383226600,4.8682265625,-0.0008931310148909688,0.0008190283551812172,-0.0010996751952916384
1761509418403383800,4.8883837890625,0.0006537886802107096,-0.0015823347494006157,0.0003764284774661064
1761509418423540500,4.90854052734375,0.001237471355125308,-0.0022368524223566055,0.0017063099658116698
1761509418443697700,4.92869775390625,-0.0024423704016953707,0.0015063006430864334,0.0005309779662638903
1761509418463855600,4.948855712890625,-0.0006182009819895029,-0.0027776379138231277,-0.0009450525976717472
1761509418484012500,4.969012451171875,-0.002563148969784379,0.0019048620015382767,-0.0016353356186300516
1761509418504169700,4.989169677734375,0.0011712161358445883,-0.00007068831473588943,0.0003545701038092375
1761509418524327700,5.00932763671875,0.000054077478125691414,-0.0007560048252344131,0.0008055530488491058
1761509418544484600,5.029484619140625,0.001087268814444542,-0.0004394231364130974,0.0011171023361384869
1761509418564641800,5.049641845703125,0.0017057808581739664,0.0007765591144561768,0.0005418672226369381
1761509418584798500,5.069798583984375,-0.0004533632891252637,0.0008576726540923119,0.0005142060108482838
1761509418604956700,5.089956787109375,-0.00009531853720545769,-0.0008268486708402634,-0.000057028140872716904
1761509418625113600,5.110113525390625,0.0021114039700478315,-0.000347762368619442,0.0028725536540150642
1761509418645270500,5.1302705078125,-0.00007516331970691681,-0.0007087644189596176,0.0028946506790816784
1761509418665428700,5.1504287109375,0.0008096038363873959,-0.001565449871122837,0.0006868424825370312
1761509418685585700,5.170585693359375,0.001349892932921648,0.0006397832185029984,0.0017315364675596356
1761509418705742600,5.19074267578125,-0.0004865389782935381,0.00004508625715970993,-0.0013803867623209953
1761509418725899800,5.210899658203125,-0.003926864359527826,-0.0025336919352412224,0.0037144357338547707
1761509418746057700,5.2310576171875,-0.002898287959396839,0.0005584368482232094,0.003638701979070902
1761509418766214700,5.251214599609375,-0.001058934605680406,-0.001802622340619564,0.0013082516379654408
1761509418786371600,5.27137158203125,0.0009942082688212395,-0.0010245777666568756,-0.0005729736294597387
1761509418806528500,5.291528564453125,0.00026166695170104504,-0.0008304798975586891,0.0003794387448579073
1761509418826686700,5.311686767578125,-0.0027437349781394005,-0.00045545026659965515,-0.001168618444353342
1761509418846843600,5.33184375,-0.001269137137569487,0.0013650599867105484,-0.00165214529260993
1761509418867000600,5.35200048828125,-0.001817956566810608,0.0005624359473586082,0.000961018493399024
1761509418887158500,5.372158447265625,-0.000279085710644722,-0.0028353100642561913,0.00035248068161308765
1761509418907315700,5.392315673828125,-0.0005395334446802735,0.00032463110983371735,-0.0003497872967272997
1761509418927472600,5.41247265625,-0.000029065413400530815,-0.0005984874442219734,0.0028879372403025627
1761509418947629600,5.432629638671875,0.000640365993604064,-0.0006955787539482117,-0.00009413668885827065
1761509418967787800,5.452787841796875,0.0020366718526929617,0.0007109474390745163,-0.0010227912571281195
1761509418987944700,5.47294482421875,-0.0010201248805969954,-0.0005724942311644554,-0.00224858894944191
1761509419008101600,5.4931015625,-0.002599479863420129,-0.002094860188663006,-0.0005432371981441975
1761509419028259800,5.513259765625,-0.0027015111409127712,0.0017218533903360367,0.00023496965877711773
1761509419048416800,5.533416748046875,-0.00017679808661341667,-0.00018378905951976776,-0.0001661684364080429
1761509419068573700,5.55357373046875,-0.0005789463175460696,0.0013860268518328667,0.0012221839278936386
1761509419088731000,5.57373095703125,0.0011519528925418854,-0.0001770341768860817,0.0006865093018859625
1761509419108888800,5.593888916015625,-0.00037434883415699005,0.001104426570236683,-0.00010793190449476242
1761509419129045800,5.614045654296875,-0.00006531644612550735,-0.0020336927846074104,0.0022114620078355074
1761509419149203000,5.634202880859375,-0.0006167505634948611,-0.002477874979376793,-0.0024538952857255936
1761509419169361000,5.65436083984375,-0.0006181774660944939,0.0015821987763047218,0.00003497442230582237
1761509419189517800,5.674517822265625,-0.00005987565964460373,0.00038040708750486374,0.0003996493760496378
1761509419209674800,5.6946748046875,0.0021435264497995377,0.003361903131008148,0.0004388557281345129
1761509419229831700,5.714831787109375,-0.000235777348279953,0.0010271258652210236,0.002085324376821518
1761509419249989600,5.73498974609375,-0.0017530687619000673,-0.0001079309731721878,0.0019053313881158829
1761509419270146800,5.755146728515625,-0.0016074287705123425,0.0012995526194572449,0.004242428578436375
1761509419290303700,5.7753037109375,-0.0009204220259562135,0.0031295595690608025,-0.002151795197278261
1761509419310461700,5.795461669921875,-0.00034253415651619434,0.0020912615582346916,0.0013622373808175325
1761509419330619000,5.815618896484375,-0.001053436892107129,0.0007907580584287643,-0.0008186751510947943
1761509419350775800,5.83577587890625,0.001731222728267312,0.0003411564975976944,0.0018503319006413221
1761509419370932700,5.8559326171875,0.0018110955134034157,0.00004764460027217865,-0.0012267204001545906
1761509419391091000,5.876091064453125,0.0025718025863170624,-0.002562226727604866,-0.0005864687263965607
1761509419411247600,5.89624755859375,0.00016689789481461048,-0.0018357541412115097,-0.001250081229954958
1761509419431404800,5.91640478515625,-0.001469121198169887,0.0007308823987841606,0.00041646789759397507
1761509419451561700,5.936561767578125,-0.0006513544358313084,-0.0003291154280304909,0.001881096512079239
1761509419471719700,5.9567197265625,0.0011412396561354399,-0.000620545819401741,-0.0019560023210942745
1761509419491876900,5.976876953125,0.0017865952104330063,-0.002093247137963772,0.0008660764433443546
1761509419512033800,5.99703369140625,0.0000995313748717308,-0.00209053885191679,-0.0009640883654356003
1761509419532191700,6.017191650390625,-0.0005164266331121325,-0.0014090202748775482,-0.0014827970881015062
1761509419552349000,6.037348876953125,-0.0016896346351131797,-0.0010120170190930367,0.0003824867308139801
1761509419572505600,6.057505615234375,-0.0008755092276260257,-0.0007213400676846504,-0.001557257492095232
1761509419592662800,6.077662841796875,-0.0007852748967707157,-0.0011616991832852364,-0.0026642100419849157
1761509419612820700,6.09782080078125,-0.000203240429982543,-0.0031569907441735268,0.0002759478520601988
1761509419632977700,6.117977783203125,0.0012924375478178263,0.0008202455937862396,0.0007656416855752468
1761509419653134800,6.138134765625,0.0017531970515847206,0.00039607472717761993,-0.0013779881410300732
1761509419673292800,6.158292724609375,-0.0024637416936457157,-0.002045588567852974,-0.00042911944910883904
1761509419693449700,6.17844970703125,-0.00024166773073375225,-0.001001075841486454,0.0015816478990018368
1761509419713607000,6.19860693359375,0.00009618513286113739,-0.0007507801055908203,-0.0018945485353469849
1761509419733763600,6.218763671875,0.00037458143197000027,-0.0023910971358418465,-0.0006735348142683506
1761509419753921800,6.238921875,0.0004054734017699957,0.0002555195242166519,-0.0011359748896211386
1761509419774078700,6.25907861328125,-0.0008094070944935083,0.0001491038128733635,-0.0008570139762014151
1761509419794235600,6.279235595703125,-0.0015821726992726326,0.0026554344221949577,-0.0021076039411127567
1761509419814393900,6.299393798828125,0.0009261332452297211,0.00029634125530719757,-0.00267469952814281
1761509419834550800,6.31955078125,0.0004125435370951891,-0.0017971424385905266,0.002273742575198412
1761509419854707700,6.339707763671875,0.000022080959752202034,0.00039528030902147293,0.000724246958270669
1761509419874865000,6.359864990234375,0.0008604102768003941,-0.0017783921211957932,-0.001036832109093666
1761509419895022800,6.38002294921875,0.0016652655322104692,0.000026639550924301147,-0.0035680243745446205
1761509419915179800,6.4001796875,0.0011228048242628574,-0.0014526061713695526,-0.0013077014591544867
1761509419935336700,6.420336669921875,-0.0008466849103569984,-0.0007989760488271713,-0.0006899808067828417
1761509419955495000,6.440494873046875,0.0033713129814714193,0.0014668181538581848,0.0005168193019926548
1761509419975651800,6.46065185546875,0.0011155784595757723,0.0022523868829011917,-0.00037787738256156445
1761509419995808800,6.480808837890625,-0.001706918003037572,0.0008961185812950134,-0.0008813489694148302
1761509420015965700,6.500965576171875,0.0014281233306974173,0.0013830484822392464,0.0015778944361954927
1761509420036123600,6.52112353515625,0.0000981893390417099,-0.0007682014256715775,0.0007957990746945143
1761509420056281000,6.541281005859375,0.003640852402895689,-0.00009036902338266373,-0.0006710551679134369
1761509420076438000,6.56143798828125,-0.002039570827037096,-0.0001630866900086403,-0.00021617580205202103
1761509420096595000,6.581594970703125,-0.0006069883238524199,0.0017585130408406258,0.00003526173532009125
1761509420116753000,6.6017529296875,-0.0009144998621195555,0.000878533348441124,0.0027078050188720226
1761509420136910000,6.62191015625,-0.001599282375536859,-0.0026778569445014,0.0003721180837601423
1761509420157067000,6.64206689453125,-0.0021044714376330376,0.0008741412311792374,0.00019780080765485764
1761509420177225000,6.662224853515625,0.0007143274415284395,0.00011151842772960663,0.0035262745805084705
1761509420197382000,6.6823818359375,0.001021685777232051,0.0012238360941410065,-0.0006560101173818111
1761509420217539000,6.7025390625,-0.0047111473977565765,-0.002229921519756317,0.0010665482841432095
1761509420237696000,6.722696044921875,-0.0013996510533615947,0.0014453046023845673,0.0007041259668767452
1761509420257854000,6.74285400390625,-0.0020346716046333313,-0.0003877999261021614,-0.0007340679876506329
1761509420278011100,6.76301123046875,-0.001290024840272963,0.000979393720626831,0.0010607715230435133
1761509420298168000,6.78316796875,0.0013235018122941256,0.0004054903984069824,-0.0019266244489699602
1761509420318326000,6.803325927734375,0.00043437443673610687,0.00041475333273410797,-0.0010070439893752337
1761509420338483000,6.82348291015625,-0.0021782033145427704,-0.0008125500753521919,-0.0022318465635180473
1761509420358639900,6.843639892578125,-0.0001266102772206068,-0.0005377708002924919,0.00169388169888407
1761509420378797000,6.863797119140625,0.0004414762370288372,0.0006761709228157997,0.00023665977641940117
1761509420398954800,6.883954833984375,0.0009449943900108337,-0.00022275373339653015,-0.00005283555947244167
1761509420419112000,6.90411181640625,-0.00025119446218013763,0.0000956505537033081,0.005809516180306673
1761509420439269000,6.92426904296875,-0.0008807925041764975,0.0015288004651665688,-0.0004442804493010044
1761509420459426800,6.9444267578125,0.0009818936232477427,0.000815381295979023,0.00017697992734611034
1761509420479584000,6.964583984375,-0.000854169949889183,0.0010866392403841019,-0.00019854167476296425
1761509420499741200,6.9847412109375,-0.0023319912143051624,0.0014988025650382042,-0.0011789149139076471
1761509420519897900,7.00489794921875,-0.0024782896507531404,0.0001611132174730301,0.004574229940772057
1761509420540056000,7.02505615234375,0.0013640534598380327,-0.0014731567353010178,0.0009626669343560934
1761509420560213000,7.045212890625,-0.0002894722856581211,-0.002250528894364834,-0.0005989242345094681
1761509420580370000,7.065369873046875,-0.0009013321250677109,-0.0009874869138002396,-0.00014279759488999844
1761509420600527000,7.085527099609375,0.004143880680203438,0.0020582061260938644,0.0005910340696573257
1761509420620684800,7.105684814453125,-0.0007038578623905778,0.0020041456446051598,-0.0003775137010961771
1761509420640842000,7.125842041015625,-0.002545920666307211,0.0018780156970024109,-0.0006663233507424593
1761509420660999200,7.145999267578125,-0.0015285348054021597,-0.0007416103035211563,0.00054169911891222
1761509420681156900,7.166156982421875,-0.000873602693900466,-0.001017608679831028,0.0016445195069536567
1761509420701314000,7.18631396484375,-0.0007865995867177844,0.0015693427994847298,0.00023548491299152374
1761509420721471000,7.206470947265625,0.002086660824716091,0.002118266187608242,0.001456955447793007
1761509420741628000,7.2266279296875,-0.0003701085224747658,-0.001773947849869728,-0.0023088855668902397
1761509420761786000,7.2467861328125,-0.0022711483761668205,0.0016498686745762825,-0.00033476552926003933
1761509420781943000,7.266943115234375,-0.0007889044936746359,0.00009575020521879196,0.0006977126467972994
1761509420802100000,7.287099853515625,-0.000378840952180326,0.0017822468653321266,0.00013518170453608036
1761509420822258000,7.3072578125,0.00037247431464493275,-0.0006139203906059265,0.001367607619613409
1761509420842414800,7.327414794921875,-0.0012518877629190683,0.0029943203553557396,0.0012036480475217104
1761509420862572000,7.347572021484375,0.002495483262464404,0.0012186001986265182,-0.0014802005607634783
1761509420882729000,7.36772900390625,0.003693083068355918,-0.002937532961368561,-0.0001461566425859928
1761509420902887000,7.387886962890625,0.0005026955623179674,-0.0009675193578004837,-0.0026151707861572504
1761509420923043800,7.4080439453125,0.0004760830197483301,-0.0008302293717861176,0.0003475907724350691
1761509420943201000,7.428200927734375,-0.0010927492985501885,-0.0011077821254730225,-0.0017842443194240332
1761509420963358000,7.44835791015625,0.00157053186558187,-0.0005131838843226433,-0.002259444911032915
1761509420983516000,7.468515869140625,0.00115303136408329,-0.000994272530078888,0.000449193874374032
1761509421003673000,7.488673095703125,-0.0003561718622222543,0.002122548408806324,0.0015271350275725126
1761509421023830000,7.508830078125,0.00009477161802351475,0.00011643767356872559,0.0013930117711424828
1761509421043988000,7.528988037109375,-0.00026734150014817715,-0.0011867089197039604,-0.0020801613572984934
1761509421064145000,7.549144775390625,-0.0005501337582245469,0.00014528073370456696,-0.0007473868317902088
1761509421084301800,7.5693017578125,-0.0009258374338969588,0.00033619441092014313,0.00031444267369806767
1761509421104458800,7.589458740234375,-0.0008409236324951053,-0.0006023924797773361,-0.0018179956823587418
1761509421124617000,7.609616943359375,-0.0007286375621333718,0.000789388082921505,0.0005257802549749613
1761509421144773600,7.629773681640625,-0.0004323915345594287,-0.0010095909237861633,-0.0005681368056684732
1761509421164930800,7.649930908203125,0.0004722799640148878,-0.001303182914853096,-0.003480469109490514
1761509421185088800,7.6700888671875,-0.002078502904623747,-0.0012710997834801674,-0.00200828118249774
1761509421205245700,7.69024560546875,-0.0008093238575384021,0.003111857920885086,0.0009488172363489866
1761509421225403000,7.71040283203125,0.0007471311837434769,-0.0019463598728179932,0.001654849504120648
1761509421245559800,7.730559814453125,0.0010105494875460863,-0.0005981484428048134,-0.00016988231800496578
1761509421265717800,7.7507177734375,0.0012771282345056534,0.00041547324508428574,0.0004695793613791466
1761509421285875000,7.770875,0.0019902088679373264,0.0004650140181183815,-0.0002871218603104353
1761509421306031600,7.791031494140625,-0.002125262515619397,0.001588655635714531,0.0013256813399493694
1761509421326189800,7.81118994140625,-0.0006951044779270887,-0.0013449275866150856,-0.0015254064928740263
1761509421346346800,7.8313466796875,-0.0006653657183051109,0.0028363587334752083,0.002423866419121623
1761509421366503700,7.851503662109375,-0.001216549426317215,0.0005895616486668587,-0.002265933668240905
1761509421386660900,7.871660888671875,0.0020433259196579456,0.0020509837195277214,0.0003039012663066387
1761509421406818800,7.89181884765625,-0.0011029148008674383,-0.0005238885059952736,-0.00022327667102217674
1761509421426975700,7.911975830078125,0.00013423245400190353,-0.002130843698978424,-0.0024106299970299006
1761509421447133000,7.9321328125,-0.0004911423893645406,-0.0005166660994291306,-0.001841297373175621
1761509421467289900,7.952289794921875,0.001178418518975377,-0.00015974976122379303,-0.0002575954422354698
1761509421487447800,7.97244775390625,-0.0009555940050631762,0.0006994642317295074,0.0014455827185884118
1761509421507604700,7.992604736328125,0.0011940267868340015,0.000007952563464641571,0.0016248777974396944
1761509421527760600,8.0127607421875,0.0008520805276930332,0.0018734093755483627,0.0018453436205163598
1761509421547918800,8.0329189453125,0.00007229088805615902,0.001895081251859665,-0.0006681918166577816
1761509421568075800,8.05307568359375,0.00028538377955555916,0.0007300944998860359,0.00026325369253754616
1761509421588232700,8.073232666015626,-0.0008279184112325311,0.0017093317583203316,0.0038023858796805143
1761509421608391000,8.093390869140626,-0.0015505836345255375,0.0005319034680724144,-0.0007127285934984684
1761509421628547800,8.1135478515625,-0.0005451103206723928,-0.002181931398808956,-0.00010214489884674549
1761509421648704800,8.133704833984375,-0.000971858506090939,0.002975701354444027,0.00010686740279197693
1761509421668862000,8.153862060546874,0.0004406692460179329,-0.0037955790758132935,-0.00045348238199949265
1761509421689020000,8.17402001953125,0.001122310757637024,-0.002411583438515663,-0.0007092820014804602
1761509421709176800,8.1941767578125,0.0023705381900072098,-0.0009876564145088196,0.0016203551786020398
1761509421729333800,8.214333740234375,-0.0008121611317619681,0.000919257290661335,0.001710038399323821
1761509421749490700,8.23449072265625,-0.001833252259530127,0.0017802072688937187,-0.002150586573407054
1761509421769649000,8.25464892578125,-0.0006318388041108847,0.0009314995259046555,0.00032790633849799633
1761509421789805800,8.274805908203126,0.0009578696917742491,0.0006238790228962898,-0.001106716226786375
1761509421809962800,8.294962646484375,0.000497596338391304,-0.0005175741389393806,0.0004539943765848875
1761509421830120700,8.31512060546875,0.0024469776544719934,0.0001601269468665123,0.00021752738393843174
1761509421850278000,8.33527783203125,0.0015544288326054811,0.0006658220663666725,0.0015176685992628336
1761509421870434800,8.355434814453124,-0.0006679409416392446,0.0006051557138562202,-0.0021143811754882336
1761509421890591700,8.375591796875,-0.0015022859442979097,-0.00042161066085100174,-0.00012799282558262348
1761509421910750000,8.39575,-0.0001028827391564846,-0.0020855842158198357,0.0014948738971725106
1761509421930907000,8.415906982421875,-0.001594213885255158,-0.000440206378698349,-0.000007761409506201744
1761509421951063800,8.436063720703125,-0.001064139767549932,-0.0009395265951752663,-0.0005029302556067705
1761509421971222000,8.456221923828124,-0.0006305285496637225,-0.00019480474293231964,-0.0022998994681984186
1761509421991378700,8.476378662109376,-0.001902533695101738,0.000902051106095314,0.000552845187485218
1761509422011536000,8.496535888671875,0.00005102669820189476,0.000005999580025672913,0.00013905949890613556
1761509422031692800,8.51669287109375,-0.00041606416925787926,-0.002047944813966751,0.00044858292676508427
1761509422051851000,8.53685107421875,0.0004850125405937433,-0.0005431827157735825,-0.00011861231178045273
1761509422072008000,8.557008056640624,0.0005227839574217796,-0.00135884340852499,-0.00017419946379959583
1761509422092165000,8.5771650390625,-0.00003162771463394165,-0.000016469508409500122,-0.0013625840656459332
1761509422112321800,8.59732177734375,-0.0002598611172288656,0.0007998719811439514,-0.00038044783286750317
1761509422132480000,8.61747998046875,0.0001682913862168789,-0.00090741366147995,0.00021284772083163261
1761509422152637000,8.637636962890625,-0.0032384106889367104,0.0022105593234300613,-0.0035205273889005184
1761509422172793900,8.6577939453125,-0.0024474547244608402,0.001602495089173317,-0.0004399172030389309
1761509422192951800,8.677951904296876,0.0022093085572123528,0.0006057042628526688,0.0015203782822936773
1761509422213109000,8.69810888671875,0.0012658450286835432,0.0019135437905788422,-0.00008645327761769295
1761509422233266000,8.718265869140625,0.0005772516597062349,0.0006619496271014214,0.0000921089667826891
1761509422253422800,8.7384228515625,0.000024235574528574944,-0.0010383641347289085,-0.00022470229305326939
1761509422273581000,8.7585810546875,0.0014391730073839426,-0.0002480223774909973,0.00036137388087809086
1761509422293738000,8.778738037109376,-0.002541670575737953,-0.0013237828388810158,-0.0007770787924528122
1761509422313895000,8.79889501953125,-0.00024198158644139767,-0.001789771020412445,-0.0024147341027855873
1761509422334051800,8.8190517578125,0.0011366240214556456,0.006001723930239677,0.0009702045936137438
1761509422354209800,8.839209716796875,0.0032302197068929672,0.0022494010627269745,-0.002185516059398651
1761509422374367000,8.859366943359374,-0.0014081404078751802,-0.00008088070899248123,-0.00039336620829999447
1761509422394524000,8.87952392578125,0.0018614493310451508,-0.0006111674010753632,0.0014150009956210852
1761509422414681900,8.899681884765625,-0.0006376632954925299,-0.0018023774027824402,-0.00017290934920310974
1761509422434839000,8.919839111328125,0.0007599990349262953,-0.0011097732931375504,-0.00241080648265779
1761509422454996000,8.939995849609375,-0.00033510103821754456,0.0016362816095352173,0.00006507593207061291
1761509422475153000,8.96015283203125,-0.0001121691893786192,0.0008187917992472649,-0.002381076803430915
1761509422495311000,8.98031103515625,-0.0008195817936211824,-0.0012613553553819656,0.0002502796705812216
1761509422515467800,9.0004677734375,-0.0007599013624712825,-0.0003360975533723831,0.0010245221201330423
1761509422535625000,9.020625,-0.0009344619465991855,0.0005182623863220215,-0.0011370540596544743
1761509422555783000,9.040782958984375,-0.001321007963269949,-0.00047101080417633057,-0.00025025964714586735
1761509422575939800,9.06093994140625,-0.00010641757398843765,-0.0018963413313031197,-0.0025261505506932735
1761509422596097000,9.081096923828126,0.0011273804120719433,0.00039150193333625793,-0.00004164292477071285
1761509422616254000,9.10125390625,0.0025871831458061934,0.001674802042543888,-0.0010211756452918053
1761509422636412000,9.121411865234375,-0.00010203337296843529,0.0017349058762192726,-0.0000956954900175333
1761509422656569000,9.141569091796875,0.0007668761536478996,-0.0017626509070396423,0.00028857053257524967
1761509422676725800,9.161725830078124,0.00014254171401262283,-0.0004249103367328644,0.001760912244208157
1761509422696883000,9.181883056640626,-0.00045126723125576973,-0.00021587032824754715,-0.0003831393551081419
1761509422717041000,9.202041015625,-0.000952377449721098,-0.0007685497403144836,0.00009596953168511391
1761509422737197800,9.22219775390625,0.0017269982490688562,0.00018018949776887894,-0.0016607397701591253
1761509422757355000,9.24235498046875,-0.0001235899981111288,0.0007873745635151863,-0.00004165596328675747
1761509422777513000,9.262512939453124,0.0006108435336500406,-0.0003317659720778465,-0.003762867534533143
1761509422797670000,9.282669921875,-0.0008399771759286523,-0.001405317336320877,0.0005128413904458284
1761509422817827000,9.3028271484375,-0.0012672634329646826,0.00027530454099178314,0.0002541330177336931
1761509422837983700,9.322983642578125,-0.00041915837209671736,0.0013554412871599197,0.000467090867459774
1761509422858142000,9.343141845703125,-0.0005427731666713953,0.0012927213683724403,-0.0007354302797466516
1761509422878299000,9.363298828125,0.00029586651362478733,-0.0003165611997246742,0.002740521915256977
1761509422898455800,9.383455810546875,0.0033848299644887447,0.0012107715010643005,0.0005485890433192253
1761509422918613000,9.403613037109375,-0.0007314989343285561,-0.001335902139544487,-0.0019073074217885733
1761509422938771000,9.42377099609375,-0.0010932950535789132,0.0008116839453577995,-0.0003545538056641817
1761509422958928000,9.443927978515624,0.001968740951269865,0.00035346951335668564,0.0019364414038136601
1761509422979085000,9.4640849609375,-0.00029231549706310034,-0.0017188172787427902,0.0015958350850269198
1761509422999243000,9.484242919921876,0.0005513725336641073,-0.00006465334445238113,-0.0008856882341206074
1761509423019400000,9.50439990234375,-0.0009853008668869734,-0.0009227432310581207,-0.0016867478843778372
1761509423039556900,9.524556884765625,0.0009585893712937832,-0.0009225336834788322,0.0007173218764364719
1761509423059714800,9.54471484375,0.0007269438356161118,0.0025716815143823624,-0.0004813952837139368
1761509423079872500,9.56487255859375,-0.00030837487429380417,-0.0030444860458374023,0.00023063784465193748
1761509423100029700,9.58502978515625,-0.0010370262898504734,0.000047579407691955566,-0.0014369660057127476
1761509423120186600,9.6051865234375,0.0008801883086562157,-0.0003679674118757248,-0.001216917997226119
1761509423140343600,9.625343505859375,-0.0008590864017605782,0.0004479214549064636,0.001020536059513688
1761509423160501800,9.645501708984375,0.0006448866333812475,0.0009636282920837402,0.0005932545755058527
1761509423180658700,9.66565869140625,0.0032788284588605165,0.0007020635530352592,-0.0010181176476180553
1761509423200815600,9.685815673828126,-0.001117166830226779,-0.002096901647746563,-0.002811553655192256
1761509423220973800,9.705973876953125,-0.0006190569838508964,-0.0006964020431041718,0.0013677647802978754
1761509423241130500,9.726130615234375,-0.0007210009498521686,0.00015339255332946777,0.0005229345988482237
1761509423261287700,9.74628759765625,-0.0005803029052913189,0.0008062282577157021,-0.0005386099219322205
1761509423281444900,9.76644482421875,-0.0008993808878585696,-0.0010145483538508415,0.0001883399672806263
1761509423301602600,9.7866025390625,0.001324714394286275,-0.0021873479709029198,-0.0029756587464362383
1761509423321759700,9.806759765625,-0.0014152037911117077,0.000001037493348121643,0.0025223304983228445
1761509423341916700,9.826916748046875,0.0009877183474600315,0.00023460201919078827,-0.0005665787030011415
1761509423362073600,9.847073486328124,0.00007405062206089497,0.0007378915324807167,-0.0017264208290725946
1761509423382231800,9.867231689453124,0.0013737627305090427,-0.0006891125813126564,-0.000994052505120635
1761509423402388500,9.887388427734376,0.002404042286798358,-0.0008684070780873299,-0.00008527073077857494
1761509423422545700,9.907545654296875,-0.00043980602640658617,-0.0007701897993683815,0.0004184623248875141
1761509423442703600,9.92770361328125,0.001591559499502182,0.0026311418041586876,-0.0017605791799724102
1761509423462860500,9.947860595703125,0.0022185733541846275,-0.001520354300737381,0.0013700821436941624
1761509423483017700,9.968017822265624,0.0017944409046322107,0.0005004843696951866,-0.0019396052230149508
1761509423503174700,9.988174560546875,0.0003828229382634163,-0.0025629736483097076,0.0002846808638423681
1761509423523332600,10.00833251953125,0.00041805696673691273,-0.0008964305743575096,0.003891445230692625
1761509423543489800,10.02848974609375,0.0005905339494347572,0.0009955167770385742,0.00031715165823698044
1761509423563646700,10.048646728515624,-0.0007000030018389225,-0.0025183018296957016,-0.00248348549939692
1761509423583803600,10.0688037109375,-0.0012812812346965075,-0.0019313814118504524,0.0007275184616446495
1761509423603961600,10.088961669921876,-0.00036294152960181236,-0.0007581776008009911,0.002359221689403057
1761509423624118500,10.109118408203125,-0.0017765548545867205,-0.000007373280823230743,-0.0012953935656696558
1761509423644275700,10.129275634765625,-0.0026246586348861456,0.001673228107392788,0.0020163932349532843
1761509423664433700,10.14943359375,0.0006444717291742563,0.0011810548603534698,0.0009591858834028244
1761509423684590600,10.169590576171874,0.001797964796423912,0.0008748825639486313,-0.0008787147235125303
1761509423704747800,10.189747802734376,0.00016844295896589756,-0.0002459213137626648,0.0006700458470731974
1761509423724904700,10.20990478515625,0.0012957151047885418,0.0019425498321652412,-0.0006363140419125557
1761509423745062700,10.230062744140625,-0.0003582932986319065,-0.0006849654018878937,-0.0018190073315054178
1761509423765219600,10.250219482421874,0.0026790383271872997,0.0018558027222752571,0.000021541956812143326
1761509423785376800,10.270376708984376,-0.0017314908327534795,-0.005786384921520948,-0.0005514244548976421
1761509423805533700,10.29053369140625,-0.0007585787680000067,-0.0029218764975667,0.0007719278801232576
1761509423825691600,10.310691650390625,0.003086025593802333,0.0033549554646015167,0.0020352175924926996
1761509423845848800,10.330848876953125,-0.00007146433927118778,0.0024866219609975815,0.0002468919847160578
1761509423866005800,10.351005859375,-0.0013265719171613455,-0.0009681424126029015,-0.0007213656790554523
1761509423886163700,10.371163818359374,0.0035873292945325375,-0.0022802576422691345,0.0007752475794404745
1761509423906320600,10.391320556640625,0.0012805000878870487,0.004037700593471527,0.0002944681327790022
1761509423926477600,10.4114775390625,0.00013456912711262703,-0.0016748439520597458,0.002599619794636965
1761509423946634800,10.431634765625,0.0014347305987030268,-0.00012043118476867676,0.0003680153749883175
1761509423966792700,10.451792724609374,0.0003271868918091059,0.0011811144649982452,0.0017204832984134555
1761509423986949600,10.47194970703125,0.0028504987712949514,-0.001056792214512825,-0.0013619144447147846
1761509424007106800,10.49210693359375,0.00024138065055012703,0.0010624304413795471,0.000017837854102253914
1761509424027263700,10.512263671875,0.0007103784009814262,-0.001058337278664112,-0.00044336472637951374
1761509424047421700,10.532421630859375,-0.0016962757799774408,0.00016919802874326706,-0.0010985040571540594
1761509424067577900,10.552577880859374,-0.00048295350279659033,0.0018306607380509377,0.000939143355935812
1761509424087734800,10.57273486328125,-0.00264510465785861,0.002594335936009884,0.0016198017401620746
1761509424107891700,10.5928916015625,-0.00010270043276250362,0.0007502734661102295,-0.001106866868212819
1761509424128050000,10.6130498046875,0.0005453226622194052,0.0009426027536392212,0.002063156571239233
1761509424148206600,10.63320654296875,-0.0007840377511456609,-0.0003149481490254402,-0.001209827372804284
1761509424168363800,10.65336376953125,0.0004613336641341448,0.008695793338119984,0.0029429763089865446
1761509424188522000,10.67352197265625,-0.00014457665383815765,0.053425125777721405,0.019021324813365936
1761509424208678700,10.6936787109375,-0.002223931485787034,0.03676977381110191,0.0015441114082932472
1761509424228835800,10.7138359375,-0.0021553542464971542,0.012419313192367554,0.00170546502340585
1761509424248993000,10.733992919921874,-0.00012538349255919456,-0.028430607169866562,-0.01721607707440853
1761509424269150700,10.754150634765624,0.00020267791114747524,-0.0414273776113987,-0.02849895879626274
1761509424289308000,10.774307861328126,0.002551295096054673,-0.0014574788510799408,-0.0005071903578937054
1761509424309464600,10.794464599609375,-0.0018082349561154842,0.0016191713511943817,-0.00037131691351532936
