time,seconds_elapsed,z,y,x
1761507668640010000,0.073010009765625,0.22893267427086827,-0.11112798649296164,-0.03824183317609131
1761507668660166000,0.093165771484375,0.27131927910149095,-0.1826391251295805,0.10697839253284036
1761507668680322000,0.113322021484375,-0.02138824046552181,0.03154613492973149,0.09020400253832339
1761507668700478000,0.13347802734375,-0.12179799519777297,0.03840966402366757,0.07657163689658045
1761507668720632800,0.1536328125,0.004935118314623833,0.019901509039103985,-0.005278232663869857
1761507668740789000,0.1737890625,-0.16914368374049663,-0.06619586189799011,-0.04693265076242387
1761507668760945000,0.19394482421875,-0.18812194045484065,-0.1756656328551471,-0.10140322274900972
1761507668781101000,0.21410107421875,-0.02264145539700985,-0.09757431211061775,-0.09119118694476783
1761507668801257000,0.234257080078125,-0.23474165281057358,-0.06656769088506698,-0.009823840204253793
1761507668821411800,0.254411865234375,-0.06634440352320671,-0.05850917985290289,-0.02438881052099168
1761507668841568000,0.274568115234375,0.047620998352766036,-0.08822108509279787,-0.08350662379153072
1761507668861724000,0.294723876953125,0.13772504764795301,-0.05144391764178872,-0.23437289256341753
1761507668881879800,0.3148798828125,0.2524766314655542,0.07049523959234356,-0.31303288004137575
1761507668902036000,0.335035888671875,-0.0032931963264942166,0.1424828366342932,-0.20098310252837837
1761507668922190800,0.35519091796875,-0.2042103209465742,0.08410290918424725,-0.15098850691206753
1761507668942346800,0.3753466796875,0.004753916528820991,0.07290792675726115,-0.14038447611555457
1761507668962503000,0.3955029296875,-0.1371598149806261,0.09653941610492765,0.027206863616406916
1761507668982658800,0.415658935546875,-0.37520577003359795,0.14634681858606635,0.1935102824296802
1761507669002815000,0.43581494140625,-0.13905717303454876,0.08656849558018147,0.19701208000555634
1761507669022969900,0.455969970703125,-0.09431202237904071,0.06856397926881909,0.1980007987819612
1761507669043125800,0.476125732421875,-0.037034722408652306,-0.07272270638346671,0.21713702253699302
1761507669063282000,0.496281982421875,-0.11092705709338188,-0.0932081527903676,0.28167021191976965
1761507669083437800,0.516437744140625,-0.07029284888803959,0.004544730757549405,0.27290895944572985
1761507669103593700,0.53659375,-0.09429565576612949,-0.02136873204745352,0.30851204161606727
1761507669123749000,0.5567490234375,-0.04692717086970806,-0.09205459884107112,0.3070787208773196
1761507669143905000,0.576905029296875,-0.0723141255825758,-0.11801504259295761,0.22394918676987288
1761507669164061000,0.59706103515625,-0.10257365476787089,0.03755370478145778,0.17936551028639078
1761507669184217000,0.617217041015625,-0.05229541990458965,-0.0036551615066826343,0.05500833212509751
1761507669204373000,0.637373046875,-0.04427344149053097,-0.0736953508079052,-0.03690473935343325
1761507669224528000,0.65752783203125,-0.03074234426617622,-0.018203326819092033,-0.09351502678245305
1761507669244684000,0.67768408203125,-0.04724398173391819,0.010296206956356763,-0.1503820654515177
1761507669264840000,0.69783984375,0.060465866878628725,0.02417918635830283,-0.1328282885823399
1761507669284995800,0.717995849609375,-0.025183541095256803,0.09046550301872193,-0.097790658275038
1761507669305151000,0.73815087890625,0.12131342655122279,0.0858781021632254,-0.10845650226138531
1761507669325307000,0.758306884765625,-0.183514738920331,-0.008631488614529371,-0.028718875614553687
1761507669345462800,0.778462890625,0.05328092381060123,-0.10202478871345519,-0.15086590344570577
1761507669365619000,0.798618896484375,0.012936638462543486,-0.09945501129068433,-0.0762411628331989
1761507669385774800,0.81877490234375,-0.04185761252045631,0.06699219990745187,0.010616159625723957
1761507669405927200,0.83892724609375,-0.0920382322281599,0.022925459970161318,0.07801971681304276
1761507669426083000,0.8590830078125,-0.05970189676880836,-0.013016060374304651,0.08886595886759459
1761507669446239200,0.8792392578125,-0.005277063620090484,-0.035675709015130994,0.06861899739168584
1761507669466395100,0.89939501953125,-0.060409752777218814,0.020489099668711423,0.040049686315655704
1761507669486551000,0.919551025390625,0.00883738645017147,-0.004364478819817304,0.0016869301736354826
1761507669506706200,0.9397060546875,0.008466799572110176,-0.05370915916003287,-0.0024587913289666175
1761507669526862000,0.959862060546875,-0.014776713371276855,-0.08741948638632893,0.006010346330702305
1761507669547018000,0.98001806640625,-0.05546352854669094,-0.04640117423422634,0.02995126695372164
1761507669567174100,1.000174072265625,-0.049745735421776766,-0.03848229086846113,0.04854739248268306
1761507669587330000,1.020330078125,-0.07083177807033061,-0.07263126524034887,0.05221979738511145
1761507669607485000,1.04048486328125,-0.08392857553064823,-0.104683267332986,0.061620516806468364
1761507669627641000,1.06064111328125,-0.11026479379236698,-0.06018719606772065,0.05466083386167884
1761507669647797000,1.080796875,-0.030512042641639706,-0.05390793313514441,0.0590581189725548
1761507669667953200,1.100953125,-0.057714522343873975,-0.0798893466098234,0.03443374613001943
1761507669688109000,1.121109130859375,-0.04966331783533096,-0.05158723510261625,0.035912001989036796
1761507669708264200,1.14126416015625,-0.14293021507561207,-0.03904460092633962,0.08110555399917066
1761507669728420400,1.16142041015625,-0.024168811094760892,-0.032569486628100275,0.14072861337810755
1761507669748576300,1.181576171875,-0.1908306148916483,-0.12213983090538531,0.18747787039764224
1761507669768732200,1.201732177734375,-0.15450842466652392,-0.02610467452816665,0.08519128894284367
1761507669788887300,1.22188720703125,0.01901098994016647,0.0004963686821982265,0.004889233346283436
1761507669809043200,1.242043212890625,-0.12515431988835335,-0.09243936037495731,-0.11305186722762882
1761507669829199000,1.26219921875,-0.0389519542068243,-0.04434636059626937,-0.11690759280771017
1761507669849355300,1.282355224609375,-0.08926642942726612,-0.05281107780914753,-0.08962393762804567
1761507669869511200,1.30251123046875,-0.056471244284510606,-0.04423168470803648,0.011888736844807863
1761507669889666000,1.322666015625,-0.018116671448946,-0.029185360615141688,0.07756452039144933
1761507669909822200,1.342822265625,0.002543254742026329,-0.03591291530448943,0.05763349299691617
1761507669929978000,1.36297802734375,0.011975684475898743,-0.009987250605039298,0.05366480856165289
1761507669950134000,1.383134033203125,0.00028232407271862027,0.010151208995096386,0.04246697659045458
1761507669970290200,1.403290283203125,-0.01885784520506859,-0.049340954013168806,0.01297602062486112
1761507669990445000,1.423445068359375,-0.0029015666604042052,-0.05483096626419574,0.014886165095120668
1761507670010601000,1.44360107421875,-0.061763505473732945,-0.014041494431905447,0.013708572683110832
1761507670030757000,1.463757080078125,-0.0312923793643713,-0.057929041877388954,0.032413784609735014
1761507670050913000,1.4839130859375,-0.04813946926891804,-0.055395724007487296,0.026135361927375197
1761507670071069200,1.504069091796875,-0.08324585396349429,-0.040508937857858834,0.04371098530218005
1761507670091224300,1.524224365234375,-0.06601181056797505,-0.009306611397117377,0.03454918920323252
1761507670111380200,1.544380126953125,-0.08679390183389186,-0.019215901395119726,0.03793437466211617
1761507670131536100,1.5645361328125,-0.043891748696565626,-0.03656794514711946,0.029703868063911794
1761507670151692000,1.584692138671875,-0.07799392478466033,-0.035323863370157776,0.024900778631120918
1761507670171848000,1.604847900390625,-0.05113280586600304,-0.051973494473844764,0.014136004314944148
1761507670192003300,1.62500341796875,-0.08851181166768074,-0.020828341560438272,0.016340090230479835
1761507670212159200,1.6451591796875,-0.08514730367064476,-0.03376147289164364,0.0010017243884503841
1761507670232315100,1.665315185546875,-0.1266109484374523,-0.057075895646773275,-0.005856982399895787
1761507670252471300,1.68547119140625,-0.08483516898155212,0.007340316292829811,-0.024789719472080467
1761507670272626200,1.705626220703125,-0.1200011749088764,0.04751056024823338,0.003736117788404226
1761507670292782000,1.725781982421875,-0.17617139042019844,0.03179462979808449,0.03531060202978551
1761507670312938200,1.745938232421875,-0.09992284799814223,0.03660082450341433,0.061140332074090836
1761507670333094100,1.76609423828125,-0.05401917495727539,0.03625113428290933,0.0824418441042304
1761507670353250300,1.786250244140625,-0.03163783180117607,0.043682343729585404,0.03069689768925309
1761507670373405200,1.8064052734375,0.04412205032110214,-0.007301409054547548,-0.01230666999593377
1761507670393561000,1.82656103515625,0.06639408788383007,0.00028162995297461744,-0.02841207468770444
1761507670413715700,1.8467158203125,0.05667991859912872,-0.016612550496309993,-0.019211554013565182
1761507670433872000,1.866871826171875,0.10367781661748886,-0.019415698283538223,-0.0029522739343345165
1761507670454027800,1.88702783203125,0.03514437861740589,-0.0028131577245891094,0.050802550998330115
1761507670474183000,1.907182861328125,0.013567922103404998,0.045434265430830414,0.06519757157564163
1761507670494338800,1.9273388671875,-0.09145078772902489,0.055645095658674835,0.05708206965923309
1761507670514495000,1.947494873046875,-0.12401800933480261,0.01882558690328151,0.038717999320477245
1761507670534651000,1.96765087890625,-0.2018751559972763,0.04278181469328701,0.004703866842016577
1761507670554806800,1.987806884765625,-0.08745031991600989,0.0055368105348199605,-0.04180266746282577
1761507670574961700,2.007961669921875,-0.12517477815449238,-0.11287165182251482,-0.012196049228310584
1761507670595117800,2.028117919921875,-0.05802198085784912,0.02185202205237001,-0.00870068139322102
1761507670615273700,2.048273681640625,-0.05473170714080333,-0.07125855211503804,0.04880655487552285
1761507670635430000,2.068429931640625,-0.05564356128871441,-0.05253960392400622,0.06963599241450429
1761507670655585800,2.088585693359375,0.01865560063123703,-0.00841539817843586,0.06519786383658648
1761507670675740700,2.10874072265625,-0.05732230815589428,-0.015615502282977103,0.09395875196196138
1761507670695896800,2.128896728515625,-0.009668576577305793,0.046070371377281844,0.03826835585683584
1761507670716052700,2.149052734375,-0.06651742200255394,-0.02984123070798814,0.050474926479160784
1761507670736208600,2.169208740234375,-0.05268295791745185,-0.03082023180797696,0.010139555089920758
1761507670756363800,2.18936376953125,-0.06118015262782573,-0.023007658360898492,0.04674048919118941
1761507670776519700,2.209519775390625,-0.04341828596591949,0.050777306959219275,0.026574630127474665
1761507670796675600,2.229675537109375,-0.1274035601198673,0.021725473063252863,0.027557357554510234
1761507670816831700,2.249831787109375,-0.06339315250217914,0.017981719957664608,-0.009303688787668943
1761507670836987600,2.269987548828125,-0.09951251363158226,0.009408829662576317,-0.030347865055873988
1761507670857142800,2.290142822265625,-0.009154781836271286,0.019034699609316884,-0.0427851026289165
1761507670877299000,2.310298828125,-0.11701192996501922,0.00617996727656573,-0.022716712590306994
1761507670897454800,2.330454833984375,0.004294482323527336,0.06001688100211322,-0.017147022699192164
1761507670917611000,2.350611083984375,-0.09620411973595619,0.046834706813283264,0.005132978974282741
1761507670937767000,2.370766845703125,0.002189034476876259,0.03645721478164196,-0.013675108804926275
1761507670957921800,2.390921875,-0.06995382619202137,-0.0009169687144458293,-0.03856456232443452
1761507670978078000,2.411077880859375,-0.03751286131441593,0.0200291905393824,-0.06360847575329244
1761507670998233900,2.43123388671875,-0.06200374397039413,0.0007908215841278434,-0.018700681881979108
1761507671018389800,2.4513896484375,-0.05956394960284233,-0.017166202323697505,-0.00047609307914972304
1761507671038546000,2.4715458984375,-0.09257891497611999,0.041340237582847474,0.014919775103777646
1761507671058700800,2.49170068359375,-0.035629531785845756,0.05978847907371819,-0.0038528760358691213
1761507671078856700,2.511856689453125,-0.06451075835525989,-0.04258892246969044,0.0022650953877717257
1761507671099012900,2.532012939453125,-0.0056254386663436885,-0.02177446330413222,0.007958776984736323
1761507671119168800,2.552168701171875,-0.07236088733375072,-0.04209934885445982,-0.006450564378872513
1761507671139324700,2.57232470703125,-0.028166940820217132,0.02742379430271685,0.01830335312746465
1761507671159479800,2.592479736328125,-0.07325169869363307,-0.025998876066133377,0.052601051787659524
1761507671179635700,2.6126357421875,0.05645487767159939,-0.0713440384414047,0.04423610515482723
1761507671199791600,2.63279150390625,0.002230535531044006,-0.05026676362119615,0.04661072533167898
1761507671219947800,2.65294775390625,0.01526362010538578,0.0014538520701229572,0.07410422386974096
1761507671240102700,2.6731025390625,-0.038165187743306156,0.003317015593498945,0.06824629162177442
1761507671260258600,2.693258544921875,-0.038948447075486184,-0.03944083370231092,0.08372494271732867
1761507671280414700,2.713414794921875,-0.11224223134517669,-0.03991699984669685,0.08686214476451277
1761507671300570600,2.733570556640625,-0.06418225705325603,-0.008309234390221536,0.06848653011843561
1761507671320726800,2.753726806640625,-0.07066285124421119,-0.03276329216714948,0.06965922715961932
1761507671340882000,2.7738818359375,0.005616086316108704,-0.02775412223562598,0.06348886796161532
1761507671361037800,2.794037841796875,-0.09254033653140067,-0.04781049304287881,0.06879566913284361
1761507671381194000,2.814194091796875,-0.007062777993083,0.022531053825095293,0.03998129725456238
1761507671401350400,2.834350341796875,-0.07941548202037811,-0.06118274644371122,0.0015107698891311883
1761507671421506600,2.854506591796875,-0.021658289578557012,-0.029872466096468268,-0.04043474011048674
1761507671441661700,2.87466162109375,-0.052177931004762645,-0.05099840236399322,-0.040933921804279086
1761507671461817600,2.894817626953125,-0.06072656364142894,-0.009474771038256585,-0.016774974516406655
1761507671481973500,2.914973388671875,0.0022872341543436047,-0.01683218459635973,0.006950768985971808
1761507671502129700,2.935129638671875,-0.0669195730626583,0.017747582408227026,-0.01279671853519976
1761507671522285600,2.95528564453125,-0.04592354678511619,0.011898746782168745,-0.010801599195227026
1761507671542440400,2.9754404296875,-0.1242623394846916,0.07053169914521276,-0.040493119234219194
1761507671562596600,2.9955966796875,-0.06028641865849495,0.0038452407186850904,-0.04483911254927516
1761507671582752500,3.01575244140625,-0.09421206913590431,-0.023670798444747922,-0.053823652385175225
1761507671602908700,3.03590869140625,-0.03407353451550007,-0.01591353538148105,-0.036572950115799904
1761507671623064600,3.056064697265625,-0.09182488173842429,0.0085412165151909,-0.012932619874551892
1761507671643219500,3.076219482421875,0.011367197188735008,-0.05384118804186582,0.012146803259104489
1761507671663375600,3.096375732421875,-0.04943593882024288,-0.06554273175150156,0.027576135320216414
1761507671683531500,3.116531494140625,0.08803601084947585,-0.06912701997905969,0.056096346557512874
1761507671703687400,3.1366875,-0.07132745263278484,-0.016785130584239957,0.06039513972997665
1761507671723843600,3.156843505859375,-0.016087211447954178,-0.05031995511315763,0.07400894680172204
1761507671743998500,3.17699853515625,-0.16648878531754016,-0.09690945499371736,0.07847717825695871
1761507671764154400,3.197154296875,-0.07419687058925628,-0.01230173809248954,0.060601768217980856
1761507671784310500,3.217310546875,-0.08026420780420303,-0.06942929086126387,0.0536607899736613
1761507671804466400,3.237466552734375,-0.040267128458619114,-0.1449144111627713,0.03249525234811008
1761507671824622600,3.25762255859375,-0.043920974791049956,-0.13369831288252024,0.03541464692614972
1761507671844777500,3.277777587890625,-0.0011257891595363616,-0.11275682980380952,0.06353409534282982
1761507671864933400,3.297933349609375,-0.0743137749671936,-0.05946648057773709,0.08958747807517647
1761507671885089500,3.318089599609375,-0.058279170489311215,-0.06450060228742659,0.07886508159600197
1761507671905245400,3.338245361328125,-0.0594867927134037,-0.10646101759523152,0.057357598664984105
1761507671925401300,3.3584013671875,-0.06890987009704112,-0.11558248168379068,0.04710267356708646
1761507671945556700,3.378556640625,-0.07091244209110736,-0.09802497848756611,0.05581351102814078
1761507671965712600,3.398712646484375,-0.06896656872034072,-0.06907660496607422,0.05761193875223398
1761507671985868500,3.41886865234375,-0.033354572591185565,-0.08967139349896461,0.05815364441350102
1761507672006024700,3.439024658203125,-0.023557985720038414,-0.08126293651796877,0.07686915853843092
1761507672026180600,3.4591806640625,-0.04460135827064514,-0.09941807681377976,0.07710749733895063
1761507672046335500,3.47933544921875,-0.015694412738084793,-0.06383172658253461,0.09168218533210455
1761507672066491600,3.49949169921875,0.006664718586206436,-0.02426175007522106,0.06367540350966155
1761507672086647600,3.5196474609375,-0.0240858089864254,-0.06885017579905689,0.04899667062014341
1761507672106803500,3.539803466796875,-0.012741408151388167,-0.07735672285966574,0.02458309098407626
1761507672126959600,3.559959716796875,-0.04946633395850658,-0.08084310367070138,0.008255275713279843
1761507672147114500,3.580114501953125,-0.0473830979436636,0.009037585197389125,-0.014266425761580466
1761507672167270400,3.6002705078125,-0.0973842694312334,-0.06530782701708376,0.0036066461898386477
1761507672187426600,3.620426513671875,-0.06854454391598701,-0.0067681789606809616,-0.0012182166833430528
1761507672207582500,3.64058251953125,-0.04309679892659187,-0.049785336779803034,0.036945217494294046
1761507672227738600,3.660738525390625,-0.05254968692660331,-0.07864230569079518,0.050745267853140825
1761507672247893500,3.6808935546875,-0.04872574472427368,-0.03307699775882065,0.049035979717224835
1761507672268049400,3.70104931640625,-0.06763210524618625,0.014856573674455285,0.039361484855785965
1761507672288205600,3.72120556640625,-0.02593523624539375,-0.03806501530446112,0.03024593905135989
1761507672308361500,3.741361572265625,-0.06810381441116332,-0.05902246313728392,0.018346607747301458
1761507672328517400,3.761517333984375,-0.013784195202589035,-0.028107904109358785,0.02721519305333495
1761507672348672500,3.781672607421875,-0.038273908814787864,0.029366598933562634,0.03059657911993563
1761507672368828400,3.801828369140625,-0.02776128262877464,-0.004763341944292188,0.015994564728438854
1761507672388984300,3.821984375,-0.012889292189478874,-0.01666720329299569,-0.02389145545810461
1761507672409140000,3.842139892578125,0.013222469666600227,0.013025047398358582,-0.0404344478495419
1761507672429296000,3.862296142578125,0.027566052317619324,0.01373151516728103,-0.055875324217975135
1761507672449451000,3.882450927734375,0.006112345400452614,-0.019763123481720685,-0.03826302209459245
1761507672469607000,3.90260693359375,-0.0044482115805149075,0.001420022865757346,-0.006984744320809841
1761507672489763000,3.92276318359375,-0.08377133914232253,-0.013619725355878472,0.0299307356223464
1761507672509919000,3.9429189453125,-0.06557166558504104,-0.014383110943809152,0.07155716973543166
1761507672530075000,3.963074951171875,-0.07782441343665122,-0.04337729636840522,0.08365326572060584
1761507672550230000,3.98322998046875,-0.08414484862983226,-0.07205050621032714,0.0744676503546536
1761507672570386000,4.003385986328125,-0.04914017074406147,-0.11176456736344843,0.07400134801715612
1761507672590540000,4.0235400390625,-0.08288345039188862,-0.10004285764861852,0.07389584181606769
1761507672610696000,4.043696044921875,-0.029760932013392447,-0.07571333956681192,0.07877433457262814
1761507672630851000,4.06385107421875,-0.08839081563651562,-0.1536217780251056,0.0446321187350899
1761507672651007000,4.084007080078125,-0.05792728831171989,-0.06497015602793545,0.007058613274618983
1761507672671163000,4.104162841796875,-0.11165127971470355,-0.011319522122107446,-0.0004557809434831142
1761507672691319000,4.124319091796875,-0.09053191931843757,-0.01413264331407845,0.015340265538170934
1761507672711475000,4.144474853515625,-0.09152560653090476,-0.02980557487271726,0.008674304842948913
1761507672731629800,4.1646298828125,-0.07654723310768603,0.04345945822652429,0.023544907042756677
1761507672751786000,4.184785888671875,-0.0385468805372715,0.0894141673348844,0.008146554641798137
1761507672771942000,4.20494189453125,-0.04039572327435016,0.014656995981745422,-0.0011303192041814327
1761507672792098000,4.22509814453125,-0.02636485983431339,-0.02564027188681066,0.004208995997160673
1761507672812254000,4.24525390625,-0.02518587918281555,0.04932615830283612,0.021192279502004384
1761507672832408800,4.265408935546875,-0.038324762219190595,0.009091324678622186,0.010519859644398093
1761507672852565000,4.28556494140625,-0.027331659039855002,-0.03300331146810204,0.02523622113056481
1761507672872721000,4.305720947265625,-0.010882044020295143,-0.034576588666811583,0.0462719218313694
1761507672892876800,4.325876708984375,0.011646014130115508,-0.01704323353115469,0.040782092243432995
1761507672913033000,4.346032958984375,-0.022132336831092832,-0.00565130375996232,0.027940950044617056
1761507672933187800,4.366187744140625,-0.01153086331784725,-0.014655315481312572,0.037833690766617654
1761507672953343700,4.38634375,-0.09073241032660007,0.0005134294148534536,0.004001198465377092
1761507672973502000,4.406501953125,-0.11941022327840327,-0.029935704058408737,0.0011914017416536807
1761507672993657900,4.426657958984375,-0.06228665256500244,-0.012852357712574302,-0.0005232201565057039
1761507673013814000,4.44681396484375,-0.14370178396999836,-0.08169895331505686,0.014567089208588003
1761507673033970000,4.466969970703125,-0.06346271060705184,-0.06152282858565449,0.030600305446982383
1761507673054124800,4.487124755859375,-0.1153092177003622,-0.053260063685663044,0.05394223726354539
1761507673074281000,4.507281005859375,-0.09892857626378536,-0.054287178243696686,0.05543072225563228
1761507673094436900,4.527436767578125,-0.06259235751330852,-0.08329440581295638,0.05121281229965388
1761507673114593000,4.547593017578125,-0.0363029010027647,-0.06265048090871424,0.03129077192917466
1761507673134749000,4.5677490234375,-0.04729951131343841,-0.00620345775000751,0.036451223432272674
1761507673154903800,4.58790380859375,-0.11844634668231009,0.013902341689541934,0.032285628185421224
1761507673175060000,4.60806005859375,-0.1307762514233589,-0.07449705911222845,0.06161152978241443
1761507673195216000,4.6282158203125,-0.12985562944710255,-0.05426558746639639,0.0617996727656573
1761507673215371800,4.648371826171875,-0.06104571259319782,-0.0710192999990657,0.06336370721198618
1761507673235528000,4.66852783203125,-0.01734276446700096,-0.03200271959081292,0.023985490417107937
1761507673255683000,4.68868310546875,-0.031869302469491954,-0.04849010933749377,0.009746756380051375
1761507673275839000,4.7088388671875,0.0038438159465789793,-0.05118848157599568,0.023559300894290206
1761507673295995000,4.728994873046875,0.045102293530106544,-0.029228140310943125,0.0354941419031471
1761507673316150800,4.74915087890625,0.05037585001885891,-0.005493702045455575,0.04772190144397318
1761507673336307000,4.769306884765625,-0.022587094861268996,0.004473638282716274,0.05295147266052663
1761507673356462000,4.789462158203125,-0.024129648128151892,0.020885332444682717,0.017151260482892394
1761507673376618000,4.809617919921875,-0.0837029500812292,0.0048448096826672555,0.00030307459980249404
1761507673396774100,4.829774169921875,-0.16501345206797122,-0.02551686470285058,0.014229820078238845
1761507673416929800,4.8499296875,-0.09779226571023464,-0.02877579343356192,0.017779840710014105
1761507673437086000,4.8700859375,-0.03527764960825443,-0.05093392229303717,0.0015124503895640373
1761507673457240800,4.89024072265625,-0.055361821737885474,-0.036574192224815484,0.052858606745302676
1761507673477396700,4.910396728515625,-0.009722352591156959,0.00815298438258469,0.058901686301827426
1761507673497553000,4.930552978515625,-0.03482522966563702,0.04517214389592409,0.055971916460245845
1761507673517708800,4.950708740234375,-0.047420507344603534,0.022103914454206824,0.03933503524027764
1761507673537864700,4.97086474609375,-0.06839315274655819,0.02947809648402035,0.019903700996190307
1761507673558019800,4.991019775390625,-0.07678630256056786,0.017506503661349416,-0.0027370237484574318
1761507673578175700,5.01117578125,-0.06290156959295272,0.044782852317392825,-0.026303850362077354
1761507673598331600,5.03133154296875,-0.044381578040122986,-0.01504537424482405,-0.023690452993288636
1761507673618487800,5.05148779296875,-0.010226210460066795,-0.03859948750734329,0.0029898294657468793
1761507673638643700,5.071643798828125,-0.010630699607729912,-0.041841026711836454,0.05211129550933838
1761507673658798600,5.091798583984375,-0.0345645329028368,0.05850706096105277,0.05038615221716463
1761507673678954800,5.111954833984375,-0.08160159388780594,-0.014134689140692352,0.05540631846673786
1761507673699110700,5.132110595703125,-0.10741641862392425,-0.013040281500108539,0.05868694757260382
1761507673719266800,5.152266845703125,-0.06825462105870246,-0.0009344678385183214,0.02612761701233685
1761507673739422700,5.172422607421875,-0.1031312886506319,-0.002063873727247119,0.013576689931750296
1761507673759577900,5.192577880859375,-0.021472996139526367,-0.032604448343627156,-0.006875292596966028
1761507673779734000,5.212734130859375,-0.024363456884026528,-0.04905822808165103,-0.003806260415166616
1761507673799890000,5.232889892578125,0.0387689988553524,-0.008731003466248511,0.01765438769944012
1761507673820045800,5.2530458984375,0.03228782014250755,-0.01922733610458672,0.016073475183546543
1761507673840201700,5.27320166015625,0.010694997015595436,0.011935315932892262,0.01742985822856426
1761507673860356900,5.29335693359375,-0.027546178573369978,0.023964082302898166,0.03096504710614681
1761507673880512800,5.3135126953125,-0.117504681918025,-0.019278664433024822,0.03831906313076615
1761507673900669000,5.3336689453125,-0.08763561335504054,-0.07110869531556964,0.03761522571034729
1761507673920824800,5.353824951171875,-0.1478682559996843,-0.03466130780819803,0.027396833230555057
1761507673940980700,5.373980712890625,-0.04335632664561272,-0.0708255309926346,0.021490604861453173
1761507673961135900,5.394135986328125,-0.17975158699452876,0.00551905568242073,0.040995954189822076
1761507673981291800,5.414291748046875,-0.025518472138047216,-0.03456818616464734,0.0380439725164324
1761507674001447700,5.43444775390625,-0.11384908201992511,-0.014566102827899156,0.05522862381227314
1761507674021603800,5.454603759765625,0.0008504793494939803,-0.032855646625719964,0.04126176551915705
1761507674041759700,5.474759765625,-0.05658230344355106,-0.03875657776519656,0.041926439972966904
1761507674061914600,5.49491455078125,0.021449615263938904,0.0034308877641335126,0.03338679436035454
1761507674082070800,5.51507080078125,-0.04498597367405891,-0.06645900634620339,0.04508979937471449
1761507674102226700,5.535226806640625,-0.01868950290083885,0.017698628699965774,0.03984890304654837
1761507674122382800,5.5553828125,-0.08239362104833126,-0.02719674408119172,0.01726275803335011
1761507674142538800,5.575538818359375,-0.0530775101929903,-0.016036759902350605,0.011706366015225648
1761507674162693600,5.595693603515625,-0.05817804820239544,0.013435820156335829,0.00017228782698512076
1761507674182849800,5.615849853515625,-0.007491232538223266,0.025747239392623304,-0.008361439501494169
1761507674203005700,5.636005615234375,-0.0029816461592912674,0.010417166454903782,-0.03235686679072678
1761507674223161600,5.65616162109375,-0.055904842573404306,-0.039150837779790164,-0.020097908394038674
1761507674243317800,5.67631787109375,-0.05157470441460609,-0.047525355958566065,0.008502382342144846
1761507674263473000,5.696472900390625,-0.03687105627954006,-0.0515606028240174,0.03392557741217315
1761507674283628800,5.71662890625,-0.10257540833353995,-0.03692512455433607,0.05594853558465838
1761507674303785000,5.736784912109375,-0.0673205550789833,-0.006391271939687431,0.04257474781386554
1761507674323940900,5.75694091796875,-0.0894809489607811,-0.02547934570405632,0.057934667900577184
1761507674344096800,5.7770966796875,-0.06172083537578582,-0.02398092383984476,0.02806311511956155
1761507674364252000,5.797251953125,-0.016520926690101623,-0.06269117824528365,-0.0001739683274179697
1761507674384407800,5.81740771484375,0.019607786789536476,-0.04391041686441749,-0.00989288685247302
1761507674404564000,5.83756396484375,-0.02366495322585106,-0.019258534960448742,0.025965777514129876
1761507674424720000,5.857719970703125,0.015187047737836837,-0.01336392396390438,0.03728255968987942
1761507674444875800,5.877875732421875,-0.06782908912301062,-0.01958535576201975,0.03229366536140442
1761507674465031000,5.898031005859375,-0.03921206644773483,-0.03033566316142678,0.002042246417328715
1761507674485186800,5.918186767578125,-0.12689502607584,0.011768069607205688,0.0016590192534029482
1761507674505342700,5.9383427734375,-0.07282908936738967,-0.013728556025214493,-0.018773162596300245
1761507674525499000,5.958498779296875,-0.1539396848678589,0.013403671452403067,-0.0215940652359277
1761507674545654800,5.97865478515625,-0.05578443106412887,-0.0036392698178067803,-0.025177768941596148
1761507674565809700,5.9988095703125,-0.09476327327787876,0.005391337649524212,0.008028188959136606
1761507674585965800,6.0189658203125,0.02140928325355053,0.0011405483372509478,0.008064210120588541
1761507674606121700,6.039121826171875,-0.051581134155392644,-0.047811041032150385,0.015099734780564903
1761507674626278000,6.05927783203125,0.035383448070287704,0.02340465832185,0.005394333324208855
1761507674646433800,6.079433837890625,-0.08837970972061157,-0.040202392659336325,0.04385170894712209
1761507674666588700,6.099588623046875,-0.017824995025992392,0.0051119361862540244,0.026423604284226892
1761507674686744800,6.119744873046875,-0.12342881126999854,-0.03366893576998264,0.049489860964566465
1761507674706900700,6.139900634765625,-0.03890402341187,0.02785341789163649,0.03746580730229616
1761507674727056600,6.160056640625,-0.12129939802587032,-0.024311690164171156,0.03832878080718219
1761507674747212800,6.180212890625,-0.011135141998529434,0.020057868644595144,0.01248874856457114
1761507674767368000,6.200367919921875,-0.03154138568937778,-0.017276932689175007,0.024826909677311777
1761507674787523800,6.22052392578125,-0.010509119054675102,0.009558686462044715,0.021054989923164246
1761507674807680000,6.240679931640625,-0.019674422284960746,0.0216602258073166,0.014799144398793576
1761507674827836000,6.2608359375,-0.025886136406660078,0.04816343466639519,-0.023652897461876272
1761507674847991800,6.28099169921875,-0.04884790979921817,-0.014204758702218531,-0.01684913573116064
1761507674868147000,6.30114697265625,-0.020528993287682533,-0.06859967163670808,0.013889043816551566
1761507674888302800,6.321302734375,-0.02626081493794918,-0.051250331298448144,0.05318937306962907
1761507674908458800,6.341458740234375,-0.08251929325461387,-0.000014795710332691669,0.0823271316833794
1761507674928615000,6.361614990234375,-0.12138824535310268,-0.04238923517912626,0.07389774151220917
1761507674948770800,6.381770751953125,-0.11618190888166427,-0.057124812822416424,0.04990604055002332
1761507674968925700,6.40192578125,-0.08886077123582363,-0.04708966795504093,0.03481858072914183
1761507674989081900,6.422081787109375,-0.07939502375423908,-0.024493001547828314,0.03198788734786212
1761507675009237800,6.44223779296875,0.010293430477380752,-0.02272051198258996,0.007929697020724415
1761507675029394000,6.462393798828125,0.017867080602049827,-0.0582986423747614,-0.005062982477992773
1761507675049549800,6.4825498046875,0.04768412671685218,-0.022138803104497493,0.017016528187319635
1761507675069704700,6.50270458984375,-0.015287000980973242,-0.0130670233765617,0.021356384022533894
1761507675089860900,6.52286083984375,-0.05058744694292545,-0.006289528598263859,0.004381722215563059
1761507675110016800,6.543016845703125,-0.13440437879264355,-0.0015057283878326415,-0.0005965045884251594
1761507675130172700,6.563172607421875,-0.1528589038938284,-0.023854922839999196,0.0017651830416172741
1761507675150328800,6.583328857421875,-0.14007716373205184,-0.0320707798583433,0.0063272302601486445
1761507675170483700,6.603483642578125,-0.07786532996892928,-0.005651961347088217,0.0015532938566058874
1761507675190639600,6.6236396484375,-0.055771571582555766,-0.060575830059126014,0.014902604773268102
1761507675210795800,6.643795654296875,-0.02216740814447403,-0.060898522674851116,0.03195120859928429
1761507675230951700,6.66395166015625,0.027701076874136924,-0.008085143310762941,0.03955386562272906
1761507675251107800,6.68410791015625,0.022075053685903546,-0.01569006535653025,0.035111060869693754
1761507675271263000,6.704262939453125,-0.015993687945604323,-0.0481317974191159,0.047222427489235996
1761507675291419000,6.7244189453125,-0.008862520891427993,-0.06141242701373994,0.04134396390989423
1761507675311575000,6.744574951171875,0.1480780993580818,-0.03520831069909036,-0.035100393345206975
1761507675331731000,6.76473095703125,-0.11426175447404384,-0.059129978632368144,0.03492825164869427
1761507675351886800,6.784886962890625,-0.11198387266993522,0.007588080508820712,0.05496726946234703
1761507675372041700,6.805041748046875,-0.07467734758257866,-0.03447502798847854,0.01943082278743386
1761507675392198000,6.825197998046875,-0.16285656629502773,-0.05501384855043143,0.03597929507158697
1761507675412354600,6.8453544921875,-0.11438275050520896,-0.04175480973310768,0.040206849638745185
1761507675432510700,6.8655107421875,-0.05761632266640663,-0.04002725528813898,-0.00031703005991876124
1761507675452666600,6.88566650390625,-0.09944704717993735,-0.06366031553838401,0.0501773317720741
1761507675472821500,6.905821533203125,-0.0069219082176685326,-0.04903378776013851,0.030505685966089366
1761507675492977700,6.925977783203125,-0.10950900698900222,-0.0022998013749718667,0.05502426034659147
1761507675513133600,6.946133544921875,0.0330395152926445,-0.0757774177789688,-0.022819880703836677
1761507675533289700,6.966289794921875,-0.0719739338427782,-0.0006934621568769217,0.03352006535120308
1761507675553445600,6.986445556640625,-0.05704816738963127,-0.0767818821137771,0.05320749324820936
1761507675573600500,7.0066005859375,0.019210896426439285,0.033908260951191184,0.0363562386251986
1761507675593756700,7.026756591796875,0.03618132044970989,-0.042110600900836286,0.02771568992137909
1761507675613912600,7.04691259765625,0.05100713365972042,-0.053411016463674604,0.017896233631297945
1761507675634068500,7.067068359375,0.040322073516249654,-0.03571636981908232,0.020635960793495178
1761507675654224600,7.087224609375,-0.062169163665175435,-0.029177359971776604,0.039194896117225285
1761507675674380500,7.107380615234375,-0.09403729709088801,0.037107020459882914,0.01177212472781539
1761507675694535400,7.127535400390625,-0.14843407318890095,0.014574505330063402,0.006332856283336878
1761507675714691600,7.147691650390625,-0.14378829320967196,-0.045723640298843383,0.0035252515166997907
1761507675734847500,7.167847412109375,-0.1267331135123968,-0.019115765488892794,0.015693389824777842
1761507675755003400,7.18800341796875,-0.07274433369338512,-0.004407769972272217,0.028222908791154622
1761507675775159600,7.20815966796875,-0.036597500035166736,-0.08311521332114935,0.050361383102089166
1761507675795314400,7.228314453125,0.009793664261698722,-0.019288455174677074,0.06108757897354662
1761507675815470300,7.24847021484375,0.004850947162508964,-0.026747685139439998,0.06968224270902573
1761507675835626500,7.26862646484375,-0.025495091262459753,0.00014594780933111905,0.057732569457218046
1761507675855782400,7.288782470703125,-0.005733575215935707,0.001313749479688704,0.008865370435640216
1761507675875938600,7.3089384765625,-0.02143792482614517,-0.02286777496617287,-0.006540946076065301
1761507675896093700,7.32909375,-0.07580605935156345,-0.013183598960936068,-0.01863813803978264
1761507675916249600,7.34924951171875,-0.07498012992143631,0.01061590389739722,-0.0005959200665354729
1761507675936405800,7.36940576171875,-0.12072130587697029,0.001271773501485586,0.0017894407000392674
1761507675956561700,7.389561767578125,-0.08803133467435836,-0.017591222802735864,-0.015894319224357602
1761507675976717600,7.409717529296875,-0.0340197585016489,-0.03893745075743645,-0.0005712970819324255
1761507675996872700,7.429872802734375,-0.04777005143463611,-0.029917401216737926,0.032450755619257685
1761507676017028600,7.450028564453125,-0.06547814208269119,0.0415720005121082,0.05031995511315763
1761507676037184500,7.4701845703125,-0.057630351191759105,0.04637666084747761,0.0320377178389579
1761507676057340700,7.490340576171875,0.015341946038603782,-0.05970894756410271,0.0028617461066693067
1761507676077496600,7.51049658203125,-0.057090837487578386,-0.04855707362648099,0.005751549264043569
1761507676097651500,7.5306513671875,-0.043593058010935784,-0.061911243381351226,0.01944229402951896
1761507676117807600,7.5508076171875,-0.01822597704231739,-0.09185293878912926,0.03773607561104
1761507676137963500,7.570963623046875,-0.04258008157610893,-0.09433843546193092,0.06309051629379392
1761507676158119700,7.59111962890625,-0.054224926662445064,-0.026301256546191868,0.07743154166154563
1761507676178274600,7.611274658203125,-0.1422568458586931,-0.002227503323741257,0.07869703155271708
1761507676198430500,7.631430419921875,-0.09358370810449122,-0.016329678434319792,0.05602284292988479
1761507676218586600,7.651586669921875,-0.055282326760888095,-0.05724361689649522,0.02705357275083661
1761507676238742500,7.671742431640625,-0.024821137523651123,-0.07575531554501504,0.0020667963366955517
1761507676258898400,7.6918984375,-0.038406595283746715,-0.00328504955265671,0.0030243162572383877
1761507676279053600,7.712053466796875,-0.06887830591499805,0.0006378229795023798,0.018174392985552547
1761507676299209500,7.73220947265625,-0.11421440820097922,-0.06603369360622018,0.03626658758036792
1761507676319365400,7.752365478515625,-0.0875157863676548,-0.020943675035797058,0.052825288997590536
1761507676339521500,7.772521484375,-0.08268295938372612,-0.022184213148802517,0.07253120239935815
1761507676359677400,7.792677490234375,-0.054476855596899985,-0.031321167067438364,0.0564934561163187
1761507676379833300,7.812833251953125,-0.03658405603170395,-0.008627762287482618,0.038137130692601204
1761507676399988700,7.83298876953125,-0.051805006039142606,-0.02195113504528999,0.011673851985111831
1761507676420143600,7.8531435546875,-0.013846154522895813,-0.03947225175388157,-0.01100961592271924
1761507676440299800,7.8732998046875,-0.018446341794729232,0.031637247279286386,-0.005908566456660628
1761507676460455700,7.89345556640625,-0.032467268362641334,0.017097082610242068,-0.008068447904288768
1761507676480611800,7.91361181640625,-0.07460662043392657,-0.022327165283448993,0.0018624328710138797
1761507676500766700,7.9337666015625,-0.04827215573787689,-0.01152801377363503,-0.0007971417270600795
1761507676520922600,7.953922607421875,-0.06680968294739723,0.04450827315971255,0.02407170739583671
1761507676541078800,7.974078857421875,-0.04409165518283844,0.02317052077241242,0.03963058412075043
1761507676561234700,7.994234619140625,-0.0736252081811428,-0.031049181725643575,0.0365323989097029
1761507676581387800,8.0143876953125,-0.04560732044279575,-0.038955242142453786,0.01595357513092458
1761507676601543700,8.034543701171875,-0.051748891937732695,-0.048643034876883026,0.013529416723921894
1761507676621699800,8.054699951171875,-0.0402893402904272,-0.02664090029671788,0.026867767855152488
1761507676641855700,8.074855712890624,-0.09368892204463482,-0.01108516537696123,0.05041399007216096
1761507676662010600,8.0950107421875,-0.06674655458331108,-0.0017395006110891699,0.016025471323356032
1761507676682166500,8.11516650390625,-0.07365794140696526,-0.041570027750730515,0.010630334281548857
1761507676702322700,8.13532275390625,0.057625090494751924,-0.0407990068456158,0.008255787169933318
1761507676722478600,8.155478515625,-0.028359248521924018,-0.038419527830556036,0.037342107857391234
1761507676742634800,8.175634765625,-0.006831891846656799,-0.02553356010932475,0.06734926971681415
1761507676762789600,8.19578955078125,-0.04373509683012962,-0.020607246155664324,0.052864817290380596
1761507676782945500,8.215945556640625,-0.09038520432412624,-0.057200325744040305,0.0594287058506161
1761507676803101700,8.236101806640624,-0.05784487072527408,-0.05061842660307884,0.038248189851641655
1761507676823257600,8.256257568359375,-0.11178045905232428,-0.014492233874090016,0.021979265161231158
1761507676843413500,8.27641357421875,-0.030804888108372685,-0.03208119165450334,0.008752923037111759
1761507676863569000,8.29656884765625,-0.07783318126499653,-0.07432546540498733,0.03712700380198657
1761507676883724800,8.316724853515625,-0.03204699712395668,0.018996888349577783,0.046012247981876135
1761507676903880700,8.336880615234374,-0.07366086401641368,-0.027285847136750814,0.04800291034244001
1761507676924036900,8.357036865234376,-0.01818798311948776,-0.0028533070718869567,0.05980279986001551
1761507676944192800,8.37719287109375,-0.01724047313630581,-0.06653981649745255,0.03800758602879941
1761507676964349700,8.397349609375,0.0031306992411613463,0.02499813805837184,0.018872823578491807
1761507676984505600,8.417505615234376,-0.05583177733719349,-0.018354900651611387,0.006798574098944664
1761507677004660500,8.437660400390625,-0.08983458470404147,-0.003390957612544298,0.0031804566670209167
1761507677024816600,8.457816650390624,-0.04107084605693817,-0.022591734503768383,0.013105126897245644
1761507677044972500,8.47797265625,-0.08922083671987056,-0.042662937553972005,0.026510113523900508
1761507677065128700,8.498128662109375,-0.04471358647346496,0.0195114137429744,0.027136940185353158
1761507677085284600,8.51828466796875,-0.032905075258016586,0.0058325420783832665,0.004995104873552918
1761507677105439700,8.538439697265625,-0.02165185983777046,-0.11280428567472844,-0.003374810195341706
1761507677125596000,8.558595947265625,0.038629882645606996,0.07485606515035033,-0.011727481868490576
1761507677145751800,8.578751708984376,-0.05049976865947246,0.06866827989351004,0.019802944035455582
1761507677165907700,8.59890771484375,-0.023401918375492093,0.005080225873738527,0.009690057756751776
1761507677186064000,8.61906396484375,-0.20792145042419433,-0.05041132319103926,0.04830459670275449
1761507677206218800,8.63921875,0.0005324994415044785,0.0138872537182644,0.03887684314399958
1761507677226374700,8.659374755859375,-0.11785188792049885,-0.008239676285348833,0.025190701488405465
1761507677246530800,8.67953076171875,-0.07547346639633178,-0.047050614586286246,0.02530753280110657
1761507677266686700,8.699686767578125,-0.09012684564888476,-0.0004107362253591418,0.04582805052138865
1761507677286842600,8.719842529296875,-0.0271878666549921,0.005728095323219895,0.03589300502762198
1761507677306997800,8.739997802734376,-0.08682897314727306,-0.0009611001171171664,0.022823314769938586
1761507677327153700,8.760153564453125,0.02327449260354042,-0.049918753901124,-0.0024557225890457627
1761507677347309600,8.7803095703125,-0.004560439783334732,-0.06059577686861157,0.012693258160725236
1761507677367465700,8.8004658203125,0.04112754468023777,-0.0640700653830543,0.02957118159495294
1761507677387621600,8.82062158203125,-0.025741174978017804,-0.015958507034368814,0.053198725419864056
1761507677407776500,8.840776611328126,-0.053206689530611036,-0.002247194404900074,0.05866948498114943
1761507677427932700,8.8609326171875,-0.12025076575577258,0.000482303624227643,0.03452800028473139
1761507677448088600,8.881088623046875,-0.1431909118384123,-0.03580207534115761,0.015768427822366357
1761507677468244700,8.90124462890625,-0.09636895490884781,-0.04181687865126878,-0.0003710983347147703
1761507677488400000,8.92139990234375,-0.037194296884536744,-0.0293035801673308,0.019419643806293605
1761507677508555800,8.9415556640625,-0.11791560080647467,-0.016080124120041728,0.034302301770076156
1761507677528711700,8.961711669921876,-0.04069207587242126,-0.02759473042283207,0.022534560956433414
1761507677548867600,8.98186767578125,-0.0285778597086668,-0.03369827146232128,0.023926599836722014
1761507677569023500,9.0020234375,-0.032926702567934986,-0.04681786527633667,0.035506051536649465
1761507677589179000,9.022178955078125,0.015375263786315917,-0.021864041283726692,0.0285386967420578
1761507677609334800,9.042334716796875,-0.010834113225340843,-0.006725691525824367,0.009036050827428699
1761507677629490700,9.06249072265625,-0.05893734213709831,0.0017685805751010775,0.005234393522143364
1761507677649646800,9.082646728515625,-0.08478665366470814,-0.013292648825980722,0.009767214646190405
1761507677669802800,9.102802734375,-0.03488309733271599,-0.0460039550775662,0.01470269828699529
1761507677689957600,9.12295751953125,-0.019936872613430023,-0.041803653843514615,0.02308971062116325
1761507677710113800,9.14311376953125,-0.05369418078660965,-0.019746501140482722,-0.0036847529273480173
1761507677730269700,9.163269775390624,-0.062919689771533,0.028712482406385242,-0.07429258604869246
1761507677750425600,9.183425537109375,-0.10388415284454822,-0.10141195404473692,0.013772943156212568
1761507677770581800,9.203581787109375,-0.19221359368264673,-0.053481378286145624,0.06856712107397615
1761507677790736600,9.223736572265626,-0.012758943808078765,0.022845234340801834,0.042766397928446526
1761507677810892500,9.243892578125,-0.06547171234190463,-0.026220592525415122,0.09175459298118949
1761507677831048700,9.264048583984374,0.003417699488997459,-0.08734864963982254,0.046032121726125474
1761507677851204600,9.28420458984375,-0.03324292891025543,-0.07114844280406832,0.047887321138754484
1761507677871360800,9.30436083984375,-0.04832885436117649,-0.008637808757461608,0.03967266969680786
1761507677891515600,9.324515625,-0.07879179716408252,-0.05604377612005919,0.05463664926849305
1761507677911671600,9.344671630859375,-0.08412322131991386,-0.030230704949609933,0.011899769695475697
1761507677931827700,9.36482763671875,-0.1109521915346384,-0.0201446701452136,0.00824168557934463
1761507677951983600,9.384983642578124,-0.023009704187512397,-0.014425269585102795,-0.010156871550902724
1761507677972138800,9.405138671875,0.010037994411587715,-0.06362027578894049,-0.008846446539461612
1761507677992295000,9.425294921875,0.030563480567932125,-0.03654551411960274,-0.0047769320782274005
1761507678012450800,9.445450927734376,0.01189209784567356,-0.05566803814284503,0.05969524783231318
1761507678032606700,9.465606689453125,-0.0183954883903265,0.003794898770935833,0.06429156264662743
1761507678052762600,9.4857626953125,-0.15387071128487587,-0.04833331134058535,0.05924516597725451
1761507678072917800,9.505917724609375,-0.15815817934572696,-0.00287358267493546,0.022523747301474214
1761507678093073700,9.52607373046875,-0.17294190697968004,-0.025031528871320187,-0.0061032122459262605
1761507678113229800,9.546229736328126,-0.1099415531873703,-0.0652278205834329,0.00035012861192226406
1761507678133385700,9.5663857421875,-0.05945639757514,-0.026864662582613528,0.03242715554796159
1761507678153542000,9.5865419921875,-0.006696282768249511,-0.03330748204644769,0.052762014503031966
1761507678173696800,9.60669677734375,0.0017605799317359924,-0.009068016868270933,0.07042480470463633
1761507678193852700,9.626852783203125,0.01782207241654396,0.00743522803466767,0.06353657956086099
1761507678214008800,9.6470087890625,0.03363338953256607,-0.02383362432364374,0.061581207709386944
1761507678234164700,9.667164794921876,0.00025075989067554474,-0.027433329316042362,0.012838877176493405
1761507678254320600,9.687320556640625,-0.02782324194908142,-0.007684563153237104,-0.011580328482761979
1761507678274475800,9.707475830078126,-0.08775134868919848,-0.003441993680037558,-0.011743044763803482
1761507678294631700,9.727631591796875,-0.10020108041763305,0.013965396988391875,-0.01127243157736957
1761507678314787600,9.74778759765625,-0.08727730143666267,-0.021741876208782193,0.008068374839052558
1761507678334943700,9.76794384765625,-0.06680442225039004,-0.004820150165446103,0.018542641776055097
1761507678355098600,9.7880986328125,-0.02863397381007671,0.005404672055132687,0.020105872504785655
1761507678375254500,9.808254638671874,-0.015621347501873968,-0.004206694442220032,0.028756796472147104
1761507678395410700,9.82841064453125,-0.03605272563397884,-0.01575502035152167,0.032319530455023046
1761507678415568000,9.84856787109375,-0.06727203976213932,-0.041510114257037635,0.02969707299694419
1761507678435723800,9.868723876953124,-0.08973872311413288,-0.03578000963982195,0.037003158226609226
1761507678455878700,9.888878662109375,-0.07001812359988689,-0.015775770878605544,0.0484848486404866
1761507678476034800,9.909034912109375,-0.05156359849870205,0.009262772255390883,0.016276888801157473
1761507678496190700,9.929190673828124,-0.06326221959888935,-0.05147694312855601,0.007249313541129231
1761507678516346600,9.9493466796875,-0.026536709269881248,-0.033501068389788266,0.013358736332133412
1761507678536502800,9.969502685546875,-0.08908990381658077,0.0004957476276904344,0.03514130987748503
1761507678556657700,9.98965771484375,-0.06939502326548098,-0.005441643064655363,0.0027452070549130437
1761507678576813800,10.009813720703125,-0.0331529125392437,-0.017348207827098668,-0.01386727037616074
1761507678596969700,10.0299697265625,-0.02011164465844631,-0.03692910660970956,-0.004419131616503
1761507678617125600,10.050125732421876,-0.02173077029287815,-0.054033605341427024,0.018190321207046507
1761507678637280800,10.07028076171875,-0.029694296517968177,-0.029430713678337633,0.03653225277923047
1761507678657437000,10.09043701171875,-0.06256079333126545,-0.020698541168309745,0.05275068939141929
1761507678677592800,10.1105927734375,-0.08099719825387,-0.04195223200134933,0.051237800610437985
1761507678697748700,10.130748779296875,-0.07409341021478176,-0.032188597551733256,0.04320683517232537
1761507678717905000,10.15090478515625,-0.08436638242602348,0.005943016715534031,0.02416939561665058
1761507678738059800,10.171059814453125,-0.057306526064872736,-0.03463420060556382,0.005310673628747463
1761507678758215700,10.191215576171874,-0.03617839784026146,-0.05670180163737386,0.006052651102468371
1761507678778371800,10.211371826171876,-0.007357961547374725,-0.01783792757280171,0.0417941188301891
1761507678798527700,10.23152783203125,-0.0035047932505607605,-0.016151728051528334,0.036978608307242394
1761507678818684000,10.251683837890624,-0.016838906598091126,-0.030027510527707635,0.030136122001335024
1761507678838838800,10.2718388671875,-0.0202776488751173,-0.041656317794695495,0.007505553324520587
1761507678858994700,10.29199462890625,-0.041518589824438096,-0.01812485475540161,0.0208528184145689
1761507678879150800,10.31215087890625,-0.04395546158254146,-0.01859915773626417,0.02370762332379818
1761507678899306800,10.332306640625,-0.08152326795458793,-0.006555741786397993,0.007850567369908095
1761507678919461600,10.352461669921874,-0.11370295154750347,-0.023685448024608192,-0.010236512658372521
1761507678939617800,10.37261767578125,-0.0808931533575058,-0.046757915250025685,0.010778437515348195
1761507678959773700,10.392773681640625,-0.060302200749516484,-0.019569208344817162,0.00872113965936005
1761507678979929600,10.4129296875,-0.04798106383681297,-0.025023710891045627,0.0026049218013882635
1761507679000085800,10.433085693359375,-0.04344751206040382,-0.03165891112182289,0.005084317526966333
1761507679020241000,10.453240966796875,-0.027062778970599173,-0.031918511906079944,-0.005401932108774781
1761507679040396800,10.473396728515626,-0.012853636354207991,-0.025861586487293243,0.00886230169571936
1761507679060553000,10.493552978515625,-0.022215923461318014,-0.011207878441177307,0.025595555962249637
1761507679080708900,10.513708984375,-0.004960837277770042,-0.0004104074317961931,0.022168211862072348
1761507679100864800,10.53386474609375,-0.01911386579275131,-0.003704845867305994,0.048610813107714056
1761507679121020000,10.55402001953125,-0.08266308563947677,-0.024606691055372356,0.03856858091242611
1761507679141175800,10.57417578125,-0.11795534829497337,-0.03148662329483777,0.022192323390021917
1761507679161332000,10.59433203125,-0.07678571803867816,-0.018087153093516824,-0.005034852362051606
1761507679181487900,10.61448779296875,-0.07344926709234714,-0.00974956939164549,-0.024239026786759495
1761507679201642800,10.634642822265626,-0.055794952458143234,-0.03928776203244924,0.0010512626186013221
1761507679221798700,10.654798583984375,-0.029420740273594856,-0.007633600150980055,0.023259075838699936
1761507679241954800,10.674954833984375,-0.040513212174177166,-0.005887815929576754,0.01640789476968348
1761507679262110700,10.69511083984375,-0.08893675908148288,-0.025602716355398295,0.026964287032186982
1761507679282267000,10.715266845703125,-0.2675853532701731,-0.008818097227811813,0.06475158137381076
1761507679302421800,10.735421875,-0.21530571545660496,-0.03353226724565029,0.003072612378373742
1761507679322577700,10.75557763671875,-0.1480529649168253,-0.14363240852821618,0.01500803790912032
1761507679342733800,10.77573388671875,-0.3060264353454113,0.04282565383501351,0.12588402240239083
1761507679362889700,10.7958896484375,0.36082185537219047,0.008325783666223286,0.07309884621948003
