time,seconds_elapsed,z,y,x
1761509301797628700,0.108628662109375,-0.05423486353456974,0.01094643275970593,-0.0038699367685243484
1761509301817787600,0.12878759765625,-0.04061374993920326,-0.00409924287921749,-0.010861731884628533
1761509301837945600,0.148945556640625,-0.05767243676781654,-0.006855163124389946,0.0010475454247090964
1761509301858103600,0.169103515625,-0.059767947742342946,0.00755688165295869,-0.008280364488763734
1761509301878261500,0.189261474609375,-0.06395780064761639,0.0012399444579612464,-0.0069670077347196635
1761509301898419700,0.209419677734375,-0.06186287419497966,0.003050409679720178,-0.011137169558834283
1761509301918577700,0.22957763671875,-0.06739712744653224,-0.0010468147723469883,-0.002823012398323044
1761509301938736600,0.249736572265625,-0.04225625644922256,0.001480246886704117,-0.005599308711243793
1761509301958894800,0.269894775390625,-0.06380114878118037,0.010671862735180183,-0.00812513739443384
1761509301979052800,0.290052734375,-0.06529401768743992,-0.006496403681440279,-0.011313749968446791
1761509301999210800,0.310210693359375,-0.06484335131049156,0.005560620668670162,0.0022719726531300693
1761509302019368700,0.33036865234375,-0.05975333469510078,-0.007734128782851621,-0.001276842402247712
1761509302039526700,0.350526611328125,-0.06918167277574538,0.0063220974273048335,-0.00099737700689584
1761509302059684900,0.370684814453125,-0.05167173504829407,0.0008517853905912488,-0.001351204546401277
1761509302079842800,0.3908427734375,-0.06423720211088657,-0.006043097822833806,-0.012179445153381674
1761509302100000800,0.411000732421875,-0.06498363656401634,0.0022128994096536187,0.00046579088084399697
1761509302120158700,0.43115869140625,-0.06782499746978282,-0.005322674593795091,-0.007741480972245335
1761509302140316700,0.451316650390625,-0.05405658435821533,0.0018103647570591418,-0.01141629702746868
1761509302160475000,0.471474853515625,-0.05973989069163799,0.006499737282842397,-0.0027868907721713184
1761509302180632800,0.4916328125,-0.05913841766715049,0.0019961605195887386,-0.00810079753762111
1761509302200790500,0.51179052734375,-0.0630284108430147,0.005752462579496204,0.007245331485755741
1761509302220948700,0.53194873046875,-0.059440030962228774,0.010872801267914473,-0.00789951194501482
1761509302241107700,0.552107666015625,-0.06392799003124237,0.0039119675456546245,-0.004522427594196051
1761509302261265700,0.572265625,-0.0782961226016283,0.0056713419009931385,0.00377587441005744
1761509302281424000,0.592423828125,-0.056899698829650874,-0.010363061647489666,0.005425532180070877
1761509302301581800,0.612581787109375,-0.0652776510745287,0.004175669116294012,0.006777321248361841
1761509302321739800,0.63273974609375,-0.053906946754455565,-0.0026148130077403037,-0.0005660363849252462
1761509302341897700,0.652897705078125,-0.06782265938222408,-0.005449524977011606,-0.0076409614735282955
1761509302362055700,0.6730556640625,-0.052857729962468146,0.00004477985664270818,-0.008724190132971852
1761509302382214000,0.6932138671875,-0.06422901880443095,0.004276718337973579,-0.01442603677008301
1761509302402371600,0.71337158203125,-0.05883972698152065,0.003919045740412548,-0.0017474190560635178
1761509302422529800,0.73352978515625,-0.0592863017052412,-0.005054552576364949,-0.010986171115050092
1761509302442687700,0.753687744140625,-0.057341597378253936,0.006633099605236202,-0.019580387325957415
1761509302462845700,0.773845703125,-0.05823766943514347,0.0031958186329342424,0.0011187931631691753
1761509302483004000,0.79400390625,-0.057787587580084794,0.005703636735398322,-0.011876991608086973
1761509302503161600,0.81416162109375,-0.05659224031567573,-0.005599582705879584,0.002570224947342649
1761509302523319800,0.83431982421875,-0.06542319702506065,-0.00028858941672369837,-0.010640170688973738
1761509302543477800,0.854477783203125,-0.07021276938915252,0.000049529096996411675,-0.004808112667780369
1761509302563635700,0.8746357421875,-0.061385904332995414,0.002597460014140233,-0.005904483936587348
1761509302583793700,0.894793701171875,-0.07545300813019275,0.0036628059570211913,-0.003320047800801694
1761509302603951600,0.91495166015625,-0.05959259117543697,-0.008673017068160697,-0.007158201191574335
1761509302624109800,0.93510986328125,-0.06617430765330791,0.0014172920525539665,-0.004416537800617516
1761509302644267800,0.955267822265625,-0.06228314543366432,-0.0009046298226807266,-0.005117662674142047
1761509302664425700,0.97542578125,-0.06303016440868377,0.0044945166739635166,-0.014538118842430411
1761509302684583700,0.995583740234375,-0.06048574062287807,0.005656272196024656,-0.001185949248401448
1761509302704741600,1.01574169921875,-0.06782032129466534,0.002208241500845179,-0.005811307494109496
1761509302724899800,1.03589990234375,-0.05659867005646228,-0.00011276705893687903,-0.0017055161430966108
1761509302745057800,1.056057861328125,-0.06213701496124267,-0.009800915986392647,-0.011511099171452224
1761509302765215700,1.0762158203125,-0.06483107635080813,0.0005739913625176996,0.0040096648996230215
1761509302785373700,1.096373779296875,-0.06378361312448978,0.00019874657564796506,-0.0068583140627015374
1761509302805531600,1.11653173828125,-0.061388826942443846,-0.005012366535607725,0.0007598510571289807
1761509302825689900,1.13668994140625,-0.0645318011432886,0.0030865678384900093,-0.007400403316458686
1761509302845847800,1.156847900390625,-0.06752396869659423,-0.004966810360830277,-0.014122816039808094
1761509302866006800,1.1770068359375,-0.05989128186106681,-0.002481688147364184,-0.006415420000255107
1761509302886164700,1.197164794921875,-0.055551206830143925,-0.00691618172978051,-0.011843682993529364
1761509302906322700,1.21732275390625,-0.05345394228994846,0.005340776506066322,-0.005284708070429042
1761509302926481000,1.23748095703125,-0.0696165570616722,0.008073242810415104,0.006359707757644355
1761509302946641700,1.2576416015625,-0.05659925457835197,-0.001727782773831859,0.0013516794704366475
1761509302966799600,1.277799560546875,-0.06033785658478737,0.000215852974075824,-0.0014509751264471559
1761509302986957600,1.29795751953125,-0.0625806670755148,0.005196417865622789,-0.015749832719750702
1761509303007115500,1.318115478515625,-0.06617255408763885,-0.007131934239156544,-0.007766441883565857
1761509303027273700,1.338273681640625,-0.061083706516027444,-0.014916039643576368,0.007074915955448523
1761509303047431700,1.358431640625,-0.050610827818512914,-0.005465727193141355,-0.013646421566559002
1761509303067589600,1.378589599609375,-0.06707096423208714,-0.02913149326974526,0.005743621685914695
1761509303087747600,1.39874755859375,-0.07365501879751682,0.005540911321202293,0.0072219780096318565
1761509303107905500,1.418905517578125,-0.05749298854768276,-0.00450442614662461,-0.006146138072200119
1761509303128063700,1.439063720703125,-0.05165887556672096,-0.0013415873346850275,-0.01187028787266463
1761509303148221700,1.4592216796875,-0.051209962755441665,-0.004215142610156908,-0.01294411851610057
1761509303168379600,1.479379638671875,-0.05989069733917713,0.006656498747132718,-0.006609508667094632
1761509303188537600,1.49953759765625,-0.052258010503649706,-0.0038693431134801354,-0.009837174609862267
1761509303208695600,1.519695556640625,-0.07425356921255588,0.00035779132856987415,-0.003205307980487123
1761509303228853800,1.539853759765625,-0.06991290965974331,-0.004272644951054826,-0.002863353541865945
1761509303249011500,1.560011474609375,-0.07006430082917213,-0.004866491791512817,-0.0009875771320890635
1761509303269169700,1.580169677734375,-0.06961480349600314,0.007489387641008943,-0.008905282320920378
1761509303289327600,1.60032763671875,-0.0579442394465208,0.0031077932896092534,-0.010333324096351862
1761509303309485600,1.620485595703125,-0.06183423262238502,0.0016340766083914786,-0.019977661281544715
1761509303329643800,1.640643798828125,-0.05764262615144253,-0.0007637965798843652,-0.010463453282043338
1761509303349801500,1.660801513671875,-0.05869125842154026,0.0030269192062783983,-0.002914280011504888
1761509303369959700,1.680959716796875,-0.07111293309926986,-0.003722838181722909,0.0002406860212329775
1761509303390117600,1.70111767578125,-0.06423194141387939,0.0035444950732868162,-0.0032816976849455383
1761509303410275600,1.721275634765625,-0.06886836904287338,-0.008097135142656043,-0.006341203986573964
1761509303430433500,1.74143359375,-0.06931903541982173,0.00405792448814027,-0.00010730543253012001
1761509303450591500,1.761591552734375,-0.06752689130604267,-0.0010698668543715028,-0.004930232076952233
1761509303470749700,1.781749755859375,-0.044182256075739855,0.003182328963698819,-0.012103110247850418
1761509303490907600,1.80190771484375,-0.056152095332741736,0.0012278704276774079,-0.005052954274322837
1761509303511065600,1.822065673828125,-0.07455868963897228,0.006764379568397998,-0.008175104882847518
1761509303531223600,1.8422236328125,-0.06438508614897727,-0.0046902401754632585,-0.010478011530358343
1761509303551381500,1.862381591796875,-0.06258943490386008,-0.00588667428526096,-0.0041277200550306585
1761509303571539700,1.882539794921875,-0.06917524303495884,-0.0019140169277787208,-0.008981023571407423
1761509303591697700,1.90269775390625,-0.05540566087961197,0.0004040507562458515,-0.006825964429369196
1761509303611855600,1.922855712890625,-0.0595914221316576,0.00014988419893197715,-0.000872855578083545
1761509303632013600,1.943013671875,-0.06557692628204823,-0.0044517461113166065,-0.0009785718417260796
1761509303652171500,1.963171630859375,-0.059740475213527676,-0.002086551349936053,-0.010055749263986944
1761509303672329700,1.983329833984375,-0.05001403096914291,0.0031182324852328746,-0.005780199969792738
1761509303692487700,2.00348779296875,-0.053603579893708224,-0.005521183707425371,-0.013584991969214751
1761509303712645600,2.023645751953125,-0.06527531298696994,0.000009060089290142059,-0.0014474223293364048
1761509303732803600,2.043803466796875,-0.0631815555781126,-0.001370274573052302,-0.012122463402291759
1761509303752961500,2.06396142578125,-0.06527940464019776,-0.008065598360076547,-0.003605924670631066
1761509303773119700,2.08411962890625,-0.04851765493154526,0.00002065919553861022,-0.013960666014347225
1761509303793277400,2.10427734375,-0.06587327888011932,0.0028537454633042214,-0.009032543696090578
1761509303813435600,2.124435546875,-0.062280807346105575,-0.0008225227634888142,-0.008500025988277047
1761509303833593600,2.144593505859375,-0.05539923113882542,-0.0011419091772753745,0.0008534567578695714
1761509303853752600,2.164752685546875,-0.06078560035228729,0.00460008680713363,0.0006581990472506731
1761509303873910800,2.184910888671875,-0.061681087887287135,0.0006434764021541922,0.0010635467114392667
1761509303894068700,2.20506884765625,-0.07499941914379596,-0.0013683109448291361,0.0002049023217987269
1761509303914226400,2.225226318359375,-0.06243044494986534,-0.005931161880958825,-0.0002611168879084289
1761509303934381000,2.245381103515625,-0.0607850158303976,0.0003721212480217218,-0.004363136246101931
1761509303954539000,2.2655390625,-0.05958966856598854,0.004386106129735708,-0.003253558435849845
1761509303974697200,2.285697265625,-0.06482756921947003,0.0009768365423660724,-0.007516704906197265
1761509303994855000,2.30585498046875,-0.06033902562856674,-0.007718858148483559,-0.012678581181401386
1761509304015012900,2.326012939453125,-0.07470306654572487,0.007812847441714257,-0.010220575303724035
1761509304035171000,2.346171142578125,-0.06407528954744339,-0.0028464480728376657,-0.0018494820578955113
1761509304055329000,2.3663291015625,-0.06736848587393761,-0.0022580993914045394,-0.004801509397057816
1761509304075487000,2.386487060546875,-0.06153554193675518,-0.00916849070121534,-0.0071937565621454265
1761509304095645000,2.40664501953125,-0.06183540166616439,-0.0009529259438160806,-0.005358914950955659
1761509304115803000,2.426802978515625,-0.05300912113189697,-0.0017702702086884528,-0.006335952422721311
1761509304135961000,2.446961181640625,-0.06064005440175533,-0.010665615657484159,-0.0025700057516340165
1761509304156119000,2.467119140625,-0.058248190829157824,-0.006289455533027648,-0.003437052643438801
1761509304176277000,2.487277099609375,-0.06677811876535415,0.0050166134524624794,0.0025556392995640634
1761509304196435000,2.50743505859375,-0.04567746306955814,-0.005706367548601702,-0.009916633054241538
1761509304216593200,2.52759326171875,-0.05196341147124767,0.0058960905675776295,-0.006806739139091223
1761509304236751000,2.547751220703125,-0.06034720893502235,-0.0022786855217069384,-0.007477624137979
1761509304256908800,2.56790869140625,-0.0675298139154911,-0.0010093688387889414,-0.006000701719522476
1761509304277067000,2.58806689453125,-0.056903205960988995,-0.003492180364159867,0.000024422055203467605
1761509304297225000,2.608224853515625,-0.0639350042939186,0.005611802866635844,-0.006432088007265702
1761509304317383200,2.628383056640625,-0.060793199136853215,-0.0093526790285483,-0.015192381500080227
1761509304337541000,2.648541015625,-0.06483399896025657,0.0011567688196897506,-0.012256693374365567
1761509304357698800,2.66869873046875,-0.05555588300526142,-0.004473263823380693,-0.006435686470149085
1761509304377857000,2.68885693359375,-0.06393441977202892,-0.00015282507468946277,0.003324468247592449
1761509304398015000,2.709014892578125,-0.06662672759592533,0.005085249108728021,-0.01272569912560284
1761509304418173200,2.729173095703125,-0.06677753424346447,0.0019034224685281515,-0.010366139520565048
1761509304438331000,2.749330810546875,-0.05929974570870399,-0.0012677275140304117,-0.0022671138149220494
1761509304458488800,2.76948876953125,-0.050769817772507664,-0.00468838614509441,-0.009958727763453497
1761509304478647000,2.78964697265625,-0.06184475401639938,0.0009902440132107586,-0.006723663965519517
1761509304498805000,2.809804931640625,-0.05765373206734657,0.004513257907051592,0.0011318170415237545
1761509304518963200,2.829963134765625,-0.05870119529366493,-0.0010138532176613808,-0.002576517690811306
1761509304539121000,2.850120849609375,-0.05885200194120407,-0.0011981602760031819,-0.005807252373499795
1761509304559278800,2.87027880859375,-0.07082184119820595,0.008436733227409421,-0.006636625002883374
1761509304579437000,2.89043701171875,-0.06962357132434845,-0.0008987754706293344,-0.008316129921888932
1761509304599595000,2.910594970703125,-0.04553367068469524,0.007397106247674673,-0.010717610706202686
1761509304619753000,2.9307529296875,-0.06738426796495914,-0.003195087980572134,-0.005931317144585773
1761509304639911000,2.950910888671875,-0.0693295568138361,0.0024442239474970844,-0.010445625364407896
1761509304660068900,2.97106884765625,-0.06588789192736148,0.0015526819352526216,-0.0017783713167533277
1761509304680227000,2.99122705078125,-0.056014732688665386,0.0024654767980799076,-0.002444589273678139
1761509304700385000,3.011385009765625,-0.07756313215196133,0.0006318772959057242,-0.0030024606184568254
1761509304720543000,3.03154296875,-0.0666448477745056,-0.00944493302241899,-0.010375382272945717
1761509304740701000,3.051700927734375,-0.0666454322963953,-0.0026614834273699668,-0.007254802566999569
1761509304760859100,3.071859130859375,-0.06754501148462295,0.0017716949807945637,-0.00032837343784049153
1761509304781017000,3.09201708984375,-0.05946282731592655,0.0069874020687770095,0.0033279023136943576
1761509304801174800,3.1121748046875,-0.05767009868025779,0.005776400577509775,-0.013553053327836096
1761509304821333000,3.1323330078125,-0.06380524043440819,-0.001382777861598879,-0.001856825114134699
1761509304841491000,3.152490966796875,-0.06874386588037014,0.0012909713922999797,-0.01195555500332266
1761509304861649200,3.172649169921875,-0.06380348686873913,-0.0032705461032688614,-0.009947694912785663
1761509304881807000,3.19280712890625,-0.062457917478680604,-0.0019166107436642049,-0.014254388263914734
1761509304901964800,3.21296484375,-0.06664718586206436,-0.0003182630357798189,-0.012138629085803404
1761509304922123000,3.233123046875,-0.06454992132186889,0.016404652499826623,-0.004117956712841988
1761509304942280400,3.253280517578125,-0.048836219361424446,0.009981971641723066,-0.008337611101334914
1761509304962438700,3.273438720703125,-0.062303019177913664,0.0073252009220886975,-0.0013044519283808766
1761509304982596600,3.2935966796875,-0.05961012683212757,0.005034176508616656,-0.003447921097325161
1761509305002754800,3.3137548828125,-0.0516787493109703,-0.0024800715790130197,-0.01792069221911952
1761509305022912500,3.33391259765625,-0.0667892246812582,-0.008056035947287455,0.002191838355315849
1761509305043070500,3.354070556640625,-0.06484335131049156,-0.000579644785169512,-0.0023264427867252377
1761509305063228700,3.374228759765625,-0.05661386762559414,0.005169959116959944,-0.00386349789458327
1761509305083386600,3.39438671875,-0.06604162118434906,-0.0020768610729835924,-0.0011899678363930433
1761509305103544600,3.414544677734375,-0.06589256810247898,0.001583698128024116,-0.005655505011044442
1761509305123702500,3.43470263671875,-0.05526888275742531,-0.0023082130102906376,-0.00451576952454634
1761509305143860500,3.454860595703125,-0.07292962713241577,0.005786236984934657,-0.01354943659864366
1761509305164018700,3.475018798828125,-0.059013329982757566,-0.004341636800346896,0.0035535277631133792
1761509305184176600,3.4951767578125,-0.07517419118881224,-0.0002449146717786789,-0.010166644026245921
1761509305204334600,3.51533447265625,-0.07217734746038913,-0.0015182225432246923,0.00019196977498941122
1761509305224492500,3.535492431640625,-0.06215279705226421,0.004809793168213218,0.0029723668742924927
1761509305244650500,3.555650390625,-0.054820554468035694,-0.0016302406834904104,-0.007360217436542734
1761509305264808700,3.57580859375,-0.06439619206488133,0.006931817690329626,-0.01169526923247613
1761509305284966400,3.59596630859375,-0.05227496163845062,0.0014750683880876748,-0.0036028376644011584
1761509305305124600,3.61612451171875,-0.05556874248683452,-0.006704703536722809,0.0007233641047962009
1761509305325282600,3.636282470703125,-0.05781096845567226,0.004195360197452828,-0.002913832486933097
1761509305345440500,3.6564404296875,-0.06439677658677101,-0.0014349647065624593,-0.00831077789333649
1761509305365598700,3.6765986328125,-0.07068214046657086,-0.0035850828120019287,-0.007684563153237104
1761509305385756400,3.69675634765625,-0.05616787742376327,-0.009846901419432834,-0.004166371564986184
1761509305405914600,3.71691455078125,-0.05631809954941273,0.0008895601177122443,-0.00826787946652621
1761509305426072600,3.737072509765625,-0.053473816034197805,-0.0015661898707970976,-0.011967007979098707
1761509305446230500,3.75723046875,-0.06065700553655624,0.0064555054154712705,-0.00414649782073684
1761509305466388500,3.777388427734375,-0.05182838691473007,-0.0004963686821982265,-0.006135744542349129
1761509305486546400,3.79754638671875,-0.06918868703842163,-0.003994969653990119,-0.006841719120927155
1761509305506704600,3.81770458984375,-0.05437456426620483,-0.0007823277504183352,0.005213597329286858
1761509305526862600,3.837862548828125,-0.05527063632309436,-0.003706635965593159,-0.001986470242636278
1761509305547020800,3.858020751953125,-0.05811199722886085,0.000710166696505621,-0.008959706788742914
1761509305567178500,3.878178466796875,-0.06364917308986187,-0.00025054069496691225,-0.003605979469558224
1761509305587336400,3.89833642578125,-0.05586860221624374,-0.0010002356842625886,-0.007882770872768015
1761509305607494700,3.91849462890625,-0.07427227391302585,0.006958239906374365,-0.001632323042722419
1761509305627652600,3.938652587890625,-0.05826163483262062,-0.00015282507468946277,-0.009743778971675783
1761509305647810600,3.958810546875,-0.05407002836167812,0.0037886425600852816,-0.006444655227893963
1761509305667968500,3.978968505859375,-0.0512257448464632,0.005709564152685925,0.0010309413497801869
1761509305688126500,3.99912646484375,-0.07636486227810382,-0.0011789258525706826,-0.006326253012614324
1761509305708281600,4.019281494140625,-0.06094985100328922,0.006421667077951133,-0.006634040320152417
1761509305728439600,4.039439453125,-0.0658873074054718,0.0012237057092133908,-0.015047867596009745
1761509305748597500,4.059597412109375,-0.0564583848029375,0.0010400197053793817,-0.0021553879356011746
1761509305768755700,4.079755615234375,-0.05496200876533985,0.002564297530055046,-0.0025260935446713116
1761509305788913400,4.099913330078125,-0.0594517214000225,-0.0021204718858469276,-0.0017932674917858092
1761509305809071600,4.120071533203125,-0.07680968343615531,-0.001792792567750439,-0.005345279151247814
1761509305829229600,4.1402294921875,-0.061847676625847815,-0.004425259963190183,-0.008083024418912827
1761509305849387500,4.160387451171875,-0.06124737264513969,0.0017004289760254323,-0.005560629801824688
1761509305869545500,4.18054541015625,-0.05735387233793735,-0.00705511527643539,-0.017700884589133783
1761509305889703400,4.200703369140625,-0.06917407399117946,0.004500973814213648,-0.005402717560064048
1761509305909861600,4.220861572265625,-0.05675239931344986,0.002053343200078234,-0.005638261615298688
1761509305930019600,4.24101953125,-0.055556467527151106,-0.003331016719387844,-0.009679819490527734
1761509305950181400,4.261181396484375,-0.06199146901071071,0.006207878196798264,-0.009405002870829775
1761509305970339600,4.281339599609375,-0.06558510958850383,-0.002494054438592866,-0.0032920272827148436
1761509305990497300,4.301497314453125,-0.05451309595406055,0.0037834914609324185,0.003167569785984233
1761509306010655500,4.321655517578125,-0.05541150609850883,0.002451329541718587,-0.005279100313549861
1761509306030813400,4.3418134765625,-0.047780572828650475,0.0010676474978215992,-0.010350512693170458
1761509306050971400,4.361971435546875,-0.05975041208565235,0.011768982922658324,-0.004708588682906702
1761509306071129600,4.382129638671875,-0.059304421883821484,0.007842904653260483,-0.01753589415261522
1761509306091287300,4.402287353515625,-0.059008069285750385,-0.005411960312444716,-0.007134555454505607
1761509306111447300,4.422447265625,-0.0658913990586996,0.00533897727462463,-0.004563773384736851
1761509306131605500,4.44260546875,-0.06559037028551101,0.010069814321957528,-0.008426357963867485
1761509306151763500,4.462763427734375,-0.0633469752728939,0.00232443349272944,-0.002606492703966796
1761509306171921400,4.48292138671875,-0.05676175166368484,0.008178082291223108,-0.009437160707917064
1761509306192079600,4.50307958984375,-0.05092588511705398,0.006593635244527832,-0.009649981474690138
1761509306212237300,4.5232373046875,-0.06394435664415359,-0.004564193509845063,-0.012784836301160975
1761509306232395500,4.5433955078125,-0.06499123534858227,-0.0006461980822030454,-0.005499382867570966
1761509306252553500,4.563553466796875,-0.05810849009752273,0.00046620187279768283,-0.0056340512310620395
1761509306272711400,4.58371142578125,-0.06454232253730297,-0.000486678405245766,-0.014305561328725888
1761509306292869600,4.60386962890625,-0.056463060978054994,0.004657269487623125,-0.010371701611671596
1761509306313027300,4.62402734375,-0.06843348475694656,0.0023697887381073086,-0.0006193374747410416
1761509306333185500,4.644185546875,-0.061551324027776716,0.0028472974562086164,-0.012712419518921523
1761509306353343500,4.664343505859375,-0.07038111169338226,-0.0008947203500196337,-0.005243910269159823
1761509306373501400,4.68450146484375,-0.04673720125555992,0.005622214662795886,-0.010033108173916117
1761509306393659400,4.704659423828125,-0.061253217864036556,0.003079608374740928,-0.0017013148920144885
1761509306413817300,4.7248173828125,-0.05182487978339195,0.002572882695309818,-0.01115603865608573
1761509306433975600,4.7449755859375,-0.059008653807640074,0.0006127707366365938,-0.013617314203083514
1761509306454133500,4.765133544921875,-0.06529401768743992,0.004686002391763032,-0.01289152981233783
1761509306474291500,4.78529150390625,-0.06364391239285469,0.0009565974719356745,-0.011999686405993998
1761509306494449400,4.805449462890625,-0.06349193670153618,0.0020647779095452276,-0.009266690378682687
1761509306514607400,4.825607421875,-0.057657823720574375,0.0005417604601942002,-0.017167060840222983
1761509306534765600,4.845765625,-0.06214636731147766,-0.002760103229945525,-0.007236983782518655
1761509306554923500,4.865923583984375,-0.052718029230833054,-0.0017903814149554818,0.002164009633474052
1761509306575081500,4.88608154296875,-0.06409048711657524,0.004265767685696482,-0.011127269219327718
1761509306595239400,4.906239501953125,-0.05780570775866508,-0.004705282480968162,-0.0016727007188834248
1761509306615397400,4.9263974609375,-0.05541092157661914,0.004735650219768285,-0.011432051719026639
1761509306635555600,4.9465556640625,-0.06528524985909462,-0.0035156525712925937,-0.010494204613333568
1761509306655713500,4.966713623046875,-0.0687280837893486,0.002365761016961187,-0.009698916916642337
1761509306675871500,4.98687158203125,-0.05959785187244415,-0.0018329601813573389,-0.0028038784395903347
1761509306696029400,5.007029541015625,-0.0564542931497097,0.0003121894880197942,-0.00636966289607808
1761509306716187400,5.0271875,-0.04657879582345485,0.0009811565244570374,-0.0076860792568884785
1761509306736344300,5.04734423828125,-0.06318623175323008,-0.0027735928991809485,-0.009038562444923445
1761509306756502300,5.067502197265625,-0.05525426971018314,0.0036512890491634605,-0.0072549852300900965
1761509306776660500,5.087660400390625,-0.05944412261545658,-0.0002973207124508917,-0.0074946757374797016
1761509306796818400,5.107818359375,-0.0636345600426197,-0.0022400157454423603,-0.007414303977647796
1761509306816976600,5.1279765625,-0.0510644168049097,0.0016054989678785203,-0.01246476490078494
1761509306837134300,5.14813427734375,-0.06647592094838618,0.008140718556055799,-0.0006835709505248815
1761509306857292300,5.168292236328125,-0.06677578067779541,0.012217073750030248,-0.003385340722510591
1761509306877450500,5.188450439453125,-0.052561961886286736,0.008269569100113585,-0.0016088234361261128
1761509306897608400,5.2086083984375,-0.06288695654571055,0.004936798815056681,-0.003928946079919115
1761509306917766700,5.2287666015625,-0.05989361994862556,0.0037501828463748096,-0.006176633675163612
1761509306937921300,5.24892138671875,-0.06677636519968509,-0.0012970175405964254,-0.0066719885772094124
1761509306958079200,5.269079345703125,-0.05465396572947502,0.007009933560993522,-0.011900893073482438
1761509306978237400,5.289237548828125,-0.06393208168447018,0.0020091021995525806,-0.0008505158821120858
1761509306998395400,5.3093955078125,-0.05046411282420158,-0.005425541313225403,-0.011177684232313185
1761509307018553300,5.32955322265625,-0.07620294971466064,0.0017054704773239791,-0.006437777962535619
1761509307038711300,5.349711181640625,-0.05675239931344986,0.004632345108920708,-0.010862499069608747
1761509307058869200,5.369869140625,-0.06094049865305423,-0.00011939772912301123,0.0029903500555548816
1761509307079027500,5.39002734375,-0.05330605825185775,-0.004623294152785093,-0.012021286316448821
1761509307099185200,5.41018505859375,-0.0705149672061205,0.005948798002349213,-0.014575016786716877
1761509307119343400,5.43034326171875,-0.06063654727041721,0.005834432641370221,-0.007287846320075913
1761509307139501300,5.450501220703125,-0.058842065069079394,0.0005352667873259634,-0.003323016076022759
1761509307159659300,5.4706591796875,-0.05988719020783901,0.007548287354549392,-0.004993807965610176
1761509307179817500,5.4908173828125,-0.06078267774283885,0.0009146123605780303,-0.009251072684442623
1761509307199975200,5.51097509765625,-0.0628764351516962,0.002262775566522032,-0.007308834309177473
1761509307220133400,5.53113330078125,-0.06317395679354668,0.0004546392991673201,-0.009738719204068184
1761509307240291300,5.551291259765625,-0.06212532452344894,0.0038537345523945985,-0.00664277161587961
1761509307260449500,5.571449462890625,-0.06377075364291668,0.002211584235401824,-0.003722655518632382
1761509307280607200,5.591607177734375,-0.06107552320957183,0.0005711418183054775,-0.009624591305106877
1761509307300765200,5.61176513671875,-0.059279871964454646,0.0032009149331599473,-0.004304903252841904
1761509307320923400,5.63192333984375,-0.050153731700778005,0.010728314763307571,-0.0031874617965426295
1761509307341081300,5.652081298828125,-0.060930561780929565,-0.000663012219686061,-0.010281995767913759
1761509307361239600,5.672239501953125,-0.06362345412671566,0.009781151839997618,-0.012624184113042428
1761509307381397200,5.692397216796875,-0.07753975127637386,-0.0006676975279580801,-0.007636422295728698
1761509307401555200,5.71255517578125,-0.06422492715120315,0.01493563939318992,-0.005474540687259286
1761509307421713400,5.73271337890625,-0.06153145028352737,0.002371861964184791,0.00019122998947277664
1761509307441871400,5.752871337890625,-0.0607850158303976,0.006238757392251864,0.006424799749953672
1761509307462029300,5.773029296875,-0.0643751492768526,-0.004763643338391557,-0.00445386500316672
1761509307482187300,5.793187255859375,-0.06991290965974331,-0.00028351138280704617,-0.00748143266341649
1761509307502345200,5.81334521484375,-0.06497545325756073,0.005558300847420468,-0.001356090784072876
1761509307522502400,5.83350244140625,-0.058392567735910415,0.00042033517076633866,-0.011141973598115145
1761509307542660400,5.853660400390625,-0.06153554193675518,-0.0009240012434311211,-0.0022908691498450934
1761509307562818300,5.873818359375,-0.06363339099884033,0.002166877443995327,-0.011399957814021035
1761509307582976300,5.893976318359375,-0.054359951218962664,0.008416749885305762,-0.005358549624774605
1761509307603134500,5.914134521484375,-0.05959902091622352,0.00033205409911461173,-0.007261917294375598
1761509307623292400,5.93429248046875,-0.06259118846952914,0.0014861377713736145,-0.011382933613983914
1761509307643450400,5.954450439453125,-0.07246960840523242,-0.00398204624033533,-0.0022311383192427457
1761509307663608300,5.9746083984375,-0.05720891090929508,-0.0007432195827364921,-0.00734044415699318
1761509307683766300,5.994766357421875,-0.0631944150596857,-0.004502891776664182,-0.008577210277179255
1761509307703924500,6.014924560546875,-0.06977846962511539,-0.004512445056298747,-0.004100192727288231
1761509307724082200,6.035082275390625,-0.06304477745592593,-0.00003195690768770873,-0.0030951256042812017
1761509307744240400,6.055240478515625,-0.056311085286736486,0.0030524098405614493,-0.004039712978014722
1761509307764398300,6.0753984375,-0.06888064400255679,0.005054917902546003,-0.0026404589056503026
1761509307784556300,6.095556396484375,-0.06334463718533516,0.006359561627171933,-0.012462445079535246
1761509307804714500,6.115714599609375,-0.059601943525671955,0.0058592656885273755,-0.013459730754885822
1761509307824872200,6.1358720703125,-0.05840425817370414,-0.0006649484484456479,-0.005691553571959957
1761509307845030400,6.156030517578125,-0.07486497910916805,0.010426427473593503,-0.007451567248115316
1761509307865188400,6.176188232421875,-0.06005377894639968,0.008210925114899873,-0.0026642964389640834
1761509307885346300,6.19634619140625,-0.06065525197088718,-0.000910283245332539,-0.011042431346932426
1761509307905504300,6.216504150390625,-0.062005497536063194,-0.0005613145440351218,-0.004705666073458269
1761509307925662200,6.236662109375,-0.0624538258254528,-0.0018509981615468859,-0.017607899942900983
1761509307945820000,6.25681982421875,-0.06365151117742061,0.008151294748997315,-0.006617774171940982
1761509307965977900,6.276977783203125,-0.07248188336491584,0.008051597234187647,-0.014278728120727464
1761509307986135800,6.2971357421875,-0.054526539957523344,0.000846433362038806,-0.002349321338813752
1761509308006293800,6.317293701171875,-0.060066053906083106,0.00017416925681754946,-0.01761580012156628
1761509308026451700,6.33745166015625,-0.05901859067976475,0.0034411534298211333,-0.01134159695659764
1761509308046610000,6.35760986328125,-0.06440495989322662,-0.009055970237450674,-0.0002902059850748628
1761509308066768000,6.377767822265625,-0.06650280895531177,-0.004187277355697005,-0.007607351464871317
1761509308086925800,6.39792578125,-0.058121934100985526,0.005003845302434638,-0.012030729998229071
1761509308107082800,6.418082763671875,-0.0491430933535099,-0.010824770008260383,-0.0044329318129923195
1761509308127241000,6.438240966796875,-0.0549772063344717,-0.002361961624678224,0.00547588326097466
1761509308147398700,6.458398681640625,-0.05946574992537498,0.0006406268579419702,-0.00195002895607613
1761509308167556900,6.478556884765625,-0.062457917478680604,0.000506479084258899,-0.010426911530783399
1761509308187714800,6.49871484375,-0.06530278551578521,0.0020611063814256337,-0.0005683653393294661
1761509308207872800,6.518872802734375,-0.05722586204409599,-0.001020045496430248,-0.00692482169396244
1761509308228031000,6.539031005859375,-0.05543196436464786,0.0018697576609440147,-0.005332154808193445
1761509308248188700,6.559188720703125,-0.06695405985414982,0.0026662600671872494,-0.0012383004901465027
1761509308268347000,6.579346923828125,-0.0590250204205513,-0.001487571676634252,-0.003960939520224928
1761509308288504800,6.5995048828125,-0.06740472623109817,-0.001588639164622873,-0.005278579723741859
1761509308308662800,6.619662841796875,-0.06471124936342239,0.008427326078247279,0.0002241915441583842
1761509308328821000,6.639821044921875,-0.0512432805031538,0.006775540283229201,-0.0031016923423856494
1761509308348978700,6.659978759765625,-0.058873629251122474,0.005211688499990851,-0.007693577576754615
1761509308369137000,6.680136962890625,-0.05722586204409599,0.0025100465921685097,-0.003743278181552887
1761509308389294800,6.700294921875,-0.06650456252098083,-0.0036182544292416422,-0.008831796959601342
1761509308409452800,6.720452880859375,-0.047050504988431927,-0.00573892724448815,-0.010436939734453334
1761509308429610800,6.74061083984375,-0.05348492195010185,-0.00023252098108641803,0.004338476728880778
1761509308449768700,6.760768798828125,-0.05797521910667419,0.0005015745802782476,-0.007526860974030569
1761509308469927000,6.780927001953125,-0.0654559302508831,-0.006060332085425034,-0.0066002385152503845
1761509308490084900,6.8010849609375,-0.0648585488796234,0.005879851818829774,-0.006629026218317449
1761509308510242800,6.821242919921875,-0.05977262391746044,-0.002597039889032021,-0.0011495810270775108
1761509308530400800,6.84140087890625,-0.08147007646262645,0.0007708747746422886,0.004141675515146926
1761509308550558700,6.861558837890625,-0.06665536916851997,-0.006246648437762632,-0.0053614265684504055
1761509308570717000,6.881717041015625,-0.06202011058330536,0.005360312323598191,-0.005993997984100133
1761509308590873600,6.90187353515625,-0.05468786799907684,0.003112916989298537,-0.004101179107977077
1761509308611031800,6.92203173828125,-0.05603402191102504,0.0018322569284588098,-0.013373075384739785
1761509308631189800,6.942189697265625,-0.06291793620586394,-0.007975965581554919,-0.004875031290994957
1761509308651348000,6.962347900390625,-0.0650111090928316,0.0019005181253887711,-0.005048707357468083
1761509308671506000,6.982505859375,-0.06306523572206497,0.0010585508759133517,-0.009433717508660629
1761509308691663600,7.00266357421875,-0.05408697949647903,0.003440020918659866,-0.008963862374052405
1761509308711821800,7.02282177734375,-0.07039864735007285,-0.0007359587248880416,0.001839846579870209
1761509308731979800,7.042979736328125,-0.062168579143285746,0.004400043323542923,-0.0030516061229631302
1761509308752138000,7.063137939453125,-0.06830372089743614,0.005346420795563608,-0.00017349340338259934
1761509308772295700,7.083295654296875,-0.056633156847953794,-0.0023972156011499465,0.0002723598011303693
1761509308792454000,7.103453857421875,-0.05677987184226513,0.0035012769860681145,-0.002238682304881513
1761509308812611800,7.12361181640625,-0.06710486650168895,0.00838059172653593,-0.010557588705746456
1761509308832769800,7.143769775390625,-0.06142039112448692,-0.003967542790947482,-0.0011511610628105698
1761509308852928000,7.163927978515625,-0.05902560494244098,0.006831974045047536,0.0023836072009056804
1761509308873085700,7.184085693359375,-0.06471300292909145,-0.001622258306434378,-0.005029710396053269
1761509308893244000,7.204243896484375,-0.05603460643291473,0.0023630302037578074,-0.00393606994044967
1761509308913401900,7.22440185546875,-0.054688452520966525,-0.0025327150817029175,-0.005812467404734343
1761509308933559800,7.244559814453125,-0.054387423747777934,0.004182929974142462,0.00011370777385309338
1761509308953722000,7.26472216796875,-0.056930093967914576,-0.004955138189345598,0.0017415647040121256
1761509308973880000,7.284880126953125,-0.06396306134462357,0.000947656113654375,-0.008203600324969739
1761509308994037000,7.305037109375,-0.049748073509335515,0.009087013829685747,-0.007493324030609801
1761509309014195000,7.32519482421875,-0.0694990681618452,-0.00047116117570549247,0.004093845184892416
1761509309034353000,7.345352783203125,-0.06485971792340278,0.006609992724284529,-0.0032712950219400223
1761509309054511000,7.365510986328125,-0.06067220310568809,-0.0017568079389166085,-0.004615832365537062
1761509309074668800,7.385668701171875,-0.06725391958355903,0.007517344227014109,-0.008523443396482616
1761509309094827000,7.405826904296875,-0.05707563991844654,0.0008497030313592403,-0.007270940851047634
1761509309114985000,7.42598486328125,-0.06096446405053138,0.00629929194045253,0.005448209802759811
1761509309135143200,7.44614306640625,-0.05602350051701069,0.003205700706131756,-0.003589393660938367
1761509309155301000,7.466301025390625,-0.06216331844627857,-0.0000668546911329031,-0.009898074484243988
1761509309175458800,7.486458740234375,-0.055581017446517944,0.00023543445738032458,-0.010543998571811243
1761509309195617000,7.506616943359375,-0.06515665504336357,0.002709386822860688,-0.0007177928805351257
1761509309215775000,7.52677490234375,-0.05123918884992599,0.0003464570838026702,0.003327527854358777
1761509309235933200,7.54693310546875,-0.06889701061546802,-0.0007361596542876214,-0.003925265418644994
1761509309256091000,7.5670908203125,-0.05797521910667419,0.00557582737095654,-0.016993037713877855
1761509309276248800,7.587248779296875,-0.053337037912011144,-0.0010743329669348895,-0.008491166828386486
1761509309296407000,7.607406982421875,-0.0675520257472992,0.007885108960326761,-0.002287243287498131
1761509309316565000,7.62756494140625,-0.05213935256004333,0.0048404714342672375,-0.0020491876147687433
1761509309336723200,7.64772314453125,-0.06904957082867622,0.006278450081823393,-0.006581661678943783
1761509309356880000,7.6678798828125,-0.06665478464663029,0.00036696101571433246,-0.004175075461249798
1761509309377038000,7.6880380859375,-0.05677870279848575,0.00360463689584285,-0.007229348465334623
1761509309397196000,7.708196044921875,-0.06396072325706481,0.01338052803883329,-0.005327898758184164
1761509309417354000,7.72835400390625,-0.054982467031478875,0.002122937837569043,0.0031259682671166953
1761509309437512000,7.748511962890625,-0.0714466950982809,0.0009555288928560912,-0.009054655063198878
1761509309457670000,7.768669921875,-0.06007248364686966,-0.0016361315681599079,-0.00647453890950419
1761509309477828000,7.788828125,-0.05288812510073185,0.007124454185599461,-0.0043917595523875206
1761509309497986000,7.808986083984375,-0.062463178175687785,0.005480522903474047,0.008860840390995144
1761509309518144000,7.82914404296875,-0.0712894587099552,-0.001593534535448998,-0.003692625706549734
1761509309538302000,7.849302001953125,-0.06530512360334396,0.0062130566954147065,-0.016861629886552692
1761509309558460000,7.8694599609375,-0.06395721612572669,0.0005203980117570609,-0.006564244753262028
1761509309578618000,7.8896181640625,-0.059470426100492475,0.002475715064303949,-0.01093792065968737
1761509309598776000,7.909776123046875,-0.056176060730218885,-0.0009333718599751591,0.0024540877543855455
1761509309618934000,7.92993408203125,-0.06485387270450592,0.001079680428910069,-0.006333669134089723
1761509309639092000,7.950092041015625,-0.06515373243391513,0.005180754505610093,-0.009958682097680867
1761509309659250000,7.97025,-0.05497895990014076,0.0019570477853296324,0.004872939798608422
1761509309679408000,7.990408203125,-0.05886836855411529,0.006757876762375235,-0.005582768568396568
1761509309699564000,8.01056396484375,-0.05827157170474529,0.005151848071534186,-0.00018989654891192912
1761509309719722000,8.030721923828125,-0.06635258682966232,0.002722766894241795,-0.0024500417669303712
1761509309739880200,8.050880126953125,-0.06081248835921287,0.005822481908672489,-0.0015484258852433413
1761509309760036900,8.071036865234374,-0.061707975894212716,-0.002892456338764168,-0.006057774802157655
1761509309780195000,8.091195068359376,-0.05602466956079006,0.0049048145079053935,-0.009492398026492446
1761509309800353000,8.11135302734375,-0.06275777720808982,0.006719060855638235,-0.011770809553563594
1761509309820511000,8.131510986328125,-0.052582420152425764,-0.004038534801080823,-0.003213902278896421
1761509309840669000,8.1516689453125,-0.06290975289940834,0.00022386731717269866,-0.00532490308349952
1761509309860827000,8.171826904296875,-0.058719315472245216,0.0017383726665051653,-0.007733507728343829
1761509309880985000,8.191985107421875,-0.061412207818031306,0.013663016508333384,-0.00787747364314273
1761509309901143000,8.21214306640625,-0.06156242994368076,0.001038941993145272,-0.0029084165262989697
1761509309921301000,8.232301025390624,-0.06126373925805091,0.005614593045343645,0.00665654441290535
1761509309941455000,8.252455078125,-0.04929390000104904,0.0006919688861118629,-0.011455962317576632
1761509309961613000,8.272613037109375,-0.05707447087466717,0.008130736018158495,-0.0021818375511094925
1761509309981771000,8.29277099609375,-0.060519058370590205,0.011791770143201574,0.003613797449832782
1761509310001929000,8.312928955078124,-0.058573184999823565,0.0032504120641155165,0.00008914872133173048
1761509310022087200,8.333087158203124,-0.062167994621396064,0.0012788471296662463,0.00029928434067405757
1761509310042245000,8.3532451171875,-0.06860474967062473,0.010118973526195622,-0.011382915347674862
1761509310062402000,8.373402099609375,-0.061871057501435275,0.0013205399800790473,-0.008200659449212253
1761509310082560000,8.39356005859375,-0.06202127962708473,0.008798054520203732,-0.000049830491095781326
1761509310102719000,8.413718994140625,-0.06516542287170887,0.006389938499126583,-0.00646114057181403
1761509310122877200,8.433877197265625,-0.0591816722869873,0.000010822788113728166,0.00074114635665901
1761509310143035100,8.45403515625,-0.06621639322936534,0.010097643043799325,-0.011095979031920432
1761509310163193000,8.474193115234375,-0.06471767910420895,-0.000781546865706332,0.00016899989135563373
1761509310183351000,8.49435107421875,-0.06202478675842285,0.011837828641477971,-0.0021206819484010336
1761509310203509000,8.514509033203124,-0.0555915388405323,0.004478583885892294,0.0059664341237396
1761509310223667200,8.534667236328126,-0.06905716961324214,0.0030991852914681655,0.0018059351771138607
1761509310243825200,8.5548251953125,-0.06666238343119621,0.0073031991528347134,0.003849341505067423
1761509310263983000,8.574983154296875,-0.06681202103495597,0.007478720116522163,-0.010040780023718252
1761509310284141000,8.59514111328125,-0.06636018561422824,0.010027171623473986,0.006592192206112668
1761509310304299000,8.615299072265625,-0.06456102723777293,0.004448508408037014,0.001200726692425087
1761509310324456000,8.6354560546875,-0.06261456934511661,0.007065622970717959,-0.0031868407420348375
1761509310344614100,8.6556142578125,-0.07009411144554614,0.00426894145689439,-0.0017661146233789622
1761509310364772000,8.675772216796876,-0.051237435284256935,0.007071687385323457,0.0013341803463641554
1761509310384930000,8.695929931640626,-0.0705406861692667,0.00442921005252283,-0.0018937139252666383
1761509310405088300,8.716088134765625,-0.057822074371576306,0.00814593815386761,-0.0013481540727894752
1761509310425246000,8.736245849609375,-0.06320727454125881,0.008604902001703158,-0.001915551297739148
1761509310445404200,8.756404052734375,-0.059463411837816234,0.005093304551020264,-0.008424458267726004
1761509310465562000,8.77656201171875,-0.06918927156031131,0.0015339087361237033,-0.005581690856162458
1761509310485720000,8.796719970703125,-0.04794190087020397,0.003615487083420157,-0.003096943102031946
1761509310505878000,8.8168779296875,-0.05347790768742561,0.0045646867001894855,-0.004907645785808563
1761509310526036000,8.837035888671876,-0.06126081664860248,-0.00038291207009460775,0.003967889850819483
1761509310546194200,8.857194091796876,-0.053631052422523494,0.0036474394245306027,-0.0012393325366079806
1761509310566352100,8.87735205078125,-0.06216156488060951,0.010370308805606328,0.0002520202660001814
1761509310586510000,8.897510009765625,-0.06335749666690826,0.007478569419472478,0.0018242471519391982
1761509310606667000,8.9176669921875,-0.06350713427066802,0.0010738443431677297,-0.005011243157600984
1761509310626825200,8.9378251953125,-0.06664660134017467,0.009744126031547784,-0.0028596728805918245
1761509310646983200,8.957983154296874,-0.06589899784326553,0.008829728300101123,-0.0023118936715647576
1761509310667140900,8.978140869140624,-0.0621574732273817,0.010987458889838307,-0.005732351373229175
1761509310687299000,8.998299072265626,-0.06305646789371967,0.0035123783353948963,-0.006488147309748456
1761509310707457000,9.01845703125,-0.06500117222070693,0.00763723057990428,-0.0007546999579761177
1761509310727615200,9.038615234375,-0.05886603046655654,0.009533661618642508,-0.007565265888813883
1761509310747773200,9.058773193359375,-0.06440262180566787,0.008815960069652646,0.001887960037915036
1761509310767931000,9.078930908203125,-0.06245616391301155,0.005602879774663597,-0.00017426972151733935
1761509310788089000,9.099089111328125,-0.06425181515812874,0.0032416442357702177,0.007683010516967624
1761509310808247000,9.1192470703125,-0.06365326474308967,0.004932355535379611,-0.000058625718904659146
1761509310828405200,9.1394052734375,-0.05931377423405647,0.006720165967335924,-0.0062169839518610385
1761509310848562000,9.15956201171875,-0.059313189712166786,0.0018630950247170402,0.0018522494037169963
1761509310868720000,9.17972021484375,-0.05138005862534046,-0.00026092965824063867,-0.0015468823821283876
1761509310888878000,9.199878173828125,-0.06305237624049187,0.009578729169652796,0.00728582789292559
1761509310909036000,9.2200361328125,-0.07188391747176646,0.004687326699169352,-0.0021834906520787627
1761509310929194000,9.240194091796875,-0.05662146641016006,0.003975009144772775,-0.0018612272946164012
1761509310949352000,9.26035205078125,-0.05931377423405647,0.006882996412809006,-0.00676715604737401
1761509310969510100,9.28051025390625,-0.05601940886378288,0.015924326203553937,-0.008453894424764439
1761509310989668000,9.300668212890624,-0.06185644445419311,0.005794429424544796,0.0008519223879091441
1761509311009826300,9.320826416015626,-0.06604629735946654,0.011061948898155241,-0.004514774010702967
1761509311029984300,9.340984375,-0.058712301209568975,0.007748550033848732,0.002879848018940538
1761509311050142000,9.361141845703125,-0.0639478637754917,0.002265026889112778,-0.0028151578854303805
1761509311070300200,9.381300048828125,-0.05496668494045734,0.006691300632455386,-0.006279080269485712
1761509311090457000,9.40145703125,-0.05780979941189289,0.005399945647665299,-0.00518441690057516
1761509311110615000,9.421614990234374,-0.0628980624616146,0.007802152517763897,-0.003478754627006128
1761509311130773000,9.44177294921875,-0.06304945363104343,0.005769646609737537,-0.0071101881982292975
1761509311150931200,9.46193115234375,-0.06678980920314788,0.01746706213352736,0.00062685406091623
1761509311171089200,9.482089111328126,-0.059905310386419296,0.0069191317386925215,-0.009901718612900004
1761509311191247000,9.5022470703125,-0.05811141270697116,0.008403515944397076,-0.000003653261810541153
1761509311211405000,9.522405029296875,-0.06469663631618022,0.011584972691838629,-0.0003719294517766684
1761509311231563000,9.54256298828125,-0.05886076976954937,0.0053892644234467295,0.001960075426055118
1761509311251721200,9.56272119140625,-0.05990823299586773,0.0014784293889533728,-0.012279845921089872
1761509311271879200,9.582879150390625,-0.07217617841660975,0.01270032265575137,-0.006693351025646552
1761509311292037000,9.603037109375,-0.061548985940217966,-0.0037819890570128336,-0.004988492469675839
1761509311312195000,9.623195068359376,-0.0578092148900032,0.0015494716314366087,0.0005220693790353834
1761509311332352300,9.643352294921876,-0.044191608425974846,0.004299962216243148,0.0022968057002872226
1761509311352510200,9.66351025390625,-0.06394435664415359,0.008841131043527274,-0.0029525205295067277
1761509311372668000,9.68366796875,-0.055414428707957264,0.006942909906501881,-0.0027334892176557333
1761509311392826000,9.703826171875,-0.0646931291848421,0.003150545585947111,-0.009646556541742757
1761509311412984000,9.723984130859375,-0.06274433320462704,0.0033800434928853065,-0.0032722357368562367
1761509311433142300,9.744142333984374,-0.07231997080147266,-0.0001518706600414589,-0.002598647324228659
1761509311453300200,9.76430029296875,-0.07112520805895328,0.013473530951375141,-0.0003568506136536598
1761509311473458200,9.784458251953126,-0.05735913303494453,-0.002110018990491517,0.011485480673005803
1761509311493616000,9.8046162109375,-0.06185001471340656,0.013285593464109114,-0.009560147766768931
1761509311513774000,9.824774169921875,-0.05092471607327461,0.000015818623639643192,-0.0007693769372999668
1761509311533932300,9.844932373046875,-0.06708382371366024,0.004799390505207703,-0.005456109981425106
1761509311554089000,9.8650888671875,-0.05975567278265953,0.0058329119711415835,0.001100956112379208
1761509311574247200,9.8852470703125,-0.04927928695380687,-0.0014313205779064445,0.0006765566878486424
1761509311594405000,9.905405029296874,-0.05286942040026187,0.005389757613791153,-0.0010176617430988698
1761509311614563300,9.925563232421876,-0.06469137561917304,0.007267698581190779,0.00031818997054360807
1761509311634721000,9.945720947265626,-0.052124154990911484,0.005299814308015629,-0.004531916941748932
1761509311654879000,9.96587890625,-0.06125263334214687,0.005469649883010424,0.001751099717337638
1761509311675037200,9.986037109375,-0.06738835961818694,0.0021011369977146387,0.0014465181470382958
1761509311695195100,10.006195068359375,-0.0687368516176939,0.0022470574075821787,0.00840410959944129
1761509311715353000,10.02635302734375,-0.05796586675643921,0.005411005897796713,-0.00545026476252824
1761509311735511000,10.046510986328125,-0.056468321675062175,0.010232516903267241,-0.004513942893641069
1761509311755669000,10.0666689453125,-0.054072950971126556,0.004353482501767575,0.0010887724842410533
1761509311775826200,10.086826171875,-0.06484802748560906,0.01161493400526233,0.0070101618898566805
1761509311795984100,10.106984130859376,-0.05766834511458874,0.007557676237402483,-0.0005783844098448753
1761509311816142000,10.12714208984375,-0.06155950733423233,0.004792750701867044,0.0021079959967639297
1761509311836300000,10.147300048828125,-0.051982700693607324,0.003368645316036418,-0.0015061393797863275
1761509311856458200,10.167458251953125,-0.06455342845320701,-0.003685017788829282,-0.006670728201884776
1761509311876616000,10.187615966796875,-0.05662555806338787,0.011968131357105448,-0.003195946497097611
1761509311896774100,10.207774169921874,-0.054831075862050056,-0.003080202029785141,0.0007462791895028203
1761509311916932000,10.22793212890625,-0.06036416006982326,0.00911661895008292,-0.006469963199086487
1761509311937090000,10.248090087890626,-0.05767009868025779,0.0060502353830961505,-0.004176618964364752
1761509311957248500,10.26824853515625,-0.07966974904239177,-0.004630016154516488,-0.008372609349479898
1761509311977406200,10.28840625,-0.07607786203026771,0.014758871753909624,0.011949426656635478
1761509311997563400,10.3085634765625,-0.05512742846012115,-0.004766684678848832,-0.001716338931210339
1761509312017721300,10.328721435546875,-0.06904372560977935,-0.0004040096570504829,0.0014750957875512539
1761509312037879600,10.348879638671875,0.07553659476041794,0.02661619968030136,-0.013747689983947202
1761509312058037200,10.369037353515624,0.08903729684650898,-0.030906585784023624,-0.013135686432290822
1761509312078195500,10.389195556640624,-0.20137363621592522,0.05184132402811665,0.030160288328211753
1761509312098353400,10.409353515625,-0.07207271804213523,0.006057939198939129,-0.0008988485358655452
1761509312118511400,10.429511474609376,-0.052777065941691396,0.0074463613500352945,-0.0035730270480271425
1761509312138669300,10.44966943359375,-0.09636369421184063,0.019807314249896443,0.00671581858578138
1761509312158827300,10.4698271484375,-0.057525721773505206,0.0170600979009876,-0.010198518735542892
1761509312178985500,10.4899853515625,-0.022677695754170415,-0.012483410235750489,-0.02674079874092713
