time,seconds_elapsed,z,y,x
1761509301797628700,0.108628662109375,0.0006476170383393764,-0.001406666822731495,-0.000822214875370264
1761509301817787600,0.12878759765625,-0.00021317286882549524,0.0008790921419858932,0.0027106767520308495
1761509301837945600,0.148945556640625,0.000927578192204237,-0.000725538469851017,-0.0018888190388679504
1761509301858103600,0.169103515625,0.0035982131958007812,0.001404542475938797,-0.00007588439621031284
1761509301878261500,0.189261474609375,0.002770818304270506,-0.0007906155660748482,-0.0018259931821376085
1761509301898419700,0.209419677734375,0.0015899899881333113,-0.0007162271067500114,-0.00039974995888769627
1761509301918577700,0.22957763671875,-0.00044133805204182863,0.0009574098512530327,0.00016138306818902493
1761509301938736600,0.249736572265625,-0.0019917204044759274,0.0012461915612220764,0.0011478452943265438
1761509301958894800,0.269894775390625,0.001506685744971037,-0.0004459274932742119,0.0005817203782498837
1761509301979052800,0.290052734375,0.0018013149965554476,0.0016345838084816933,-0.0016888396348804235
1761509301999210800,0.310210693359375,0.0007932190783321857,0.0020200544968247414,0.001061424845829606
1761509302019368700,0.33036865234375,0.0026149642653763294,0.0011226432397961617,-0.0004020347259938717
1761509302039526700,0.350526611328125,0.0003151772543787956,-0.0005062427371740341,0.0017750731203705072
1761509302059684900,0.370684814453125,0.00005070585757493973,-0.0012453431263566017,0.0013245190493762493
1761509302079842800,0.3908427734375,0.0027466791216284037,0.0027043158188462257,0.00009206007234752178
1761509302100000800,0.411000732421875,0.0022628873120993376,-0.0011889589950442314,0.0004419996403157711
1761509302120158700,0.43115869140625,-0.0009390526684001088,-0.00030694156885147095,0.0005894603673368692
1761509302140316700,0.451316650390625,0.0012326531577855349,0.000795501284301281,-0.0011444571428000927
1761509302160475000,0.471474853515625,-0.0016629595775157213,0.0029541514813899994,0.0029181865975260735
1761509302180632800,0.4916328125,-0.001406908966600895,-0.0009554950520396233,0.0012142902705818415
1761509302200790500,0.51179052734375,0.00034524407237768173,-0.0006068479269742966,-0.0030775086488574743
1761509302220948700,0.53194873046875,0.0014631827361881733,0.001773817464709282,-0.0008606475312262774
1761509302241107700,0.552107666015625,0.0030343791004270315,0.0009171748533844948,-0.003056931309401989
1761509302261265700,0.572265625,-0.0002703288337215781,0.00023626349866390228,-0.002459990791976452
1761509302281424000,0.592423828125,0.0011582663282752037,-0.0006156200543045998,0.002598806982859969
1761509302301581800,0.612581787109375,-0.0021994581911712885,0.00010924413800239563,-0.00015040556900203228
1761509302321739800,0.63273974609375,-0.002276872517541051,0.0011368291452527046,0.0001419705804437399
1761509302341897700,0.652897705078125,-0.0000180024653673172,0.0014898059889674187,-0.0000936978030949831
1761509302362055700,0.6730556640625,-0.00034135906025767326,0.0010792035609483719,0.0016818824224174023
1761509302382214000,0.6932138671875,0.0007832762785255909,0.0014248630031943321,0.0006223360542207956
1761509302402371600,0.71337158203125,0.00046533183194696903,0.00029734987765550613,0.00028659775853157043
1761509302422529800,0.73352978515625,0.0007035410962998867,-0.0008030300959944725,-0.0009993361309170723
1761509302442687700,0.753687744140625,0.0003022293094545603,-0.0003571687266230583,-0.0010610094759613276
1761509302462845700,0.773845703125,-0.00005733175203204155,-0.0010802308097481728,0.0001371812541037798
1761509302483004000,0.79400390625,0.0013453483115881681,0.001871710643172264,-0.0010356816928833723
1761509302503161600,0.81416162109375,0.00016762129962444305,-0.0016005467623472214,-0.0012490965891629457
1761509302523319800,0.83431982421875,-0.003330761566758156,-0.0016721291467547417,-0.0017324627842754126
1761509302543477800,0.854477783203125,0.00047797150909900665,-0.0006630318239331245,0.0006108125671744347
1761509302563635700,0.8746357421875,-0.00021894031669944525,-0.00015503540635108948,0.0007084205280989408
1761509302583793700,0.894793701171875,-0.0008422795217484236,-0.00015102047473192215,-0.001272555673494935
1761509302603951600,0.91495166015625,-0.0006252492312341928,0.000012255273759365082,-0.0022992934100329876
1761509302624109800,0.93510986328125,-0.0003479857696220279,0.0003464343026280403,0.0007359720766544342
1761509302644267800,0.955267822265625,0.000716132577508688,0.00011743325740098953,-0.0001523955725133419
1761509302664425700,0.97542578125,-0.0012503343168646097,-0.0005824770778417587,-0.0011694186832755804
1761509302684583700,0.995583740234375,-0.0026444471441209316,0.0015305830165743828,-0.001803108025342226
1761509302704741600,1.01574169921875,-0.0010099731152877212,-0.0015853885561227798,0.0006077585276216269
1761509302724899800,1.03589990234375,0.0013187641743570566,0.0005607698112726212,0.00030327425338327885
1761509302745057800,1.056057861328125,0.0009911470115184784,0.00023928750306367874,0.001149453455582261
1761509302765215700,1.0762158203125,0.0009357759263366461,0.0002697138115763664,-0.0018496906850486994
1761509302785373700,1.096373779296875,-0.002807902405038476,-0.0013754861429333687,-0.0005814069882035255
1761509302805531600,1.11653173828125,0.0033935285173356533,-0.0018396824598312378,0.00014699087478220463
1761509302825689900,1.13668994140625,-0.001583267468959093,0.0011900877580046654,0.0020430833101272583
1761509302845847800,1.156847900390625,-0.0013380538439378142,-0.00006903335452079773,0.0010536694899201393
1761509302866006800,1.1770068359375,0.0004663781728595495,0.0002225162461400032,-0.0006890145596116781
1761509302886164700,1.197164794921875,-0.0016147715505212545,-0.00012626126408576965,0.0005754430312663317
1761509302906322700,1.21732275390625,0.002612558426335454,-0.0011194469407200813,-0.001456765690818429
1761509302926481000,1.23748095703125,0.0018557815346866846,-0.0008248630911111832,0.00017008371651172638
1761509302946641700,1.2576416015625,-0.0023504237178713083,-0.0004605082795023918,0.0002474964130669832
1761509302966799600,1.277799560546875,0.0010649999603629112,0.001896752044558525,0.000009385868906974792
1761509302986957600,1.29795751953125,0.0002862799447029829,-0.0009042788296937943,0.0009369519539177418
1761509303007115500,1.318115478515625,0.0007264423184096813,0.0019632475450634956,-0.000115581089630723
1761509303027273700,1.338273681640625,0.0006588778924196959,-0.00024866312742233276,-0.0010356309358030558
1761509303047431700,1.358431640625,-0.00032956141512840986,0.0003163237124681473,0.00012762285768985748
1761509303067589600,1.378589599609375,-0.0012936698039993644,-0.00044416356831789017,-0.0017647556960582733
1761509303087747600,1.39874755859375,0.00007624481804668903,0.0007379045709967613,-0.0021822594571858644
1761509303107905500,1.418905517578125,0.0014657487627118826,-0.0018868213519454002,-0.003929733298718929
1761509303128063700,1.439063720703125,0.0005770009011030197,0.0006380537524819374,0.002670791931450367
1761509303148221700,1.4592216796875,0.0015006253961473703,0.0022423705086112022,-0.0004136841744184494
1761509303168379600,1.479379638671875,-0.0017870392184704542,0.00043303053826093674,-0.0015752296894788742
1761509303188537600,1.49953759765625,-0.0013861397746950388,0.001743135042488575,0.0014157670084387064
1761509303208695600,1.519695556640625,-0.0003233812749385834,0.002286253497004509,-0.0007197724189609289
1761509303228853800,1.539853759765625,0.0011099418625235558,0.001270410604774952,0.0011341865174472332
1761509303249011500,1.560011474609375,-0.002636723220348358,-0.0020662909373641014,-0.001645862590521574
1761509303269169700,1.580169677734375,0.002712416695430875,0.001595333218574524,-0.0010309519711881876
1761509303289327600,1.60032763671875,0.0014672442339360714,0.0019680652767419815,-0.00043894886039197445
1761509303309485600,1.620485595703125,-0.001588236540555954,0.00031118839979171753,0.0006388104520738125
1761509303329643800,1.640643798828125,-0.00039123883470892906,-0.0009268233552575111,0.00001749279908835888
1761509303349801500,1.660801513671875,-0.0010414088610559702,-0.0007810657843947411,0.00007377169094979763
1761509303369959700,1.680959716796875,-0.001349649392068386,-0.001183588057756424,0.002531828824430704
1761509303390117600,1.70111767578125,0.001528918743133545,0.00016134697943925858,-0.0014314749278128147
1761509303410275600,1.721275634765625,-0.00005594920367002487,0.0021462906152009964,-0.001816977048292756
1761509303430433500,1.74143359375,-0.00003763451240956783,-0.0013842443004250526,0.0004863138310611248
1761509303450591500,1.761591552734375,0.001346078235656023,-0.0006527407094836235,-0.0021248275879770517
1761509303470749700,1.781749755859375,-0.0029094978235661983,0.003942784853279591,0.002408808097243309
1761509303490907600,1.80190771484375,-0.0013404013589024544,0.0012947460636496544,0.0009853129740804434
1761509303511065600,1.822065673828125,-0.0007710697827860713,0.0021285265684127808,0.00010351696982979774
1761509303531223600,1.8422236328125,0.0006375391967594624,0.0003442922607064247,-0.002390321809798479
1761509303551381500,1.862381591796875,0.003055798588320613,-0.000725623220205307,-0.002580144675448537
1761509303571539700,1.882539794921875,-0.00044331594835966825,-0.0014678649604320526,0.000599471852183342
1761509303591697700,1.90269775390625,0.0005052844062447548,0.0015349844470620155,0.0025523866061121225
1761509303611855600,1.922855712890625,0.0013193662744015455,0.0014810524880886078,-0.0000842781737446785
1761509303632013600,1.943013671875,-0.001267516752704978,0.0010011158883571625,0.0007573121692985296
1761509303652171500,1.963171630859375,0.0014819072093814611,-0.001742720603942871,-0.0007739397697150707
1761509303672329700,1.983329833984375,0.00024020415730774403,0.00009461026638746262,0.0015149908140301704
1761509303692487700,2.00348779296875,0.002392549766227603,0.001097959466278553,0.0008052515331655741
1761509303712645600,2.023645751953125,-0.0010942649096250534,0.0000039227306842803955,0.0017785292584449053
1761509303732803600,2.043803466796875,-0.0014349939301609993,0.0005805958062410355,-0.002103167586028576
1761509303752961500,2.06396142578125,-0.0010601485846564174,-0.0009301686659455299,-0.002097607357427478
1761509303773119700,2.08411962890625,0.00045712385326623917,0.0013381512835621834,-0.0003410459030419588
1761509303793277400,2.10427734375,-0.0005500521510839462,-0.0005854843184351921,0.0028640187811106443
1761509303813435600,2.124435546875,0.000034768832847476006,0.0009012129157781601,0.0012436851393431425
1761509303833593600,2.144593505859375,-0.0017066880827769637,-0.00021119322627782822,-0.0006458528805524111
1761509303853752600,2.164752685546875,0.00126754492521286,-0.0013939067721366882,0.00015389639884233475
1761509303873910800,2.184910888671875,-0.002751052612438798,-0.0014484254643321037,-0.000814112601801753
1761509303894068700,2.20506884765625,0.0007274425588548183,-0.00038585904985666275,0.0020447871647775173
1761509303914226400,2.225226318359375,-0.000752766034565866,-0.0004707071930170059,0.0005892515182495117
1761509303934381000,2.245381103515625,0.0012567183002829552,-0.0016297344118356705,0.0015727670397609472
1761509303954539000,2.2655390625,0.00208078371360898,0.0030977828428149223,-0.0018165202345699072
1761509303974697200,2.285697265625,0.00006751809269189835,-0.0012175971642136574,0.0009803520515561104
1761509303994855000,2.30585498046875,-0.000048534711822867393,-0.000055021606385707855,0.002850259654223919
1761509304015012900,2.326012939453125,-0.0008715162985026836,0.0017763441428542137,0.0017009907169267535
1761509304035171000,2.346171142578125,-0.0002673148410394788,0.003293657675385475,0.0019345569889992476
1761509304055329000,2.3663291015625,0.00006154598668217659,-0.003022419288754463,-0.000986642437055707
1761509304075487000,2.386487060546875,0.0009503106120973825,-0.00039617158472537994,-0.0011000554077327251
1761509304095645000,2.40664501953125,0.0032544450368732214,0.000619545578956604,-0.00009752879850566387
1761509304115803000,2.426802978515625,-0.0013193420600146055,-0.0013000955805182457,0.0016179420053958893
1761509304135961000,2.446961181640625,-0.0009591149864718318,-0.0007394012063741684,0.003468794049695134
1761509304156119000,2.467119140625,-0.0007742440793663263,-0.0025164177641272545,0.0006584548391401768
1761509304176277000,2.487277099609375,-0.00035312760155647993,0.0008459640666842461,-0.0017058283556252718
1761509304196435000,2.50743505859375,0.002959297737106681,-0.0006979862228035927,-0.0011140417773276567
1761509304216593200,2.52759326171875,-0.000880206236615777,0.0011276472359895706,-0.00012844312004745007
1761509304236751000,2.547751220703125,-0.0006961559411138296,-0.0012847809121012688,0.00009102723561227322
1761509304256908800,2.56790869140625,-0.001638720277696848,0.0012001283466815948,0.0015108290826901793
1761509304277067000,2.58806689453125,-0.0012214567977935076,0.0015905322507023811,-0.000577534781768918
1761509304297225000,2.608224853515625,-0.000489460420794785,-0.000863928347826004,-0.0028885575011372566
1761509304317383200,2.628383056640625,-0.00018466217443346977,0.001490619033575058,0.0002984523307532072
1761509304337541000,2.648541015625,0.000937645323574543,0.001977757550776005,-0.001286946702748537
1761509304357698800,2.66869873046875,0.0005716923624277115,0.0005086036399006844,-0.002964968327432871
1761509304377857000,2.68885693359375,0.0015322430990636349,0.00059456005692482,0.0020831418223679066
1761509304398015000,2.709014892578125,-0.0006400180282071233,-0.0002532731741666794,-0.0000482283066958189
1761509304418173200,2.729173095703125,-0.0007411349797621369,0.001032690517604351,-0.0002765781246125698
1761509304438331000,2.749330810546875,-0.0020067361183464527,-0.0022380873560905457,-0.0018630919512361288
1761509304458488800,2.76948876953125,0.00030379556119441986,-0.0008591823279857635,-0.0006097108125686646
1761509304478647000,2.78964697265625,0.0012159664183855057,0.0007553882896900177,-0.0007171148899942636
1761509304498805000,2.809804931640625,-0.001600413117557764,0.0009914003312587738,-0.0005445198621600866
1761509304518963200,2.829963134765625,-0.00012849760241806507,-0.00009673740714788437,-0.0007483442313969135
1761509304539121000,2.850120849609375,-0.0014941245317459106,0.000934133306145668,0.0005816582124680281
1761509304559278800,2.87027880859375,-0.0013103706296533346,-0.00010557938367128372,0.0017493428895249963
1761509304579437000,2.89043701171875,-0.0006617454346269369,-0.00026004109531641006,-0.00018009962514042854
1761509304599595000,2.910594970703125,0.00025582732632756233,-0.0018711965531110764,0.0001827001105993986
1761509304619753000,2.9307529296875,0.0013351389206945896,-0.0004031620919704437,0.0006702542304992676
1761509304639911000,2.950910888671875,0.000594601035118103,-0.001350676640868187,-0.000023722881451249123
1761509304660068900,2.97106884765625,0.0001195794902741909,-0.000004093162715435028,0.0006210056599229574
1761509304680227000,2.99122705078125,0.002470603911206126,-0.0002323240041732788,-0.001169893192127347
1761509304700385000,3.011385009765625,0.0008787780534476042,-0.0013788463547825813,-0.00004304246976971626
1761509304720543000,3.03154296875,-0.0013106276746839285,-0.001313094049692154,0.0005072911735624075
1761509304740701000,3.051700927734375,-0.000045152148231863976,-0.0018820492550730705,0.0011586660984903574
1761509304760859100,3.071859130859375,-0.00004846369847655296,0.0012922827154397964,-0.00181254418566823
1761509304781017000,3.09201708984375,0.0015711185988038778,0.001340213231742382,-0.0023298170417547226
1761509304801174800,3.1121748046875,-0.0025451071560382843,-0.0005416488274931908,-0.00029739923775196075
1761509304821333000,3.1323330078125,-0.00044290220830589533,-0.0005985796451568604,0.0014351846184581518
1761509304841491000,3.152490966796875,-0.0010558773064985871,-0.0004241764545440674,-0.0007102706003934145
1761509304861649200,3.172649169921875,0.001092240447178483,-0.00019305571913719177,-0.00042028981260955334
1761509304881807000,3.19280712890625,0.0014266727957874537,-0.0006469041109085083,-0.0006462377496063709
1761509304901964800,3.21296484375,0.001870869193226099,0.00008293148130178452,0.0008771999273449183
1761509304922123000,3.233123046875,0.000808613607659936,-0.0002810489386320114,0.0017493203049525619
1761509304942280400,3.253280517578125,-0.001924094627611339,0.0008209412917494774,-0.000014286721125245094
1761509304962438700,3.273438720703125,-0.002244757255539298,-0.0005787257105112076,0.0005981745198369026
1761509304982596600,3.2935966796875,-0.001379223307594657,-0.0014795586466789246,0.001624390366487205
1761509305002754800,3.3137548828125,0.0002475231885910034,0.001225045882165432,-0.0002691783010959625
1761509305022912500,3.33391259765625,0.0009594254661351442,0.0013330308720469475,0.0005578554701060057
1761509305043070500,3.354070556640625,-0.00013360404409468174,-0.0006718290969729424,0.00019262288697063923
1761509305063228700,3.374228759765625,0.0004992003086954355,0.0003267107531428337,-0.0009878415148705244
1761509305083386600,3.39438671875,-0.0011136869434267282,-0.0003628777340054512,0.0017850666772574186
1761509305103544600,3.414544677734375,-0.0010908254189416766,0.000912046991288662,0.0007767677307128906
1761509305123702500,3.43470263671875,0.001254764385521412,-0.0005843443796038628,0.002881324151530862
1761509305143860500,3.454860595703125,-0.001388311036862433,-0.0009512435644865036,-0.0026593063957989216
1761509305164018700,3.475018798828125,0.001516047865152359,0.00010276678949594498,-0.000379183329641819
1761509305184176600,3.4951767578125,0.0017069983296096325,0.0005460996180772781,0.0012825590092688799
1761509305204334600,3.51533447265625,0.00006312108598649502,0.0001400494948029518,-0.0008379328064620495
1761509305224492500,3.535492431640625,-0.001605042489245534,0.0011786594986915588,-0.00005440227687358856
1761509305244650500,3.555650390625,-0.0012298315996304154,0.002830483950674534,0.0013413713313639164
1761509305264808700,3.57580859375,0.0008204737678170204,0.0021608183160424232,-0.0018732387106865644
1761509305284966400,3.59596630859375,-0.0016621765680611134,0.00023841112852096558,-0.0020843041129410267
1761509305305124600,3.61612451171875,0.0006130151450634003,-0.0017202133312821388,0.0005146041512489319
1761509305325282600,3.636282470703125,-0.00020394683815538883,-0.00010018795728683472,0.0016717691905796528
1761509305345440500,3.6564404296875,-0.0008519613184034824,-0.0008933451026678085,0.0004258695989847183
1761509305365598700,3.6765986328125,0.0005115768872201443,-0.0017633810639381409,0.00015273597091436386
1761509305385756400,3.69675634765625,-0.0007327913772314787,-0.00017249397933483124,0.0006888620555400848
1761509305405914600,3.71691455078125,-0.0010960402432829142,-0.00047576799988746643,-0.0008655150886625051
1761509305426072600,3.737072509765625,-0.0011699420865625143,0.0006244424730539322,0.0009906867053359747
1761509305446230500,3.75723046875,0.00028896378353238106,-0.0007228218019008636,0.0018546015489846468
1761509305466388500,3.777388427734375,-0.00032780226320028305,0.000237233005464077,-0.0017068644519895315
1761509305486546400,3.79754638671875,0.00009432993829250336,-0.001247628591954708,-0.00004587764851748943
1761509305506704600,3.81770458984375,-0.00030969036743044853,0.0003522159531712532,-0.001991848461329937
1761509305526862600,3.837862548828125,0.0006121639162302017,0.0008039716631174088,0.001608986989594996
1761509305547020800,3.858020751953125,-0.0002220161259174347,0.00044300220906734467,0.0009041528683155775
1761509305567178500,3.878178466796875,-0.0005062159616500139,-0.000582721084356308,0.00023780623450875282
1761509305587336400,3.89833642578125,-0.002849571406841278,0.00017243623733520508,-0.0001715493854135275
1761509305607494700,3.91849462890625,-0.0014573296066373587,-0.0011539952829480171,-0.0009205581154674292
1761509305627652600,3.938652587890625,-0.0006928349612280726,-0.00038766302168369293,0.0011055106297135353
1761509305647810600,3.958810546875,-0.00041520188096910715,0.0003897370770573616,0.0008396322373300791
1761509305667968500,3.978968505859375,-0.0006489449879154563,-0.0005570249632000923,0.0038010545540601015
1761509305688126500,3.99912646484375,0.00009496184065937996,-0.0018356628715991974,0.00017257826402783394
1761509305708281600,4.019281494140625,0.00023462087847292423,0.0012787627056241035,-0.00028904248028993607
1761509305728439600,4.039439453125,0.0008491473272442818,-0.0014084195718169212,0.0008430499583482742
1761509305748597500,4.059597412109375,-0.0025842185132205486,0.000253911130130291,0.0039422400295734406
1761509305768755700,4.079755615234375,0.00032330863177776337,0.0013499138876795769,-0.003618159331381321
1761509305788913400,4.099913330078125,-0.0006207465194165707,0.0016246968880295753,0.001750958850607276
1761509305809071600,4.120071533203125,0.003499796846881509,-0.0002735527232289314,0.0006147073581814766
1761509305829229600,4.1402294921875,-0.00244803074747324,0.000473853200674057,-0.00031062192283570766
1761509305849387500,4.160387451171875,0.0015353618655353785,0.002059550955891609,0.0012692417949438095
1761509305869545500,4.18054541015625,-0.003008520230650902,0.0000475030392408371,0.005131015088409185
1761509305889703400,4.200703369140625,-0.0021530822850763798,0.000047859735786914825,-0.0007588488515466452
1761509305909861600,4.220861572265625,-0.0010675943922251463,-0.0016688825562596321,0.00010197563096880913
1761509305930019600,4.24101953125,0.0011763190850615501,0.00149446539580822,0.0023431074805557728
1761509305950181400,4.261181396484375,-0.0010218003299087286,-0.00033271126449108124,-0.0014641068410128355
1761509305970339600,4.281339599609375,0.0012845208402723074,-0.0008940035477280617,0.00028688833117485046
1761509305990497300,4.301497314453125,0.0008765310049057007,-0.0015338286757469177,-0.0013326904736459255
1761509306010655500,4.321655517578125,-0.0003652743762359023,-0.0006860839203000069,-0.0015795775689184666
1761509306030813400,4.3418134765625,0.0004631753545254469,0.002214535139501095,-0.00010790838859975338
1761509306050971400,4.361971435546875,0.000718733761459589,0.0021890252828598022,-0.00011979392729699612
1761509306071129600,4.382129638671875,-0.0005585694452747703,-0.0016116024926304817,-0.0018213444855064154
1761509306091287300,4.402287353515625,0.00008603022433817387,-0.0019582565873861313,-0.00242908694781363
1761509306111447300,4.422447265625,0.00031606550328433514,0.00407063402235508,0.0038571981713175774
1761509306131605500,4.44260546875,-0.0016419622115790844,-0.0005278205499053001,-0.0011336563620716333
1761509306151763500,4.462763427734375,-0.0016823471523821354,-0.0009241914376616478,0.0015660168137401342
1761509306171921400,4.48292138671875,-0.0022323396988213062,-0.0013910271227359772,-0.001265043392777443
1761509306192079600,4.50307958984375,0.0008900023531168699,-0.0005471110343933105,-0.0003151027485728264
1761509306212237300,4.5232373046875,0.0010544778779149055,-0.000987849198281765,0.0006338478997349739
1761509306232395500,4.5433955078125,-0.0014111003838479519,-0.000760326161980629,0.00003229780122637749
1761509306252553500,4.563553466796875,-0.0021336262580007315,0.0022174157202243805,0.00003748317249119282
1761509306272711400,4.58371142578125,-0.00006495206616818905,0.00004082918167114258,-0.0010985506232827902
1761509306292869600,4.60386962890625,-0.0015176284359768033,0.0003694472834467888,0.0016327000921592116
1761509306313027300,4.62402734375,-0.00028421496972441673,-0.0019204402342438698,-0.001131606288254261
1761509306333185500,4.644185546875,-0.0010163079714402556,0.0002244226634502411,0.0007491842843592167
1761509306353343500,4.664343505859375,0.0010534683242440224,-0.0008695516735315323,0.0018000856507569551
1761509306373501400,4.68450146484375,-0.00045265350490808487,0.0015094522386789322,0.003609085688367486
1761509306393659400,4.704659423828125,-0.0005872892215847969,-0.000036250799894332886,-0.0010745653416961432
1761509306413817300,4.7248173828125,-0.002053133910521865,-0.0049895793199539185,0.0001873169094324112
1761509306433975600,4.7449755859375,0.0006986481603235006,-0.0014204923063516617,-0.001142475288361311
1761509306454133500,4.765133544921875,-0.00029508001171052456,0.0010679084807634354,0.00031504733487963676
1761509306474291500,4.78529150390625,-0.001663037110120058,0.001694701611995697,-0.0004707153420895338
1761509306494449400,4.805449462890625,0.0019265753217041492,0.0022195549681782722,0.001486651599407196
1761509306514607400,4.825607421875,-0.0004184942226856947,0.0010230671614408493,-0.00019928347319364548
1761509306534765600,4.845765625,-0.001446423353627324,-0.000412491150200367,0.0012628838885575533
1761509306554923500,4.865923583984375,0.0013833078555762768,0.002180272713303566,0.001319916220381856
1761509306575081500,4.88608154296875,-0.00106171949300915,0.000073995441198349,-0.0020186773035675287
1761509306595239400,4.906239501953125,0.0006724726408720016,-0.0019209617748856544,-0.0004062086809426546
1761509306615397400,4.9263974609375,0.002502699615433812,0.0008789291605353355,-0.0002212186809629202
1761509306635555600,4.9465556640625,-0.001044228207319975,0.0025808587670326233,0.0011169305071234703
1761509306655713500,4.966713623046875,-0.0015693397726863623,0.00001089833676815033,-0.0017469413578510284
1761509306675871500,4.98687158203125,0.0002056604716926813,0.0009531667456030846,0.0018496623961254954
1761509306696029400,5.007029541015625,-0.00010288623161613941,0.0006404062733054161,-0.0011682584881782532
1761509306716187400,5.0271875,0.0012652799487113953,0.0011677220463752747,-0.00013382057659327984
1761509306736344300,5.04734423828125,-0.0016250191256403923,0.0005811993032693863,0.0008345986716449261
1761509306756502300,5.067502197265625,0.0013112265150994062,0.0005670348182320595,0.0027205324731767178
1761509306776660500,5.087660400390625,-0.0028287479653954506,-0.0008223727345466614,0.0013391610700637102
1761509306796818400,5.107818359375,-0.0027723475359380245,-0.00048013031482696533,0.001694503240287304
1761509306816976600,5.1279765625,-0.0023794721346348524,0.0021297214552760124,-0.002146160928532481
1761509306837134300,5.14813427734375,-0.0013877658639103174,0.0013943109661340714,0.0014778787735849619
1761509306857292300,5.168292236328125,0.0023127959575504065,-0.0009986991062760353,0.0005060576368123293
1761509306877450500,5.188450439453125,0.0006821365095674992,-0.00030720047652721405,-0.0007614281494170427
1761509306897608400,5.2086083984375,0.002402807120233774,-0.00022143777459859848,-0.0014263058546930552
1761509306917766700,5.2287666015625,-0.0011765126837417483,-0.000387413427233696,0.0009647293481975794
1761509306937921300,5.24892138671875,-0.00005231774412095547,0.00042714737355709076,0.0007140554953366518
1761509306958079200,5.269079345703125,-0.00029344321228563786,0.0016421908512711525,-0.0004826863296329975
1761509306978237400,5.289237548828125,-0.00041559222154319286,-0.0010294262319803238,-0.001368168042972684
1761509306998395400,5.3093955078125,-0.0005699191242456436,0.0012335693463683128,0.0016912460559979081
1761509307018553300,5.32955322265625,0.00355356908403337,-0.0003735097125172615,-0.00012258626520633698
1761509307038711300,5.349711181640625,0.0012948261573910713,-0.00019574444741010666,0.0012863646261394024
1761509307058869200,5.369869140625,3.259629011154175e-8,-0.0008176630362868309,0.0025394042022526264
1761509307079027500,5.39002734375,-0.0038437654729932547,0.0008282540366053581,0.0005658429581671953
1761509307099185200,5.41018505859375,0.0001469471026211977,0.000023126602172851562,0.0006988549139350653
1761509307119343400,5.43034326171875,0.0003941715694963932,0.0007483912631869316,-0.0003492841497063637
1761509307139501300,5.450501220703125,0.0008833990432322025,-0.0009511560201644897,-0.0019716317765414715
1761509307159659300,5.4706591796875,0.0016463352367281914,0.00202263705432415,0.0037156171165406704
1761509307179817500,5.4908173828125,-0.0004453717265278101,-0.00009720586240291595,0.00021878397092223167
1761509307199975200,5.51097509765625,-0.0013098319759592414,-0.00018926337361335754,0.0015635914169251919
1761509307220133400,5.53113330078125,-0.0025546993128955364,-0.0002704635262489319,-0.0011722380295395851
1761509307240291300,5.551291259765625,-0.00004669209010899067,0.00038629211485385895,0.0027362587861716747
1761509307260449500,5.571449462890625,0.0027141959872096777,0.0004763025790452957,-0.0001569224987179041
1761509307280607200,5.591607177734375,-0.0000854663085192442,0.0018742913380265236,-0.0032040535006672144
1761509307300765200,5.61176513671875,0.0020150342024862766,-0.0017208941280841827,0.000966366846114397
1761509307320923400,5.63192333984375,0.00009814463555812836,-0.000010388903319835663,-0.0005807415582239628
1761509307341081300,5.652081298828125,-0.0016204220009967685,-0.00017101503908634186,0.0026839529164135456
1761509307361239600,5.672239501953125,-0.0023651006631553173,-0.0005721636116504669,0.0013909370172768831
1761509307381397200,5.692397216796875,0.0007584323175251484,-0.0009101973846554756,-0.0010251796338707209
1761509307401555200,5.71255517578125,-0.0012048969510942698,0.0016186460852622986,0.0023308261297643185
1761509307421713400,5.73271337890625,0.0014319242909550667,-0.0006876848638057709,-0.0004174520727247
1761509307441871400,5.752871337890625,-0.001153566874563694,0.000506402924656868,0.0011225927155464888
1761509307462029300,5.773029296875,-0.0034364513121545315,-0.00023132190108299255,0.001795412739738822
1761509307482187300,5.793187255859375,-0.0011464232811704278,-0.001455920748412609,-0.0030151931568980217
1761509307502345200,5.81334521484375,0.000016890233382582664,-0.0017580296844244003,-0.000919554615393281
1761509307522502400,5.83350244140625,0.0022796003613620996,0.0013166051357984543,-0.0007840089965611696
1761509307542660400,5.853660400390625,0.00042127445340156555,0.0007062749937176704,0.0013024320360273123
1761509307562818300,5.873818359375,0.0006213814485818148,-0.002756621688604355,-0.0024577886797487736
1761509307582976300,5.893976318359375,-0.0010754158720374107,-0.0006640972569584846,0.00023767282254993916
1761509307603134500,5.914134521484375,0.00017363415099680424,0.000973578542470932,0.00009838188998401165
1761509307623292400,5.93429248046875,-0.0014024535194039345,0.0016630897298455238,-0.0016389433294534683
1761509307643450400,5.954450439453125,-0.0012624929659068584,-0.0021784426644444466,-0.0005160737782716751
1761509307663608300,5.9746083984375,0.0005214842967689037,-0.000558207742869854,0.0022052167914807796
1761509307683766300,5.994766357421875,0.002388791646808386,-0.0017008287832140923,-0.00036586890928447247
1761509307703924500,6.014924560546875,-0.002730021486058831,0.00019280239939689636,0.000009273644536733627
1761509307724082200,6.035082275390625,-0.0031952604185789824,-0.0008544120937585831,-0.0005821052473038435
1761509307744240400,6.055240478515625,-0.002117859898135066,0.002018723636865616,0.0005544060841202736
1761509307764398300,6.0753984375,0.0003821444697678089,-0.0016246344894170761,0.0023618508130311966
1761509307784556300,6.095556396484375,0.0025431697722524405,0.001270676963031292,0.0017669518711045384
1761509307804714500,6.115714599609375,-0.0006217664340510964,0.0003099832683801651,0.0002680544275790453
1761509307824872200,6.1358720703125,0.00010465946979820728,-0.0006405860185623169,0.0003531577531248331
1761509307845030400,6.156030517578125,0.0028053512796759605,-0.0016984734684228897,-0.00034870882518589497
1761509307865188400,6.176188232421875,0.0005452602636069059,-0.0031936289742588997,-0.00008990010246634483
1761509307885346300,6.19634619140625,0.0009146695956587791,0.0005769124254584312,-0.0026496248319745064
1761509307905504300,6.216504150390625,-0.0010090434225276113,0.0005994727835059166,-0.0012633840087801218
1761509307925662200,6.236662109375,0.0012361714616417885,-0.002010655589401722,0.000846692593768239
1761509307945820000,6.25681982421875,-0.002416057977825403,0.0014621466398239136,0.0005519350524991751
1761509307965977900,6.276977783203125,0.0022199214436113834,-0.00039304979145526886,-0.0007291340734809637
1761509307986135800,6.2971357421875,0.0015446224715560675,-0.0023497259244322777,0.0002155122347176075
1761509308006293800,6.317293701171875,0.0010572858154773712,0.0006415946409106255,-0.0012886917684227228
1761509308026451700,6.33745166015625,0.00029399734921753407,0.0006622476503252983,-0.0008253199048340321
1761509308046610000,6.35760986328125,-0.001658736728131771,-0.0007516434416174889,0.000193451764062047
1761509308066768000,6.377767822265625,0.0014012034516781569,0.0017388341948390007,0.001324107637628913
1761509308086925800,6.39792578125,0.001004957128316164,-0.0005944427102804184,0.001914931577630341
1761509308107082800,6.418082763671875,0.0007795395795255899,-0.0000740615651011467,0.00004278053529560566
1761509308127241000,6.438240966796875,-0.0009115160210058093,0.00018308591097593307,0.0003347091842442751
1761509308147398700,6.458398681640625,-0.000016826670616865158,-0.00144176185131073,-0.0001444199588149786
1761509308167556900,6.478556884765625,-0.000536194653250277,0.00040821079164743423,-0.0006900117732584476
1761509308187714800,6.49871484375,0.00023051025345921516,-0.0017460538074374199,-0.00007880851626396179
1761509308207872800,6.518872802734375,0.00030893064104020596,-0.002698381431400776,0.0001495892647653818
1761509308228031000,6.539031005859375,-0.00043908075895160437,-0.000978441908955574,-0.0010677108075469732
1761509308248188700,6.559188720703125,0.00186571991071105,-0.000803925096988678,0.002381491009145975
1761509308268347000,6.579346923828125,-0.0031452286057174206,-0.0011086026206612587,-0.0013022616039961576
1761509308288504800,6.5995048828125,-0.0005250726826488972,0.00029171351343393326,0.0008866363205015659
1761509308308662800,6.619662841796875,0.0012130686081945896,-0.0002709878608584404,-0.001915997127071023
1761509308328821000,6.639821044921875,0.0008688862435519695,-0.0003686780110001564,-0.00046119745820760727
1761509308348978700,6.659978759765625,0.0016569746658205986,0.003966988064348698,0.0007771565578877926
1761509308369137000,6.680136962890625,0.0012285301927477121,0.0006268657743930817,0.0006835195235908031
1761509308389294800,6.700294921875,-0.0026071849279105663,-0.00019189994782209396,0.0016588341677561402
1761509308409452800,6.720452880859375,-0.0029070081654936075,0.00200548954308033,0.0003143076319247484
1761509308429610800,6.74061083984375,0.0008348820265382528,-0.0010851603001356125,0.0018791824113577604
1761509308449768700,6.760768798828125,0.0012806763406842947,0.0005471529439091682,0.00007377355359494686
1761509308469927000,6.780927001953125,0.0012555220164358616,0.0004236726090312004,-0.0021258671768009663
1761509308490084900,6.8010849609375,-0.003244863823056221,0.0004279548302292824,0.0013038762845098972
1761509308510242800,6.821242919921875,0.002117585390806198,0.0004895338788628578,0.0018528138753026724
1761509308530400800,6.84140087890625,-0.0014426929410547018,0.0018845275044441223,0.0007695402018725872
1761509308550558700,6.861558837890625,0.000056412070989608765,0.0014916416257619858,-0.000014149118214845657
1761509308570717000,6.881717041015625,-0.0001707291230559349,-0.0003260662779211998,0.00002513616345822811
1761509308590873600,6.90187353515625,0.0009467755444347858,-0.0005199648439884186,-0.002046694280579686
1761509308611031800,6.92203173828125,0.0004958303179591894,-0.0015787314623594284,0.0003735243808478117
1761509308631189800,6.942189697265625,-0.0014170985668897629,-0.0010337643325328827,0.0017975056543946266
1761509308651348000,6.962347900390625,-0.000986733939498663,-0.0018794350326061249,-0.00019204895943403244
1761509308671506000,6.982505859375,-0.0001671577338129282,-0.00019983109086751938,-0.000602066982537508
1761509308691663600,7.00266357421875,0.0004391616676002741,-0.0014314176514744759,0.000374543946236372
1761509308711821800,7.02282177734375,0.0006261272355914116,-0.001503954641520977,-0.0019921669736504555
1761509308731979800,7.042979736328125,0.0005776684265583754,0.00029059406369924545,0.0016907883109524846
1761509308752138000,7.063137939453125,0.0032658090349286795,0.0006576543673872948,-0.0006972106639295816
1761509308772295700,7.083295654296875,-0.0011519606923684478,0.0017857355996966362,-0.0005408390425145626
1761509308792454000,7.103453857421875,-0.0011596455005928874,-0.0021592844277620316,-0.00005172635428607464
1761509308812611800,7.12361181640625,-0.0009798123501241207,-0.0005213748663663864,0.00023146928288042545
1761509308832769800,7.143769775390625,-0.0005498763639479876,-0.0006097070872783661,-0.0010502368677407503
1761509308852928000,7.163927978515625,0.0006642041262239218,-0.00012105796486139297,0.0006262287497520447
1761509308873085700,7.184085693359375,0.0004633085336536169,0.0006533898413181305,-0.0003212608862668276
1761509308893244000,7.204243896484375,-0.002461016643792391,-0.0026932163164019585,0.00123136630281806
1761509308913401900,7.22440185546875,-0.0003014297690242529,0.0003700992092490196,0.0006747057195752859
1761509308933559800,7.244559814453125,0.001056521199643612,-0.001380070112645626,0.00011668773368000984
1761509308953722000,7.26472216796875,0.0006511572282761335,0.0011473409831523895,-0.0011262539774179459
1761509308973880000,7.284880126953125,0.0009014427196234465,-0.0007488066330552101,0.003969434183090925
1761509308994037000,7.305037109375,-0.00007067178376019001,-0.00027217064052820206,0.0008595369290560484
1761509309014195000,7.32519482421875,-0.0005336052272468805,-0.0011254260316491127,-0.0014583503361791372
1761509309034353000,7.345352783203125,-0.0014629331417381763,0.00010865461081266403,-0.0014124829322099686
1761509309054511000,7.365510986328125,-0.0008381352527067065,-0.00021568406373262405,0.000422509852796793
1761509309074668800,7.385668701171875,-0.0003373591462150216,0.0012149056419730186,0.0009331584442406893
1761509309094827000,7.405826904296875,0.00018802075646817684,0.0027836114168167114,0.00002658367156982422
1761509309114985000,7.42598486328125,0.0029696584679186344,-0.00157091673463583,0.0004361015744507313
1761509309135143200,7.44614306640625,0.001019996590912342,0.001521565020084381,0.0005954767111688852
1761509309155301000,7.466301025390625,-0.0005445710849016905,-0.0011342307552695274,-0.0002461348194628954
1761509309175458800,7.486458740234375,0.0012440704740583897,0.0004210369661450386,0.0003627294208854437
1761509309195617000,7.506616943359375,0.0001096576452255249,0.0019442811608314514,-0.00012828083708882332
1761509309215775000,7.52677490234375,-0.0011344802333042026,0.0006808852776885033,0.0007309410721063614
1761509309235933200,7.54693310546875,-0.0010309785138815641,-0.0017046844586730003,-0.0006667952984571457
1761509309256091000,7.5670908203125,-0.00022659939713776112,-0.0005501406267285347,0.0004542511887848377
1761509309276248800,7.587248779296875,0.002022183034569025,-0.003117525950074196,0.0018220244674012065
1761509309296407000,7.607406982421875,-0.003552317153662443,-0.0008424269035458565,-0.00008739973418414593
1761509309316565000,7.62756494140625,-0.0003357594832777977,0.000910555012524128,-0.001929352292791009
1761509309336723200,7.64772314453125,-0.0019048803951591253,0.00011046230792999268,-0.001752772368490696
1761509309356880000,7.6678798828125,-0.0009662808151915669,0.00033525098115205765,-0.0005482207052409649
1761509309377038000,7.6880380859375,0.0011316095478832722,0.0008824588730931282,0.0009231774602085352
1761509309397196000,7.708196044921875,0.0004935022443532944,-0.0002037622034549713,0.00180646195076406
1761509309417354000,7.72835400390625,0.0025191938038915396,0.0011301850900053978,-0.0004040990024805069
1761509309437512000,7.748511962890625,0.0008677034638822079,0.00012049172073602676,0.0007978014182299376
1761509309457670000,7.768669921875,0.0013741797301918268,-0.0007625538855791092,0.002674066461622715
1761509309477828000,7.788828125,0.001003446988761425,0.0004907362163066864,0.00281316926702857
1761509309497986000,7.808986083984375,0.00008324859663844109,-0.0011971546337008476,0.0010741029400378466
1761509309518144000,7.82914404296875,0.0015602698549628258,0.00003217160701751709,-0.0007304002065211535
1761509309538302000,7.849302001953125,-0.000813125167042017,0.00007365364581346512,-0.0010758691933006048
1761509309558460000,7.8694599609375,-0.00025820196606218815,0.00006547756493091583,-0.00003006262704730034
1761509309578618000,7.8896181640625,-0.0006468470674008131,0.00017120223492383957,0.0011626698542386293
1761509309598776000,7.909776123046875,0.00033497600816190243,0.002491307444870472,0.0006064001936465502
1761509309618934000,7.92993408203125,0.00016652490012347698,-0.0009587528184056282,0.0013926993124186993
1761509309639092000,7.950092041015625,0.001901458716019988,-0.00018389523029327393,-0.0009912911336869001
1761509309659250000,7.97025,0.00009276112541556358,-0.00031996890902519226,0.0014990696217864752
1761509309679408000,7.990408203125,0.0006229693535715342,0.001355741173028946,-0.0024504614993929863
1761509309699564000,8.01056396484375,-0.00255889561958611,-0.0006826631724834442,-0.002496261615306139
1761509309719722000,8.030721923828125,-0.0011583631858229637,-0.0002821199595928192,-0.00011956319212913513
1761509309739880200,8.050880126953125,-0.00047711527440696955,-0.0010962486267089844,0.0006640334613621235
1761509309760036900,8.071036865234374,0.0011031380854547024,-0.0009579267352819443,0.0009911940433084965
1761509309780195000,8.091195068359376,0.00012849713675677776,-0.0002624131739139557,-0.00011044042184948921
1761509309800353000,8.11135302734375,0.001420749118551612,-0.003545154817402363,0.0002906245645135641
1761509309820511000,8.131510986328125,-0.0016172702889889479,-0.002284686081111431,0.00023304088972508907
1761509309840669000,8.1516689453125,-0.0005401524249464273,-0.002284514717757702,-0.0019275140948593616
1761509309860827000,8.171826904296875,-0.000640804530121386,-0.0002840254455804825,0.002906338544562459
1761509309880985000,8.191985107421875,-0.000464182929135859,-0.0009973635897040367,0.0016058669425547123
1761509309901143000,8.21214306640625,0.0041619474068284035,-0.00009620469063520432,0.0005046946462243795
1761509309921301000,8.232301025390624,-0.0012555441353470087,0.00032881833612918854,0.0023119118995964527
1761509309941455000,8.252455078125,-0.00009051011875271797,-0.00080074742436409,0.001902057440020144
1761509309961613000,8.272613037109375,-0.001619901042431593,0.0005751391872763634,0.0016238274984061718
1761509309981771000,8.29277099609375,-0.0009380612755194306,-0.00009283609688282013,-0.0009571777191013098
1761509310001929000,8.312928955078124,0.0010572215542197227,-0.00007170252501964569,0.00019130902364850044
1761509310022087200,8.333087158203124,0.0017613545060157776,-0.0016270549967885017,0.0005949269980192184
1761509310042245000,8.3532451171875,0.0007137218490242958,-0.0016229823231697083,0.002535153180360794
1761509310062402000,8.373402099609375,-0.000028970418497920036,0.00034998077899217606,-0.00046231341548264027
1761509310082560000,8.39356005859375,-0.0005016820505261421,-0.000276162289083004,-0.002241332083940506
1761509310102719000,8.413718994140625,-0.002098245080560446,0.00016630813479423523,-0.000750907463952899
1761509310122877200,8.433877197265625,0.001379053108394146,-0.00045369379222393036,-0.0017423636745661497
1761509310143035100,8.45403515625,-0.0010191235924139619,-0.0003163265064358711,-0.0013304068706929684
1761509310163193000,8.474193115234375,-0.0011346172541379929,0.002163166180253029,0.00042048655450344086
1761509310183351000,8.49435107421875,0.00034820870496332645,-0.0012870775535702705,0.0015822926070541143
1761509310203509000,8.514509033203124,0.0007922456134110689,0.0009353011846542358,0.0015844842419028282
1761509310223667200,8.534667236328126,-0.00010434677824378014,-0.0007829125970602036,0.0006779739633202553
1761509310243825200,8.5548251953125,0.0009204850066453218,-0.0006030555814504623,0.0008259722962975502
1761509310263983000,8.574983154296875,0.0010258180554956198,0.0003375997766852379,0.0013127210550010204
1761509310284141000,8.59514111328125,0.0002883337438106537,0.0028919922187924385,0.002738684182986617
1761509310304299000,8.615299072265625,-0.00006514927372336388,0.00006729643791913986,0.001057738671079278
1761509310324456000,8.6354560546875,0.0015411379281431437,0.0018966654315590858,0.00053818104788661
1761509310344614100,8.6556142578125,-0.0007754368707537651,-0.00011562462896108627,-0.00018637161701917648
1761509310364772000,8.675772216796876,-0.0014125496381893754,0.0008873026818037033,0.0000789412297308445
1761509310384930000,8.695929931640626,-0.00009276927448809147,-0.00007634703069925308,-0.000245171831920743
1761509310405088300,8.716088134765625,0.0010826035868376493,0.001134570688009262,-0.0003962232731282711
1761509310425246000,8.736245849609375,-0.00025536189787089825,0.0013330010697245598,-0.0012545555364340544
1761509310445404200,8.756404052734375,0.0007041068747639656,0.0009431196376681328,0.001469700364395976
1761509310465562000,8.77656201171875,0.0008798511698842049,-0.0006799791008234024,-0.00021310639567673206
1761509310485720000,8.796719970703125,-0.001456110505387187,0.0013424763455986977,0.00013943854719400406
1761509310505878000,8.8168779296875,0.000526245916262269,0.0000911252573132515,-0.0007581256795674562
1761509310526036000,8.837035888671876,-0.00009273714385926723,-0.0006488785147666931,0.0002263870555907488
1761509310546194200,8.857194091796876,0.0013055021408945322,-0.0026484373956918716,0.000993427587673068
1761509310566352100,8.87735205078125,0.00006266869604587555,-0.0012072520330548286,0.001261222641915083
1761509310586510000,8.897510009765625,0.000442820368334651,-0.0013520196080207825,0.0008378820493817329
1761509310606667000,8.9176669921875,-0.0008651498937979341,0.001458798535168171,0.0011749311815947294
1761509310626825200,8.9378251953125,0.0025669545866549015,0.000286283902823925,0.0015734590124338865
1761509310646983200,8.957983154296874,-0.000965763465501368,0.00020828098058700562,-0.0018871398642659187
1761509310667140900,8.978140869140624,0.00036986125633120537,6.249174475669861e-7,-0.0005869038868695498
1761509310687299000,8.998299072265626,-0.00047696055844426155,-0.0005243588238954544,0.0017893139738589525
1761509310707457000,9.01845703125,-0.001575543312355876,0.000228038989007473,-0.0011550807394087315
1761509310727615200,9.038615234375,-0.0018207774264737964,0.00016990117728710175,-0.001977819949388504
1761509310747773200,9.058773193359375,0.0012500081211328506,-0.0013937326148152351,0.0019859271124005318
1761509310767931000,9.078930908203125,-0.0015514646656811237,-0.0006066812202334404,-0.0009798852261155844
1761509310788089000,9.099089111328125,-0.0003186451504006982,-0.0021278858184814453,0.0005517425015568733
1761509310808247000,9.1192470703125,-0.0008231600513681769,-0.0001317029818892479,-0.0007015194278210402
1761509310828405200,9.1394052734375,-0.0005342061631381512,0.0024901200085878372,-0.0004391560796648264
1761509310848562000,9.15956201171875,0.001411366742104292,-0.0019434737041592598,0.0008940142579376698
1761509310868720000,9.17972021484375,-0.0006953369593247771,0.00043122563511133194,0.0023962189443409443
1761509310888878000,9.199878173828125,0.001031181775033474,-0.0018165549263358116,-0.0026117307133972645
1761509310909036000,9.2200361328125,-0.00030645017977803946,0.0007904451340436935,0.0004890838172286749
1761509310929194000,9.240194091796875,-0.00031574233435094357,-0.00011226162314414978,-0.000666171545162797
1761509310949352000,9.26035205078125,0.00026832963339984417,-0.002186358906328678,0.00026395381428301334
1761509310969510100,9.28051025390625,0.0033966638147830963,0.001163453795015812,0.0002744037192314863
1761509310989668000,9.300668212890624,-0.00026728305965662,0.0013240762054920197,0.001733508426696062
1761509311009826300,9.320826416015626,0.0006067568901926279,0.0006239041686058044,0.00032056774944067
1761509311029984300,9.340984375,-0.0016407618531957269,-0.0008133454248309135,0.0014397185295820236
1761509311050142000,9.361141845703125,-0.000043200328946113586,0.002879055216908455,0.0004963360261172056
1761509311070300200,9.381300048828125,0.0007377811707556248,0.00014680065214633942,0.0023176372051239014
1761509311090457000,9.40145703125,-0.000801599002443254,0.0006669443100690842,0.00046742171980440617
1761509311110615000,9.421614990234374,-0.00010798685252666473,-0.00014053191989660263,0.0005017896182835102
1761509311130773000,9.44177294921875,0.0005132425576448441,-0.0017703380435705185,-0.0011200571898370981
1761509311150931200,9.46193115234375,-0.0035399948246777058,-0.0005843201652169228,0.0009595763403922319
1761509311171089200,9.482089111328126,0.0012560687027871609,-0.0008428897708654404,0.0003217023331671953
1761509311191247000,9.5022470703125,-0.0003632170846685767,0.00009884312748908997,-0.0007589024025946856
1761509311211405000,9.522405029296875,0.0011684056371450424,0.0008641881868243217,-0.0019727901089936495
1761509311231563000,9.54256298828125,-0.00009875860996544361,0.0004330044612288475,-0.0011478080414235592
1761509311251721200,9.56272119140625,-0.002507532248273492,0.0026413584128022194,-0.0021213116124272346
1761509311271879200,9.582879150390625,0.0006531768012791872,0.001967022195458412,0.002824778901413083
1761509311292037000,9.603037109375,-0.0007058901246637106,-0.0009381026029586792,0.0008067071903496981
1761509311312195000,9.623195068359376,-0.0022476250305771828,-0.0006689811125397682,0.0012520980089902878
1761509311332352300,9.643352294921876,0.0005453298799693584,0.0004980610683560371,-0.001569580053910613
1761509311352510200,9.66351025390625,-0.00019544316455721855,-0.0002182675525546074,-0.00015312270261347294
1761509311372668000,9.68366796875,-0.001049941056407988,-0.0010917754843831062,-0.00025699101388454437
1761509311392826000,9.703826171875,-0.002134144539013505,-0.00041511189192533493,-0.0012057169806212187
1761509311412984000,9.723984130859375,-0.0007169304881244898,-0.00007351953536272049,0.0006465553306043148
1761509311433142300,9.744142333984374,-0.001684178481809795,-0.0005652373656630516,-0.0006853702943772078
1761509311453300200,9.76430029296875,-0.0005307511892169714,0.0024425582960247993,-0.00016071018762886524
1761509311473458200,9.784458251953126,0.00025172787718474865,0.001808098517358303,-0.002119371434673667
1761509311493616000,9.8046162109375,-0.000900962040759623,-0.000781545415520668,0.003050945233553648
1761509311513774000,9.824774169921875,0.0005699796602129936,0.0005844244733452797,0.0011734110303223133
1761509311533932300,9.844932373046875,0.0002479688264429569,-0.0031944941729307175,0.0006120838224887848
1761509311554089000,9.8650888671875,-0.0014353585429489613,0.00009648315608501434,0.0005674664862453938
1761509311574247200,9.8852470703125,-0.0014930523466318846,-0.0005792146548628807,0.0003725704737007618
1761509311594405000,9.905405029296874,0.0007233782671391964,-0.0004551643505692482,0.001675026840530336
1761509311614563300,9.925563232421876,0.00008794874884188175,0.0016074012964963913,0.0003509253729134798
1761509311634721000,9.945720947265626,-0.001853871624916792,-0.001151050440967083,-0.0024284457322210073
1761509311654879000,9.96587890625,0.00029267999343574047,0.001277003437280655,0.0004584824200719595
1761509311675037200,9.986037109375,-0.002199918730184436,0.00016073603183031082,0.0005456819199025631
1761509311695195100,10.006195068359375,-0.000134029658511281,0.00047827139496803284,0.0005861024837940931
1761509311715353000,10.02635302734375,-0.003410740289837122,-0.00036715250462293625,-0.0029753954149782658
1761509311735511000,10.046510986328125,-0.0004571507452055812,0.0006579319015145302,-0.0008978121913969517
1761509311755669000,10.0666689453125,0.0022406980860978365,0.00026490166783332825,-0.0005349470302462578
1761509311775826200,10.086826171875,0.001266172155737877,-0.0008240602910518646,-0.0012906042393296957
1761509311795984100,10.106984130859376,-0.0015488560311496258,0.0015919003635644913,0.0009492752142250538
1761509311816142000,10.12714208984375,-0.001027696649543941,-0.00046566780656576157,-0.0028078239411115646
1761509311836300000,10.147300048828125,0.0006077229045331478,-0.0005920417606830597,0.00033010938204824924
1761509311856458200,10.167458251953125,-0.0010928427800536156,0.0006767511367797852,0.0016304545570164919
1761509311876616000,10.187615966796875,0.0004579559899866581,-0.0024413522332906723,-0.0012338915839791298
1761509311896774100,10.207774169921874,0.00148943648673594,0.0010034851729869843,0.0010195330251008272
1761509311916932000,10.22793212890625,0.0011194802355021238,-0.00005026068538427353,-0.0017090255860239267
1761509311937090000,10.248090087890626,-0.0015747641446068883,-0.00011713895946741104,-0.0018218797631561756
1761509311957248500,10.26824853515625,-0.0014875377528369427,0.0025607887655496597,0.00018923007883131504
1761509311977406200,10.28840625,0.000315339770168066,0.0015294887125492096,0.0006735259667038918
1761509311997563400,10.3085634765625,-0.0007621691329404712,0.0015726136043667793,0.001264824764803052
1761509312017721300,10.328721435546875,0.0003608514089137316,-0.0000061793252825737,0.001702353940345347
1761509312037879600,10.348879638671875,0.001430609030649066,0.00885022897273302,0.006929095834493637
1761509312058037200,10.369037353515624,0.0024166894145309925,0.026339147239923477,0.021355831995606422
1761509312078195500,10.389195556640624,-0.00070856639649719,0.005746440961956978,0.006055858917534351
1761509312098353400,10.409353515625,-0.001261341036297381,-0.002058994024991989,-0.0004592358600348234
1761509312118511400,10.429511474609376,-0.002125887433066964,-0.006017637439072132,-0.008145356550812721
1761509312138669300,10.44966943359375,0.0006755511276423931,-0.016858039423823357,-0.02122187614440918
1761509312158827300,10.4698271484375,0.0015118930023163557,-0.014712615869939327,-0.01177210919559002
1761509312178985500,10.4899853515625,-0.0009156436426565051,-0.01375750731676817,-0.0058836555108428
