time,seconds_elapsed,z,y,x
1761507119015043600,0.091043701171875,0.7094348020344973,0.02573532975912094,-0.1387814248330891
1761507119035199500,0.111199462890625,1.7846236551463603,1.1169494349986313,-0.29919731997773047
1761507119055356400,0.1313564453125,0.9848550867140292,0.8311684998244047,-0.36525925329774617
1761507119075512300,0.15151220703125,-0.11521510967612265,0.10985825881808996,0.2424959201991558
1761507119095669500,0.17166943359375,0.61642158729434,-0.19717676904797554,0.8772342315591871
1761507119115826700,0.19182666015625,1.1646674639850854,0.17131576708257198,-0.2460977440834045
1761507119135982600,0.211982666015625,-0.29438100573718545,-0.15922142466306685,-0.3352982686676085
1761507119156139300,0.23213916015625,-0.6810363905459642,-1.4132014953047036,-0.32207974452376364
1761507119176296400,0.25229638671875,2.169080653128028,-1.2344830507501958,-0.4547762964852154
1761507119196452400,0.272452392578125,1.8216864346057176,-0.27528350655734535,-0.3178318778209388
1761507119216609500,0.292609619140625,-0.22400983091592788,-0.467671726154536,0.15459697973281145
1761507119236766500,0.312766357421875,-0.030520810469985008,-1.4311110998742282,1.361180216166377
1761507119256922400,0.33292236328125,0.15759703833162783,-2.358368276361376,2.198371921803057
1761507119277079600,0.35307958984375,0.38478549928367134,-2.591968504051864,1.2862367649935185
1761507119297235500,0.3732353515625,1.09317342261374,-0.5084105637781322,0.06725421184450388
1761507119317392600,0.393392578125,0.8950234246194362,-0.08997033991292118,-0.4898761053085327
1761507119337549600,0.413549560546875,1.304657533955574,-0.9626628363892435,-0.7308087947789579
1761507119357705500,0.43370556640625,1.2987842580080031,-0.6420977342121302,-0.7021766475997865
1761507119377862400,0.4538623046875,1.6508868003517387,0.2129891090773046,-0.2042928115982562
1761507119398019600,0.47401953125,1.7439257340550423,0.38433614808097477,-0.3151828246168792
1761507119418175500,0.494175537109375,2.0355074644625186,0.3365660966463387,-0.3495534423828125
1761507119438332700,0.514332763671875,0.8631056068331002,-0.38361148706823583,-0.7583516123514622
1761507119458489300,0.5344892578125,0.6665683047324419,-0.10588877066522837,-0.9887287132769822
1761507119478645500,0.5546455078125,-4.2455081569999455,2.1122632257543503,-0.2556584763720631
1761507119498802400,0.574802490234375,-9.816582195949554,2.8173253656625747,-1.3225401043877005
1761507119518959600,0.594959716796875,-16.361997526383398,0.9385625604860484,-0.7447572406325489
1761507119539115500,0.615115478515625,-16.425385418188572,1.195829933359474,0.3554687308412045
1761507119559272400,0.6352724609375,-12.377809817039966,1.646722081887722,0.3205465436071157
1761507119579428400,0.655428466796875,-10.03164416577816,1.8969683239527046,2.0309888179942965
1761507119599585500,0.67558544921875,-7.502910701057314,1.4386670682117342,1.5824135681062936
1761507119619742500,0.695742431640625,-3.432648051804304,0.50873628860116,3.472704752382636
1761507119639898600,0.715898681640625,-0.7547539531856775,-4.071826537568867,2.6729595648258924
1761507119660055300,0.73605517578125,3.1405881824910638,-4.661212233899533,2.050054606861621
1761507119680212500,0.75621240234375,5.20398201726675,1.3341042854532599,0.8883801872126758
1761507119700368400,0.776368408203125,7.10265173830986,1.3877302233092486,0.1809886910414323
1761507119720525600,0.796525634765625,8.867428537213803,1.3685589282408357,-0.7011722197975963
1761507119740682500,0.8166826171875,9.594145897960662,1.2399964073441923,-1.1578555920131504
1761507119760838400,0.83683837890625,10.23131216711998,1.9719732960544525,-1.1506643653348088
1761507119780995600,0.85699560546875,10.140419013273716,1.0752562192596495,-0.7222740445371717
1761507119801152500,0.877152587890625,9.684038934853673,0.36909167106747626,-0.6731107121132314
1761507119821308400,0.897308349609375,8.283676462855935,0.07136983046978712,-0.786311194031313
1761507119841465600,0.917465576171875,7.371859139823913,0.5151584306031465,-0.9942807944461702
1761507119861621500,0.93762158203125,6.625122488877177,0.6620671939209103,-1.171122923734784
1761507119881779000,0.957779052734375,6.250976457029581,-0.047917350950837136,-1.9578584075927734
1761507119901936000,0.97793603515625,5.8316737711161375,0.008138809726759792,-1.6655260049484668
1761507119922092000,0.998092041015625,4.873545363286137,0.27393603747114537,-1.2758667621485889
1761507119942249000,1.0182490234375,4.231095016244054,0.2495675390858203,-0.7375599495396018
1761507119962406000,1.038406005859375,1.8648440238088368,-0.7164566634953021,0.7257448624528944
1761507119982562000,1.05856201171875,-2.9449276632249353,-2.0369335517428815,1.9422056420393288
1761507120002719000,1.078718994140625,-10.788497137069701,-1.47559277728796,3.1281641697257756
1761507120022876000,1.0988759765625,-12.20154139598608,-4.251867170637846,3.9246146996513005
1761507120043031800,1.11903173828125,-17.498368870210648,-3.051546501730382,4.7850534253627055
1761507120063189000,1.13918896484375,-19.27904583355784,-1.3545228041037916,4.417346194390952
1761507120083346000,1.159345947265625,-19.553178416514395,-1.0732292434766888,4.958851656910777
1761507120103502000,1.179502197265625,-16.9424207485795,-0.3824059106707573,3.556218025110662
1761507120123659000,1.199658935546875,-12.748811705642938,0.6974503497302532,1.3233555124238132
1761507120143816000,1.21981591796875,-6.360102602180838,-0.07977408619970083,0.9715687580309808
1761507120163971800,1.239971923828125,-0.12671031715869902,-0.9685992407009005,0.5749889221876859
1761507120184129000,1.26012890625,4.049733655965328,-1.5442325982719658,-0.03652940323501825
1761507120204285000,1.280284912109375,6.688184801989793,-0.518641304282844,-1.3089904485933481
1761507120224442000,1.300442138671875,8.16839121055305,1.1500462334364652,-2.2180517509154973
1761507120244599000,1.32059912109375,10.127919597184658,2.3940686814263463,-3.4492467199057337
1761507120264755000,1.3407548828125,11.437533876764773,3.570576220808923,-3.854648306238651
1761507120284911900,1.360911865234375,12.20036533794403,2.857244995857775,-2.750397024771571
1761507120305069000,1.381069091796875,12.378265744113921,0.5736201180525123,-1.747670035149902
1761507120325225000,1.401224853515625,11.769262908643483,-0.2841144632667303,-1.2000490123592316
1761507120345382000,1.4213818359375,10.622324578094481,-0.3666979077987373,-1.2936805051282048
1761507120365539000,1.4415390625,9.34136648415625,-0.5188008787587285,-1.2024091656193137
1761507120385695000,1.461695068359375,8.172544238579272,-0.1912295510813594,-1.570163450603187
1761507120405852200,1.48185205078125,7.045289098143577,0.08125468014627694,-1.8696660371378062
1761507120426008800,1.5020087890625,6.422026851174235,0.4913870943933725,-2.3009160582154986
1761507120446165000,1.5221650390625,5.516536393076181,0.3000041063159704,-2.2602876952290534
1761507120466322000,1.542322021484375,3.836035960227251,0.4459528654951602,-1.3025880342051386
1761507120486478000,1.56247802734375,1.914665747076273,-0.3428741838146001,-0.6675213676735758
1761507120506635000,1.582635009765625,-6.460383177575468,-2.0800744820721446,3.155157390591502
1761507120526792000,1.6027919921875,-14.63319337361455,-2.0640638429917395,4.300085550361872
1761507120546947800,1.62294775390625,-17.981259938937423,-1.5495592001222074,2.968955020022392
1761507120567105000,1.64310498046875,-20.665801805007458,1.6716475565686821,-0.9574095920361578
1761507120587262000,1.663261962890625,-21.284906347775458,-0.16095044041275977,0.7079762737892568
1761507120607418000,1.683418212890625,-17.289623243921994,-0.3740555770851671,1.7793027523845433
1761507120627575000,1.703574951171875,-12.29988135870695,-0.5394399082921445,2.319784570945054
1761507120647732000,1.72373193359375,-5.799883379101753,-0.2991305383518338,0.7839122431308031
1761507120667887900,1.743887939453125,-0.12236615047454834,-0.7750031066186726,0.1334852181211114
1761507120688045000,1.764045166015625,3.596946049079299,-0.4679547808796167,-1.1060928176805376
1761507120708202000,1.784201904296875,5.972357084047794,-0.12698255822882054,-2.6652023748278615
1761507120728358100,1.804358154296875,6.881648687994479,0.6957769366253167,-3.2535394388884304
1761507120748514800,1.824514892578125,8.503217623925208,0.8045414819225668,-3.3588167996570464
1761507120768671000,1.8446708984375,9.64605085724294,0.7907745301157235,-2.756158072516322
1761507120788828000,1.864827880859375,10.009161115813255,-0.14777349038831888,-1.6780499709568917
1761507120808985000,1.884985107421875,9.388998003903032,-1.1785662985432892,-0.9910910584941506
1761507120829141000,1.90514111328125,8.789102603995799,-1.5855268778212368,-0.8878859739549457
1761507120849298000,1.9252978515625,8.686313845172524,-2.2998484289839864,-0.9149398389667271
1761507120869455000,1.945455078125,7.275316581913828,-1.8679196318618951,-0.7295058224216103
1761507120889609700,1.965609619140625,6.464574199524521,-1.0749020720597355,-0.7047329079538583
1761507120909767000,1.985766845703125,5.986797697332501,-0.4537854588169604,-0.7369486857734621
1761507120929923800,2.005923828125,5.634987415933609,-0.5695861863613129,-0.8244451829187571
1761507120950080000,2.026080078125,4.536172772562503,-0.5720527226053178,-0.8440088383056223
1761507120970236700,2.046236572265625,2.485929511260986,-1.2902538916803896,-0.3236288736619055
1761507120990393900,2.066393798828125,-2.315674066886306,-1.4788374582976103,0.7610019076645373
1761507121010549800,2.0865498046875,-9.56246422701776,-2.0906962677210568,3.309995777864754
1761507121030707000,2.10670703125,-16.89911702890396,-1.3547057594552636,4.519752968159318
1761507121050863900,2.12686376953125,-20.294370877337453,-1.2558544862113892,5.541740976959467
1761507121071019800,2.147019775390625,-22.447410496246814,1.2329239847399294,3.887620016992092
1761507121091176700,2.1671767578125,-19.75900494048595,0.34010596121028064,2.8922055423408746
1761507121111334000,2.187333984375,-14.196591762375832,-0.20221593225896356,1.9613098632209003
1761507121131489800,2.20748974609375,-8.05302295614183,-1.8198092425569892,2.212539709495753
1761507121151647000,2.22764697265625,-2.1714783619195224,-2.638142810727656,2.4144034673161805
1761507121171804000,2.247803955078125,2.8864216982424256,-1.6640768290534615,0.3575114156499505
1761507121191959800,2.267959716796875,6.324229909288883,-0.9176626880593597,-2.214826066867262
1761507121212117000,2.288116943359375,8.362875087255238,-0.3979797657690942,-3.213379277935624
1761507121232274000,2.30827392578125,9.638848378518222,-0.4147768790520727,-3.428877301093936
1761507121252430000,2.32843017578125,11.234597229015826,-1.5224612037077545,-2.845890950411558
1761507121272586800,2.348586669921875,11.418840866732596,-3.3008035866275427,-1.8459632361195981
1761507121292744000,2.368743896484375,10.758628068506717,-4.472002790468931,-1.1689584391772747
1761507121312899800,2.38889990234375,9.208886351424455,-3.6742028917610643,-1.4548857970848679
1761507121333057000,2.40905712890625,7.334009593901038,-3.372319839830696,-1.3953157100021838
1761507121353213700,2.429213623046875,6.569267915186286,-3.962619436135888,-1.1811579955369234
1761507121373369900,2.449369873046875,6.117044956445693,-3.7896652541965246,-0.763900843976438
1761507121393526800,2.46952685546875,5.562937494245171,-3.4735207449406382,-0.3910770006433129
1761507121413684000,2.48968408203125,4.995433374854922,-3.9018691993579266,-0.2307189731657505
1761507121433839900,2.50983984375,4.1071658542364835,-3.7617221852600573,-0.7552955127164721
1761507121453996800,2.529996826171875,2.539434891477227,-2.819577820764482,-1.6489438495904207
1761507121474153700,2.55015380859375,0.08370002747178078,-0.8653457139100879,-2.9657737596377727
1761507121494310000,2.570309814453125,-2.0826479858219624,-0.6169600780852139,-1.6192966070845722
1761507121514466800,2.590466796875,-8.551360600325465,-1.4659215703621506,2.431136137060821
1761507121534623700,2.610623779296875,-17.661745076465607,0.14553323718085884,5.09088696848452
1761507121554779600,2.630779541015625,-20.895243013322354,1.7765388406291602,5.211766095271706
1761507121574936800,2.650936767578125,-21.892362538325784,4.939530285847186,2.4694176446601745
1761507121595094000,2.671093994140625,-21.43654535448551,4.498586553750932,2.367570842862129
1761507121615250000,2.69125,-16.41819112277031,2.702500424347818,2.4151839501693844
1761507121635406800,2.71140673828125,-10.085006338131427,1.5992396152228117,1.9752219225868581
1761507121655563800,2.731563720703125,-3.5151655914932487,-0.06525836185216903,1.5681411509953438
1761507121675720000,2.751719970703125,1.5448071832895278,-0.6186120830759406,-0.09496785593926906
1761507121695876900,2.771876953125,4.9932507701188324,-0.007335603585094213,-2.2575274367354807
1761507121716034000,2.792033935546875,7.2425295800775285,0.8189702586390077,-3.27032515399456
1761507121736190000,2.81218994140625,9.548910917961598,0.7968779615573585,-3.656589785920083
1761507121756347000,2.832346923828125,10.659958435440062,-0.5826372815163806,-3.4516742393136024
1761507121776503800,2.85250390625,11.330720684731006,-2.5160414486691356,-2.8712410802453756
1761507121796660000,2.872659912109375,11.5297667547822,-4.907470429241657,-1.9400620541393756
1761507121816817000,2.89281689453125,10.794812311565876,-7.270400168299674,-0.8889856057599186
1761507121836973800,2.912973876953125,10.76856494063139,-7.561824077796936,-1.6164911942750215
1761507121857129700,2.933129638671875,8.62938316668272,-5.7691053790003055,-1.4347200841516254
1761507121877287000,2.953286865234375,7.152376430943608,-3.58187473667562,-1.1804606609225272
1761507121897444000,2.973444091796875,6.21168080395162,-2.5965795049786564,-1.4964511486604808
1761507121917600000,2.99360009765625,5.078402749964595,-1.976829942305386,-2.0467261930912732
1761507121937757000,3.0137568359375,3.9275972225934264,-1.4710472428128123,-2.5511907957226034
1761507121957913900,3.033913818359375,2.651674784734845,-1.4967945552706718,-2.939663751347363
1761507121978070000,3.054070068359375,1.4002601806670427,-1.8417112777635454,-2.1402239764779805
1761507121998227000,3.07422705078125,-3.301846081417799,-2.9123171869993207,1.4394519349791108
1761507122018384000,3.0943837890625,-9.64247358327806,-0.7333186587080359,3.983590912494063
1761507122038539800,3.114539794921875,-16.106858397710322,-0.9122675510175525,5.0885348524004215
1761507122058697000,3.134697021484375,-18.39440819387436,3.607171675017476,1.870751348156482
1761507122078854100,3.154854248046875,-21.658680039179323,3.190387401665747,0.12752115861754865
1761507122099010000,3.175010009765625,-21.95438498699665,2.5250883862167597,-0.5584585700821131
1761507122119167000,3.1951669921875,-17.05378385900259,2.975680528885126,-0.4857910644846037
1761507122139324000,3.215323974609375,-10.894150637674331,2.8677745731785893,-0.09341458948212675
1761507122159480000,3.23547998046875,-4.897676764979958,1.1236606230750679,0.30118509626146406
1761507122179637000,3.255636962890625,0.08146072411239147,0.06423121076151728,-0.5378426291633397
1761507122199794200,3.275794189453125,3.458563998827338,0.3355642261274159,-1.6172449352517724
1761507122219950000,3.2959501953125,6.580006751343608,0.2252770743727684,-2.25868113681525
1761507122240107000,3.31610693359375,9.223791075089574,-0.363866337634623,-2.4362905972145494
1761507122260264000,3.336263916015625,11.03302134822607,-0.3931912163183093,-2.6487141813635824
1761507122280420000,3.356420166015625,11.57219135353565,-1.1694161928821354,-2.0341797229900953
1761507122300577000,3.376576904296875,11.4488221634984,-2.32753723089844,-1.526562647677213
1761507122320734000,3.39673388671875,11.3198392252326,-3.0628438485532996,-1.0052313736580312
1761507122340889900,3.416889892578125,11.00443121355772,-2.984006458681822,-0.8017464443765581
1761507122361047000,3.437047119140625,10.247447309362888,-2.221590154174715,-0.6814502320438623
1761507122381204000,3.457203857421875,9.350591993141174,-1.2673393184304236,-0.6387159828193485
1761507122401360100,3.477360107421875,7.969531018462777,-0.6006377792397514,-0.8866742600776255
1761507122421516800,3.497516845703125,7.064952414512634,-0.5888200983371585,-1.0818176236018537
1761507122441674000,3.517674072265625,6.539529779526591,-0.7269761578135192,-1.7674794819913804
1761507122461830000,3.537829833984375,5.753197615772486,-0.8778599622420966,-2.019683141734451
1761507122481987000,3.557987060546875,4.834932431775331,-1.6336377055175602,-1.6796154667079448
1761507122502144000,3.57814404296875,2.76063784827888,-3.1002728309765457,-0.1562440162874758
1761507122522301000,3.598301025390625,-3.562725215047598,-3.4118671295821663,2.4469632362678646
1761507122542457000,3.61845703125,-12.95423724759817,-2.1222722863323984,4.744971882604062
1761507122562614000,3.638614013671875,-21.78164707815647,-2.319408723369986,7.465733939829469
1761507122582771000,3.65877099609375,-27.474174828910826,6.552852786958217,4.54108334095776
1761507122602926800,3.6789267578125,-29.676206734526154,11.266956360828877,3.2642841202646493
1761507122623084000,3.699083984375,-24.169479787802693,11.17800498870015,1.54829034923017
1761507122643241000,3.719240966796875,-16.50245112221241,7.888449649056792,0.8915903814308345
1761507122663397000,3.739397216796875,-8.294026007434725,3.8682811102718113,1.6478670141391456
1761507122683554000,3.759553955078125,-1.578188643887639,1.5544858428694306,1.7342808306142687
1761507122703711000,3.7797109375,3.433528341770172,-0.5078761646404862,-0.32503114167526365
1761507122723867000,3.799866943359375,7.510782457345724,-1.6595942768119274,-2.7181366771578785
1761507122744024000,3.820024169921875,10.144313098102808,-6.527723606398701,-6.030539223903417
1761507122764181000,3.840180908203125,10.96073118804097,-8.798440925705432,-8.916901300913095
1761507122784337200,3.860337158203125,12.527002015119791,-5.46898086117506,-3.5644060077413915
1761507122804493800,3.880493896484375,12.139067696416378,-5.646103268709778,-0.7652560579776764
1761507122824651000,3.900651123046875,11.473837362289428,-5.688881503206491,1.2709477181859314
1761507122844807000,3.920806884765625,10.12265539304614,-4.197903525260091,2.4762352157205343
1761507122864964000,3.940964111328125,8.60282307653725,-2.719516733339429,2.642097685833275
1761507122885121000,3.96112109375,7.50832863445282,-1.9037340186953544,2.275976555009186
1761507122905278200,3.9812783203125,6.660121321544051,-1.9811796619474886,1.6852783147752284
1761507122925434000,4.00143408203125,6.22641543174684,-2.230840066948533,1.4551264739729464
1761507122945591300,4.02159130859375,5.612556972938775,-2.2751005028270184,1.3551158015608786
1761507122965748000,4.041748046875,4.9195297003477805,-1.7849556635797024,1.0154453091584146
1761507122985904000,4.061904052734375,4.100619793593883,-1.0821779813468455,0.3668520754471421
1761507123006061000,4.08206103515625,2.0883973431289196,-1.3644208055227993,0.8241269107498228
1761507123026218200,4.10221826171875,-2.6868191633522507,-0.8869248738378286,1.471423528779298
1761507123046374100,4.1223740234375,-10.6893540412724,3.0284669471770522,1.559994377157837
1761507123066531000,4.142531005859375,-18.66979165367484,4.749021742516756,3.2732056778669354
1761507123086688000,4.16268798828125,-21.531226210176943,8.471879067331551,1.6090148670449853
1761507123106844200,4.18284423828125,-21.32761385512352,8.496261813437938,0.12403174559921025
1761507123127001000,4.2030009765625,-16.19455538586378,5.098370602238178,-0.9602484687238931
1761507123147158300,4.223158203125,-10.203134704905748,1.7602642899155616,-0.39290070893913503
1761507123167314200,4.243314208984375,-5.3689709194153545,-0.40083778554871674,0.6243352830283343
1761507123187471000,4.26347119140625,-1.3355173671215772,-0.9543098724551499,0.2573977212548256
1761507123207628000,4.2836279296875,1.7325351559907196,-0.3876128316640854,-1.2091197691738604
1761507123227785200,4.30378515625,4.208569880703092,1.5672786889471113,-2.5902479638695715
1761507123247941000,4.323941162109375,5.869252098882198,3.239239403118193,-2.220898372518271
1761507123268098000,4.34409814453125,7.729738512003421,0.9684498953580856,-2.456949500492215
1761507123288255200,4.364255126953125,9.087974491411448,-2.6001345671117306,-2.2827198917895553
1761507123308411100,4.3844111328125,10.098422284543513,-4.176375584062933,-0.9012880379721522
1761507123328568300,4.404568359375,10.22816042509079,-4.83838520257771,-0.4999140266548842
1761507123348725000,4.42472509765625,9.661968557342886,-4.176363016842306,0.16248137630708515
1761507123368881200,4.444881103515625,9.01976663210392,-3.1291561033725737,0.6494133179225027
1761507123389038000,4.4650380859375,8.479069271096586,-1.6965433667637406,0.37328188929893075
1761507123409195300,4.4851953125,8.083699833956361,-1.0081410505596549,0.021898747270926833
1761507123429351200,4.50535107421875,7.8837296347975725,-0.8583955294460057,-0.630743250374496
1761507123449508000,4.525508056640625,7.68149265975058,-0.8054802240774035,-1.1864647236429153
1761507123469665000,4.5456650390625,7.326430098557472,-0.7056216734871268,-1.701061720971018
1761507123489822200,4.565822265625,6.224067407315969,-1.000666988351941,-1.5396711355753243
1761507123509978000,4.58597802734375,4.2341982429564,-2.047413006311655,-0.931009222497046
1761507123530135000,4.606135009765625,0.44190731643140313,-5.559506935274601,1.1729961702607572
1761507123550292000,4.6262919921875,-8.365307867360114,-6.776587892585993,3.269226837363839
1761507123570448100,4.6464482421875,-19.788918432712553,-6.664874069029092,5.409775223490596
1761507123590605000,4.66660498046875,-29.95637742860317,2.9040055779889222,2.4606039313465353
1761507123610762200,4.68676220703125,-32.81421016122103,8.071137289503216,1.5576590660780667
1761507123630918100,4.706918212890625,-27.04821502319574,8.840517149412632,0.7301584411114453
1761507123651075000,4.727074951171875,-17.861985909259317,3.1766613663911816,2.0331503799423576
1761507123671232300,4.747232177734375,-6.98377635256052,-1.677928828795254,1.7498384652301668
1761507123691389200,4.76738916015625,0.4232382717967033,-2.3061355464294553,-0.09760426885746419
1761507123711545300,4.78754541015625,5.8267304694950575,-1.5219870103247464,-1.2867375541225075
1761507123731702000,4.807701904296875,9.49164998460412,-0.8312063476167618,-1.9446704247176647
1761507123751859200,4.827859130859375,11.529389153641462,-0.07929609342440962,-3.154678082641959
1761507123772015000,4.84801513671875,13.04808457507491,0.10816723699122667,-3.561710192786157
1761507123792172300,4.86817236328125,13.809900137209892,-1.395402073111385,-2.7669989077433943
1761507123812329000,4.888328857421875,13.200933542096614,-1.880432199693471,-0.8678637611456215
1761507123832485000,4.908485107421875,11.522336312520503,-2.1965321391552686,0.5173812212191522
1761507123852642000,4.92864208984375,9.063378394815325,-3.6219092254221437,2.0096572761520743
1761507123872799200,4.94879931640625,5.768828900146484,-4.268262717382609,3.0967461181551217
1761507123892956000,4.968955810546875,4.065333376157284,-3.752093648432195,2.366878038292378
1761507123913112000,4.989112060546875,3.5121278312325477,-3.614555355527997,1.9890793291561304
1761507123933269000,5.00926904296875,3.0611101566284895,-2.2711164016269145,0.9432293832533061
1761507123953426200,5.02942626953125,3.5286569412291047,-0.5114711203925312,-0.3006974954076111
1761507123973582000,5.04958203125,4.150061577633023,0.4003358273759484,-1.0703779456987976
1761507123993739000,5.069739013671875,3.1845787153869867,1.9111714752197264,-1.7637085851505399
1761507124013896200,5.089896240234375,2.620646609264612,2.177778631107509,-1.58603336603865
1761507124034052000,5.110052001953125,-1.895788028126955,0.12543664396107196,0.3490878706976771
1761507124054209300,5.130209228515625,-9.200899444323777,-1.3745435556083916,1.8943011505700647
1761507124074366200,5.1503662109375,-16.08575248131752,-2.0763208286270496,2.9622628289073702
1761507124094523100,5.170523193359375,-20.218855325365066,1.206800386315584,0.7974895175844431
1761507124114679000,5.190678955078125,-20.553349145781993,1.434333130660653,0.17255992192476988
1761507124134836200,5.210836181640625,-16.994183669042588,1.2114829911738634,0.44812882129475473
1761507124154993200,5.2309931640625,-11.894211476826667,-0.05129296486377716,1.0151711683921516
1761507124175149300,5.2511494140625,-6.011172260132431,-1.8491361670672892,1.1732260334938764
1761507124195306000,5.271305908203125,-0.2901414684712887,-3.329822468101978,1.0507862332612274
1761507124215463200,5.291463134765625,3.421773606568575,-3.658651102364063,0.46997138139903544
1761507124235619000,5.311619140625,5.892391566929221,-1.8738734256997704,-0.4519461876258254
1761507124255776300,5.3317763671875,8.553860015925764,-0.5715469650402665,-1.565777928995341
1761507124275933000,5.351932861328125,10.432039322125911,-0.041375966483354565,-1.8881667394682764
1761507124296090000,5.372090087890625,11.36087032380104,-0.49328912862241264,-1.1965464841309934
1761507124316246000,5.39224609375,11.582831990015507,-1.8454123242385685,0.27813579071592537
1761507124336403200,5.4124033203125,10.406362444555759,-3.057714376710355,1.1071639540433884
1761507124356560100,5.43256005859375,9.364667280244827,-3.203843387827277,1.183512888099998
1761507124376716000,5.452716064453125,8.049010213369131,-4.109146214398741,1.0716301377169788
1761507124396873000,5.472873046875,5.630002028736472,-4.593112218880653,1.2643629329681396
1761507124417030100,5.493030029296875,3.7604941047698257,-4.284940880461037,0.8039270032860338
1761507124437186000,5.51318603515625,2.586141697594523,-3.5250597935199735,-0.08902432776708155
1761507124457343000,5.533343017578125,3.5971722590506077,-1.8667887281358242,-1.2740148506715894
1761507124477500200,5.553500244140625,2.831345707708597,-0.9843078280948102,-1.1951955809786916
1761507124497657000,5.573656982421875,2.2669062365859745,0.27210297682508827,-0.559790037881583
1761507124517813200,5.593813232421875,1.1470008743911981,0.020795973660796878,-0.12899682066068052
1761507124537970200,5.61397021484375,-1.130671086359024,-0.8063263195127248,1.4376356793373821
1761507124558127000,5.634127197265625,-8.634031869271396,-0.6488230969443917,3.5413451578885313
1761507124578283000,5.654282958984375,-12.61044251487255,0.7775161123529076,4.664409860897064
1761507124598440200,5.674440185546875,-16.64847638069391,0.7249100190639496,3.932784854364395
1761507124618597000,5.69459716796875,-18.26725013294816,2.019350110387802,2.371225419846922
1761507124638754000,5.714754150390625,-18.067195178115366,2.6351088498592374,1.0128345421381295
1761507124658910000,5.734909912109375,-14.3625971480906,2.1710493228524923,0.4953972798828035
1761507124679067100,5.755067138671875,-9.804737444376945,1.1007076175108552,0.44523879894167184
1761507124699224000,5.77522412109375,-5.053502117463946,-0.1006409331396222,0.7784437485918402
1761507124719380200,5.795380126953125,-0.43321489140987396,-0.2305555992975831,0.17299297957979143
1761507124739537000,5.815536865234375,2.404707272079587,0.3820022983059287,-0.25114187573045493
1761507124759694000,5.835694091796875,5.312044332578778,1.7059946473285554,-0.661849459517002
1761507124779850000,5.85585009765625,5.985865969440341,1.2810682763144372,-1.8899433937519787
1761507124800007200,5.876007080078125,6.932258931291103,0.577959754692018,-3.6135642986640333
1761507124820164000,5.8961640625,8.936427254638076,-0.7939251031011343,-3.999036903429031
1761507124840321000,5.916321044921875,10.063788193535805,-0.5586825150310993,-0.7355861652486025
1761507124860477200,5.936477294921875,11.379548136264084,-0.4578717782825231,-0.7150363483686
1761507124880635100,5.95663525390625,11.05120231708288,0.368066419672966,-1.086690125009045
1761507124900791800,5.976791748046875,10.186112258434296,0.6921116190508008,-0.8031139333374798
1761507124920948000,5.996947998046875,9.118687025061249,1.071674999772012,0.06748144472911953
1761507124941105000,6.01710498046875,8.463083181935549,1.7823671083912251,0.203656778717041
1761507124961262000,6.037261962890625,8.07115131802857,2.157667863231897,-0.2359180031135678
1761507124981418000,6.05741796875,7.55819770399332,2.0383578854575752,-0.4986287360846996
1761507125001575000,6.077574951171875,6.88914518122971,1.8523773409456012,-0.19422157250419259
1761507125021732000,6.097732177734375,5.349507509532571,1.5313330769494176,0.4491001505449414
1761507125041889000,6.117888916015625,2.4642314741939306,-1.158301143823564,2.4957816277116533
1761507125062045200,6.138045166015625,-4.7346448421180245,-0.09786503868550062,2.3986449033007022
1761507125082201900,6.158201904296875,-12.574452333080767,0.932053470852971,-0.3467911380626261
1761507125102359000,6.178359130859375,-19.53214731892347,2.6229604391649364,-3.9755321092009543
1761507125122515000,6.198514892578125,-21.00756006346941,1.358647482818365,-4.251519672374427
1761507125142672100,6.218672119140625,-22.16115609834194,-1.0817694005459546,-2.473609835653007
1761507125162828800,6.238828857421875,-18.940349300754068,-5.0409787359774105,-2.1359023138865827
1761507125182986000,6.258986083984375,-16.017795966422558,-5.6154883502155535,-1.2830658798724413
1761507125203142000,6.279141845703125,-10.757566576755046,-4.536807271073759,0.013843451109156012
1761507125223299000,6.299299072265625,-4.4633670640707015,-3.1873017106100914,0.3933836336178705
1761507125243456000,6.3194560546875,0.3004571107804775,-1.8203271289512515,0.9173302412346005
1761507125263612000,6.33961181640625,4.165356761920452,0.14603124983087182,0.8146462579600513
1761507125283768800,6.359768798828125,7.330097388893366,1.041791172031313,0.6726772891320287
1761507125303926000,6.379926025390625,9.523266773617268,1.1679483853518962,0.7449110429547726
1761507125324083200,6.400083251953125,11.096708515238761,1.0227528556928038,1.1137567033719271
1761507125344239000,6.420239013671875,11.749952643495797,0.35098961266577244,0.8238277086075395
1761507125364396000,6.44039599609375,10.83073936499357,-0.14373802432715893,-0.8766152228780091
1761507125384553000,6.460552978515625,9.724161101883649,1.5463374615967274,-0.6889379574507475
1761507125404709000,6.480709228515625,9.706602064317464,2.8568974975943564,-0.023334460896160453
1761507125424866000,6.500865966796875,8.956810117453337,4.063077706184983,0.5029976353513077
1761507125445023000,6.52102294921875,7.664172107115387,4.821277123649418,0.596848250763677
1761507125465180000,6.541179931640625,6.8006713634848595,5.124811449918151,0.1992666539993137
1761507125485336000,6.561336181640625,6.662797262755036,4.449937381394207,-0.19636921552475542
1761507125505493000,6.581492919921875,6.2815761779546735,2.9639088425487277,0.3770283092856407
1761507125525650000,6.60164990234375,4.265046970206499,0.387798125103116,1.970569128344953
1761507125545805800,6.621805908203125,0.403527609154582,-2.673134044609964,2.310772266319394
1761507125565963000,6.641962890625,-5.498095311978459,-2.438098085027933,-0.2120372517125681
1761507125586120000,6.662119873046875,-12.643204966789483,-3.3512475334465504,-1.1436090399958192
1761507125606276900,6.68227685546875,-17.120246335947513,-3.8507080441802737,-1.5159991680867968
1761507125626432800,6.702432861328125,-18.004309975135325,-6.140007314360141,-0.8874624147806316
1761507125646590000,6.72258984375,-17.150938411331175,-4.78652963539511,-1.4224223281145094
1761507125666747100,6.7427470703125,-14.39711784185171,-5.005555540418625,-0.7571264544706792
1761507125686903000,6.762903076171875,-10.66908516022563,-4.391037156397104,0.9252746243678033
1761507125707060200,6.783060302734375,-6.726960815107822,-3.1466672101438045,1.3639393056161702
1761507125727217000,6.803216796875,-2.6107541608035563,-2.3626295870676635,1.2960088019452989
1761507125747374000,6.8233740234375,1.1349912876456976,-1.3680091854035854,1.0797192630831152
1761507125767530000,6.843530029296875,4.365547325831652,0.09661123923212289,0.740185329607129
1761507125787687200,6.863687255859375,6.846947376969457,1.0253358579233287,0.1252135027296841
1761507125807843800,6.88384375,9.112631962805986,1.378039873291552,-0.22940650232769547
1761507125828000000,6.904,10.39453639768362,1.2143936179235577,-0.17114621920194475
1761507125848157000,6.924156982421875,10.52620579855442,0.9953720968142151,-0.1499088949818164
1761507125868314000,6.944314208984375,10.002350266754627,0.7255927406311035,-0.3954138608038425
1761507125888469800,6.9644697265625,9.238162714791297,1.2052438045233487,-0.37712026188541203
1761507125908626000,6.9846259765625,8.550353469109535,2.1141528388932347,-0.3414395479016006
1761507125928782600,7.004782470703125,8.095293241116405,3.026127398313582,-0.3064909841172397
1761507125948939800,7.024939697265625,7.897786801722646,3.263792537355423,-0.1834340201006271
1761507125969096700,7.0450966796875,7.859910952314734,2.422737726549804,-0.5288771593540906
1761507125989252900,7.0652529296875,7.30905284729898,1.4119745838582516,-0.5708611016679555
1761507126009409800,7.085409912109375,6.785304283004999,1.1369406681478023,0.44863399433791634
1761507126029566700,7.105566650390625,5.356447537928819,-0.7187091185972094,1.8442574551150202
1761507126049722600,7.12572265625,1.3449240778923033,-3.5896485855475064,2.531602005894482
1761507126069879800,7.1458798828125,-5.874432716390491,-1.1104396147131919,-0.6558303453579545
1761507126090036700,7.16603662109375,-14.243165297502278,-0.37440760539323087,-1.393181912843883
1761507126110193700,7.186193603515625,-19.23747580580711,0.9806763397246598,-1.9746737871848046
1761507126130349600,7.206349609375,-21.388457907664776,-0.9085434159278869,-0.3303041867073625
1761507126150506800,7.2265068359375,-19.673727872955798,-1.7376593671366571,0.6746269618950784
1761507126170664000,7.246663818359375,-15.2471319119215,-2.441011634387076,1.6441623144023119
1761507126190819800,7.26681982421875,-10.738401273036002,-2.8695979892134664,1.746252569567412
1761507126210976800,7.286976806640625,-5.764105378755927,-2.7055785166189072,0.9462604215122759
1761507126231133700,7.3071337890625,-1.5847206760048866,-2.104820362402499,0.42572840811200435
1761507126251291000,7.327290771484375,1.6573919444620608,-1.0918787066280842,0.31864421711713076
1761507126271446800,7.34744677734375,4.043416143381595,-0.00858005068823695,0.13518083392470143
1761507126291603700,7.367603759765625,6.3550266140908,-0.11172419882044196,-0.11460432083401828
1761507126311760600,7.3877607421875,8.329690610533952,0.04013488038107753,-0.16124061899837105
1761507126331917800,7.407917724609375,9.646365914541482,-0.21952917837053537,0.47295412353686983
1761507126352073700,7.42807373046875,10.31993620699048,-0.6649924337178468,0.8410387364536523
1761507126372230700,7.448230712890625,10.144620556616783,-1.3935624365940689,0.5701267960440367
1761507126392387600,7.4683876953125,9.65315864342153,-1.512835004967451,0.27042152654416857
1761507126412543700,7.488543701171875,9.312093043398857,-0.7997945796564221,0.23760376424342391
1761507126432700700,7.50870068359375,8.784189112991093,0.06570464431494474,0.8480819329634308
1761507126452857900,7.52885791015625,8.451635905247926,1.0075427193403244,1.1015228063512592
1761507126473014800,7.549014892578125,8.163623265498876,1.9121257072046398,1.0868479459192604
1761507126493170700,7.569170654296875,7.561510774064064,2.360485853037238,0.7314808488216251
1761507126513327900,7.589327880859375,5.80986584393382,2.0221324345827103,0.1382312436044216
1761507126533484800,7.60948486328125,2.4860990226089954,-0.08663286605328321,0.46588067801930005
1761507126553641700,7.629641845703125,-2.8211709351748224,-3.1170737436518072,1.115426828541234
1761507126573797600,7.649797607421875,-9.377860523816942,-2.652336755774915,-0.6383101054321975
1761507126593954800,7.669954833984375,-16.297440590798853,-2.345871929012239,-1.3623732253432272
1761507126614111700,7.69011181640625,-20.392914253675936,-1.9193664721131323,-0.639287279901281
1761507126634268700,7.7102685546875,-23.08133851413727,-0.6597238456651568,0.3903088292824104
1761507126654424600,7.730424560546875,-21.25494609379768,0.9668845457375049,-0.8660709594447166
1761507126674581800,7.750581787109375,-15.700842478871344,-0.8616557002857327,-0.6365731255717575
1761507126694738700,7.77073876953125,-9.558074467626213,-2.6581249837875363,0.12652458532825112
1761507126714894800,7.790894775390625,-3.695175537163019,-2.303247131511569,0.7389854522980749
1761507126735051500,7.811051513671875,0.6163426768392324,-1.2637214201942086,0.946471506979689
1761507126755208700,7.831208740234375,3.836878840792179,-0.27873686188161373,0.5627121358733624
1761507126775366000,7.851365966796875,6.449637327155471,1.217660510765016,0.04246558835096657
1761507126795521800,7.871521728515625,8.648114755159616,1.9512144395336508,-0.42448951396681367
1761507126815678700,7.8916787109375,10.064882418513298,1.7000395383164286,-1.023132064268738
1761507126835835600,7.911835693359375,11.170828228938579,1.3091414013713598,-0.6292356953557581
1761507126855992800,7.931992919921875,11.546762313246726,1.3133452828019856,-0.40225342450030144
1761507126876148700,7.952148681640625,11.120754576736688,1.6985148129671812,-0.7664274398446083
1761507126896306200,7.97230615234375,10.332520963275432,2.296908283878863,-0.9612113224066793
1761507126916463400,7.99246337890625,9.494830952727794,2.8842753338634965,-0.6512596764415503
1761507126936620500,8.01262060546875,8.126962052577733,3.5015067762359973,-0.4660252375891432
1761507126956776400,8.0327763671875,6.92178371450603,4.295079704898596,-0.6827926596287638
1761507126976933400,8.052933349609376,5.8059454556196926,4.868079206834733,-1.1559743083111942
1761507126997090300,8.07309033203125,4.903074240109325,5.457374010011553,-1.364850721372664
1761507127017247500,8.09324755859375,4.15251072435081,4.804688684681057,-1.4411203065827487
1761507127037403400,8.1134033203125,2.7297861984193323,1.4193278692305087,-0.413441977186501
1761507127057560300,8.133560302734375,-0.29625381387174127,-1.7276327709019184,0.28419527341797945
1761507127077717200,8.15371728515625,-4.030419883686304,-2.2020389198780057,-0.19492464273963123
1761507127097873400,8.173873291015624,-6.578551291838288,-4.901693891666829,0.414053679344058
1761507127118030300,8.1940302734375,-11.275871488690376,-6.715730980563164,0.44259007453117516
1761507127138187500,8.2141875,-15.868787308216094,-8.406820611965657,-1.3014568382181226
1761507127158344200,8.23434423828125,-19.66443631299734,-4.672079664872586,-2.2689278055414555
1761507127178500400,8.254500244140624,-19.741286912965773,-1.352707279114425,-0.5315618318608031
1761507127198657300,8.2746572265625,-16.702388003623483,-0.9378659565240144,1.8263810221627355
1761507127218814500,8.294814453125,-11.496958710157871,-1.4726654916644095,2.4488735999338327
1761507127238971400,8.314971435546875,-5.2618263034701345,-2.190828666816652,1.4668321093358099
1761507127259127300,8.335127197265624,-0.13771394173204898,-2.6641902751758693,0.4287092505536973
1761507127279284500,8.355284423828126,2.811563733395934,-2.3625270034760235,-0.30123350198045373
1761507127299441400,8.37544140625,5.270559645023941,-1.1366270721539855,-0.6429823350269347
1761507127319599400,8.395599365234375,7.2725798504263155,0.3304191183239221,0.09245178146511315
1761507127339756300,8.41575634765625,8.831024513924122,1.0956155550688504,0.5510332058543339
1761507127359913500,8.43591357421875,9.739624043953418,1.7045234057322143,1.010153340230137
1761507127380069400,8.4560693359375,10.426281781512499,1.9547601493164897,1.3184979893900453
1761507127400226300,8.476226318359375,10.63362923144102,1.8118217509344219,1.4129337842792271
1761507127420383500,8.496383544921875,10.658784715485572,1.7631816386669874,1.5535694586768745
1761507127440540400,8.51654052734375,10.323062230056523,2.0248916701629756,1.3691577709168194
1761507127460696600,8.536696533203125,9.476948674556612,2.0360633447796106,0.9353292045880108
1761507127480853200,8.556853271484375,8.635015619611739,2.4564278147056697,0.2863566161703318
1761507127501010400,8.577010498046874,7.536200391718745,2.6614818930000066,-0.16325762137658892
1761507127521167400,8.59716748046875,6.098015261805057,2.1467136307582257,0.27484051203019916
1761507127541323500,8.617323486328125,3.2786236112624403,0.8538169694840908,1.5907658013880253
1761507127561480200,8.637480224609375,-1.5385428621977566,-0.6072396251901984,1.2450456535577774
1761507127581637400,8.657637451171874,-7.440568518912792,-1.483964884313941,-1.6155699877768754
1761507127601794600,8.677794677734376,-11.893697097563743,-2.279407990762591,-2.699443374864757
1761507127621950500,8.697950439453125,-15.189425572884081,-3.3192718479931353,-2.647829215222597
1761507127642107100,8.718107177734375,-15.846643280947207,-4.035294503985345,-3.5257381311729548
1761507127662264300,8.738264404296874,-16.72156967395544,-4.290500560414791,-4.594752971825003
1761507127682421500,8.75842138671875,-14.834225649046896,-3.570885725149512,-3.140394121223688
1761507127702577400,8.778577392578125,-12.179638191735744,-2.937536968451738,0.3577755830114707
1761507127722734300,8.798734375,-9.560065349182485,-2.9450132956817745,1.7076736864566802
1761507127742891300,8.818891357421874,-4.591330011638998,-2.266363215750456,1.5660647831127046
1761507127763048400,8.83904833984375,-0.064083472853899,-1.3535846464708448,1.4346061023831367
1761507127783204400,8.859204345703125,3.4819881290346384,0.08280687802433967,1.432246387514472
1761507127803361500,8.879361572265625,6.121095108619332,1.3030492219761014,1.254671267776191
1761507127823518200,8.899518310546876,8.144691770535706,2.180979180714488,1.0069573206678033
1761507127843675400,8.91967529296875,9.768057526755332,2.6294614916220307,0.990768548541516
1761507127863831300,8.939831298828125,10.833713412368297,2.750363999284804,1.1575012256175279
1761507127883988700,8.95998876953125,10.886185942405461,2.5384362358286974,0.8014602478463202
1761507127904145700,8.980145751953126,10.446734202432632,2.325841825157404,0.2625366550458595
1761507127924302600,9.000302490234375,10.042025274538993,2.351692013467848,-0.07979340282152407
1761507127944458800,9.020458740234375,9.373971115162968,2.588270234055817,-0.040463664810871706
1761507127964615700,9.04061572265625,8.760598394045234,3.129356886641681,0.023784273323160594
1761507127984772600,9.060772705078126,8.26740395796895,3.757969846989214,-0.09371346283084712
1761507128004928500,9.080928466796875,7.511294498521089,3.4776620825290676,-0.16157397913858293
1761507128025085700,9.101085693359375,5.895934354102611,2.052796745176613,0.07005242772828787
1761507128045242600,9.12124267578125,3.4027713844567535,0.05649170255064964,0.8146836673609912
1761507128065399600,9.141399658203126,-0.24779578017294404,-2.320643379731476,2.3399761489719153
1761507128085556500,9.161556396484375,-5.8350821182549,-3.431264488491416,-0.8302195285364985
1761507128105712600,9.181712646484375,-12.340248440408706,-4.32693468658179,-2.854301928143203
1761507128125869600,9.20186962890625,-18.304354413461684,-6.177964996832609,-2.5094638238444924
1761507128146026500,9.222026611328126,-21.36041722357273,-4.568221815513074,-2.8746617023438215
1761507128166182400,9.242182373046875,-22.407716783761977,-1.4240098895668982,-2.5036557220876214
1761507128186339600,9.262339599609374,-19.530778368657828,-0.6909414062276482,-0.24126402205033226
1761507128206496800,9.282496826171876,-13.348396724426745,-2.592100898259878,2.2218758392482996
1761507128226653700,9.30265380859375,-6.722381086102128,-4.046810461995006,2.38356613824293
1761507128246809600,9.3228095703125,-1.1120482189536094,-3.8781837878659364,1.4938194849826394
1761507128266966500,9.342966552734374,3.0965444581031796,-3.1299919696748253,0.6625961862310766
1761507128287123700,9.363123779296876,5.775141736555099,-1.0350088184148072,-0.4025744731482118
1761507128307280600,9.38328076171875,7.531687882730364,1.34379302803576,-0.5380498787058517
1761507128327436800,9.403436767578125,9.104207833331822,2.9382559303760525,0.005669990194123238
1761507128347593500,9.423593505859374,10.078220038992166,3.204861917220056,0.6959557272583246
1761507128367750700,9.443750732421876,9.953763638240098,2.7089821875825524,0.30653058547526596
1761507128387907600,9.463907470703125,9.856320332098006,2.2731468845412133,-0.0393536303428933
1761507128408063700,9.484063720703125,9.496291672930122,2.481546766132116,-0.04228845995208248
1761507128428220400,9.504220458984374,8.738526262968778,2.7276117769896984,-0.2576392383931205
1761507128448377600,9.524377685546876,8.122595089539885,3.247191238905489,-0.6407159244649112
1761507128468534800,9.54453466796875,7.372346046558022,3.464961006388068,-1.1807942037258297
1761507128488690700,9.564690673828125,7.024145772349834,3.654473524418473,-1.3064990701690316
1761507128508847600,9.58484765625,6.966797160708904,3.96475995529592,-1.2262664265468717
1761507128529004500,9.605004638671875,6.68293111924529,3.6066722010627386,-0.29473402042593805
1761507128549161700,9.62516162109375,5.43858221578002,0.8563117089092731,0.7144240616891533
1761507128569317600,9.645317626953124,1.543652168035507,-3.031057840453088,1.2636911711864172
1761507128589474600,9.665474609375,-4.373108116474747,-2.5239123281747102,-0.3539390005232766
1761507128609631500,9.685631591796875,-10.614368066132068,-2.380374794855714,0.5006800060587003
1761507128629788700,9.70578857421875,-15.39502647140622,-4.557134312048555,1.1724216583084315
1761507128649944600,9.725944580078124,-16.477732860541344,-8.569939628589152,-0.5374413183534518
1761507128670101800,9.746101806640626,-16.836984690117834,-7.790902882540226,-2.5821944212734698
1761507128690258400,9.766258544921875,-16.318456490820644,-5.9711915473997585,-2.0297351646713913
1761507128710415600,9.78641552734375,-13.534267671084404,-3.607495500144362,1.247724225117266
1761507128730571500,9.806571533203124,-8.487497492223978,-2.371235502849519,2.568708039973676
1761507128750728700,9.826728759765626,-2.693036722692847,-2.069226194190979,1.898513507568091
1761507128770885600,9.8468857421875,2.0176000518500805,-1.3570786260664462,0.49545755870267744
1761507128791042600,9.86704248046875,5.454059186375141,-0.2200602165073156,-0.6449413601402193
1761507128811198700,9.88719873046875,7.951094613540172,0.8880033167243003,-0.4709259421775117
1761507128831355600,9.907355712890626,9.7566675332129,1.1544307321310043,0.09491502977348863
1761507128851512600,9.9275126953125,10.333430479335785,1.1714815279141069,0.06905899624414742
1761507128871669500,9.94766943359375,10.464300254261493,1.7607815917879341,0.056220301730744535
1761507128891825700,9.96782568359375,10.01359179173708,1.8132143743366003,-0.3417153326356783
1761507128911982600,9.987982666015625,9.299345790028571,2.010676097805798,-0.5203004696667194
1761507128932139500,10.008139404296875,8.031476894766092,2.465318100386858,-0.5054122587449849
1761507128952296400,10.02829638671875,6.216061795514822,2.9896614157035946,-0.4617865405734628
1761507128972452600,10.04845263671875,4.906891168048977,3.8671617508530614,-0.16864203609498216
1761507128992609500,10.068609619140625,4.376246414500475,4.377717071574926,0.1553777913795784
1761507129012766700,10.0887666015625,4.252144818535447,4.155454961109161,0.5867352548871189
1761507129032923600,10.108923583984375,3.54763285985589,2.0332269523099065,0.7534569721776991
1761507129053079600,10.12907958984375,0.5623591577172279,-1.2157803961068392,0.44628114760145543
1761507129073236700,10.14923681640625,-4.369425628569722,-2.1548940146043893,-1.5645314360655844
1761507129093393700,10.1693935546875,-6.849947143307328,-2.6876959461867806,-1.8111378603234887
1761507129113550600,10.189550537109374,-7.933392952632904,-4.10342257605493,0.2427607086151838
1761507129133706500,10.20970654296875,-7.469225289076566,-6.4946583721429105,-0.2490183990367688
1761507129153863700,10.22986376953125,-7.683602199250459,-7.8259110675573345,0.41706754727251827
1761507129174020600,10.2500205078125,-9.045693685042858,-7.506241891306638,-0.3939617988320067
1761507129194177500,10.270177490234374,-9.572098316803574,-5.0600902636826035,-1.00861144455038
1761507129214333400,10.29033349609375,-8.297679853767157,-2.922166088579595,-1.254987932509929
1761507129234490600,10.31049072265625,-3.7491251540154216,-1.887354254041612,-0.9893823548801243
1761507129254647800,10.330647705078125,1.6357640500217676,-1.329937813423574,-0.14979443828929215
1761507129274804500,10.350804443359374,3.420411670565605,-0.20966186435073614,-0.36929705744646485
1761507129294960400,10.37096044921875,3.148530665928125,0.552936957116425,-0.4128034235546365
1761507129315117600,10.39111767578125,3.6263895857065913,1.2641124653384088,0.4716172489099204
1761507129335274800,10.411274658203125,5.691779562735557,1.795935322755575,0.9908789501134305
1761507129355431700,10.431431640625,7.7990259832412,1.5595377194315194,0.7018820485673845
1761507129375587600,10.451587646484375,9.13071473198533,1.1748954280108213,0.6986252387285232
1761507129395744500,10.47174462890625,9.481775071799754,1.540851431401074,0.9968805286157876
1761507129415901700,10.491901611328124,8.895379204934835,2.3312618043795226,1.1363713438272476
1761507129436058600,10.51205859375,7.61321699590385,3.073326079601049,1.2095187784288077
1761507129456214800,10.53221484375,6.780188547426461,3.606153145624697,1.2067129272278398
1761507129476371500,10.552371337890625,6.273915434068441,3.0684026517242193,0.7596133759155869
1761507129496528600,10.572528564453124,3.7904292243063447,1.0184309008404613,0.8582632813684642
1761507129516685800,10.592685791015626,-0.34800504389703274,-1.0097934208765624,0.45599392864666877
1761507129536841700,10.612841796875,-5.398429653611779,-2.5154414369493723,-0.9653495912551879
