time,seconds_elapsed,z,y,x
1761507119015043600,0.091043701171875,0.25890594720840454,0.5339912176132202,0.26044100522994995
1761507119035199500,0.111199462890625,0.0460502952337265,0.7634736895561218,0.2688788175582886
1761507119055356400,0.1313564453125,0.046396564692258835,0.4175708591938019,0.21884696185588837
1761507119075512300,0.15151220703125,-0.17260277271270752,-0.27958428859710693,0.3054826557636261
1761507119095669500,0.17166943359375,-0.5190282464027405,-0.3892163932323456,0.487690269947052
1761507119115826700,0.19182666015625,-0.6066223978996277,0.05706945061683655,0.2419959306716919
1761507119135982600,0.211982666015625,-0.2603999376296997,-0.3209701478481293,-0.6823707818984985
1761507119156139300,0.23213916015625,-0.09921925514936447,-0.3524008095264435,-0.8693830966949463
1761507119176296400,0.25229638671875,-0.043132562190294266,0.4910808205604553,-0.41017264127731323
1761507119196452400,0.272452392578125,0.07633453607559204,0.3663099408149719,-0.22322167456150055
1761507119216609500,0.292609619140625,0.173174187541008,-0.30564767122268677,-0.18593068420886993
1761507119236766500,0.312766357421875,-0.007254942320287228,-0.9040467739105225,0.03433404490351677
1761507119256922400,0.33292236328125,-0.5509173274040222,-1.1952184438705444,0.2946401834487915
1761507119277079600,0.35307958984375,-1.0377496480941772,-1.3972439765930176,0.11770440638065338
1761507119297235500,0.3732353515625,-1.199541449546814,-1.1721854209899902,-0.201065793633461
1761507119317392600,0.393392578125,-0.8515568971633911,-0.7870067954063416,-0.7605359554290771
1761507119337549600,0.413549560546875,-0.4480055272579193,-0.23117850720882416,-1.1296347379684448
1761507119357705500,0.43370556640625,-0.41721898317337036,0.14185912907123566,-1.040897011756897
1761507119377862400,0.4538623046875,-0.5393468737602234,0.06126219034194946,-0.7115259766578674
1761507119398019600,0.47401953125,-0.5745934247970581,-0.10889901965856552,-0.5244988203048706
1761507119418175500,0.494175537109375,-0.42334550619125366,0.1654624044895172,-0.5831772089004517
1761507119438332700,0.514332763671875,-0.15525111556053162,0.22260917723178864,-0.5507875084877014
1761507119458489300,0.5344892578125,-0.18377329409122467,0.21084865927696228,-0.1766408234834671
1761507119478645500,0.5546455078125,-0.3688606917858124,0.06786341965198517,-0.14488531649112701
1761507119498802400,0.574802490234375,-0.09152542799711227,-0.19002483785152435,-0.39116171002388
1761507119518959600,0.594959716796875,0.21984411776065826,-0.5196671485900879,0.2861039340496063
1761507119539115500,0.615115478515625,0.13055433332920074,0.36598655581474304,2.0534160137176514
1761507119559272400,0.6352724609375,0.07520026713609695,0.16012151539325714,2.8959972858428955
1761507119579428400,0.655428466796875,-0.03395947441458702,-1.1131575107574463,2.155928611755371
1761507119599585500,0.67558544921875,-0.2951115071773529,-1.9311039447784424,0.6063582301139832
1761507119619742500,0.695742431640625,-0.6236458420753479,-1.2119239568710327,-0.6394531726837158
1761507119639898600,0.715898681640625,-0.34890106320381165,-0.33660197257995605,-0.9586399793624878
1761507119660055300,0.73605517578125,-0.279938280582428,-0.16331793367862701,-0.9350252747535706
1761507119680212500,0.75621240234375,-0.645083487033844,-0.28637635707855225,-0.9778397679328918
1761507119700368400,0.776368408203125,-0.9107065796852112,-0.2629668414592743,-0.7204723954200745
1761507119720525600,0.796525634765625,-0.9977352023124695,-0.029344972223043442,-0.4778219163417816
1761507119740682500,0.8166826171875,-1.0698391199111938,0.29578840732574463,-0.35628968477249146
1761507119760838400,0.83683837890625,-0.9857908487319946,0.5184176564216614,-0.1072421595454216
1761507119780995600,0.85699560546875,-0.5913916826248169,0.671183168888092,0.2847224771976471
1761507119801152500,0.877152587890625,-0.19963997602462769,0.6024528741836548,0.3322852849960327
1761507119821308400,0.897308349609375,-0.270190954208374,0.4299040138721466,-0.0635169968008995
1761507119841465600,0.917465576171875,-0.7641137838363647,0.39103448390960693,-0.7823975682258606
1761507119861621500,0.93762158203125,-0.954498827457428,0.6799695491790771,-1.1561836004257202
1761507119881779000,0.957779052734375,-0.7940710783004761,1.1505587100982666,-1.0939922332763672
1761507119901936000,0.97793603515625,-0.6110058426856995,1.4019020795822144,-0.6597080230712891
1761507119922092000,0.998092041015625,-0.5417509078979492,1.386662483215332,-0.015173600055277348
1761507119942249000,1.0182490234375,-0.23436307907104492,0.9333623051643372,0.4584476947784424
1761507119962406000,1.038406005859375,0.13358448445796967,-0.04534721001982689,1.0014384984970093
1761507119982562000,1.05856201171875,0.0021393848583102226,-1.37674880027771,1.348421573638916
1761507120002719000,1.078718994140625,-0.013790544122457504,-1.250468373298645,1.9532819986343384
1761507120022876000,1.0988759765625,0.6413585543632507,0.2837582230567932,2.7198190689086914
1761507120043031800,1.11903173828125,0.6173772215843201,0.911111056804657,1.4329148530960083
1761507120063189000,1.13918896484375,0.607606828212738,1.2766257524490356,0.550480306148529
1761507120083346000,1.159345947265625,0.98758864402771,1.0851010084152222,0.6115649342536926
1761507120103502000,1.179502197265625,1.046366572380066,0.7970048189163208,1.0284172296524048
1761507120123659000,1.199658935546875,0.5896359086036682,0.4517155587673187,0.9998525381088257
1761507120143816000,1.21981591796875,0.24763906002044678,0.11132840812206268,0.8777722120285034
1761507120163971800,1.239971923828125,0.16956858336925507,-0.0004715537652373314,0.43249574303627014
1761507120184129000,1.26012890625,0.035416487604379654,-0.2522386312484741,-0.45548015832901
1761507120204285000,1.280284912109375,-0.3952154517173767,-0.7956918478012085,-1.3414969444274902
1761507120224442000,1.300442138671875,-1.158361554145813,-0.5258403420448303,-1.5896130800247192
1761507120244599000,1.32059912109375,-1.194098949432373,0.7577713131904602,-1.068610429763794
1761507120264755000,1.3407548828125,-0.7167830467224121,1.0956988334655762,-0.7909256815910339
1761507120284911900,1.360911865234375,-0.4480626881122589,0.40225714445114136,-0.8659807443618774
1761507120305069000,1.381069091796875,-0.571709394454956,0.0889177992939949,-0.9525406360626221
1761507120325225000,1.401224853515625,-0.6856648325920105,0.3133542239665985,-1.094489336013794
1761507120345382000,1.4213818359375,-0.4997890889644623,0.5575054287910461,-1.3624733686447144
1761507120365539000,1.4415390625,-0.2735292315483093,0.6492046117782593,-1.6053953170776367
1761507120385695000,1.461695068359375,-0.32318514585494995,0.4907228350639343,-1.5923415422439575
1761507120405852200,1.48185205078125,-0.36620303988456726,0.08408400416374207,-1.1104761362075806
1761507120426008800,1.5020087890625,-0.3112688958644867,-0.19397509098052979,-0.5933758616447449
1761507120446165000,1.5221650390625,-0.2080310881137848,-0.35125109553337097,-0.31281813979148865
1761507120466322000,1.542322021484375,0.052772682160139084,-0.10771509259939194,0.5121936202049255
1761507120486478000,1.56247802734375,0.09983516484498978,-0.4401898980140686,1.1775989532470703
1761507120506635000,1.582635009765625,-0.2519100308418274,-2.6802635192871094,0.7746029496192932
1761507120526792000,1.6027919921875,-0.22178959846496582,-3.4078786373138428,1.1063518524169922
1761507120546947800,1.62294775390625,0.01673000119626522,-1.276676893234253,1.8347183465957642
1761507120567105000,1.64310498046875,0.7160103917121887,0.8484079837799072,1.1431549787521362
1761507120587262000,1.663261962890625,1.1050946712493896,1.487912654876709,-0.4450600743293762
1761507120607418000,1.683418212890625,1.0312501192092896,0.8163823485374451,-1.005249261856079
1761507120627575000,1.703574951171875,0.28497323393821716,-0.2490202784538269,-0.6896489262580872
1761507120647732000,1.72373193359375,-0.6910676956176758,-0.44688037037849426,-0.4147059917449951
1761507120667887900,1.743887939453125,-1.2882729768753052,-0.6272239089012146,-0.5668941736221313
1761507120688045000,1.764045166015625,-1.362505316734314,-0.8024542927742004,-1.0312080383300781
1761507120708202000,1.784201904296875,-1.1779861450195312,-0.2705024778842926,-1.4622812271118164
1761507120728358100,1.804358154296875,-1.1951375007629395,0.38511407375335693,-1.6180667877197266
1761507120748514800,1.824514892578125,-1.2153209447860718,0.9899585247039795,-0.9097615480422974
1761507120768671000,1.8446708984375,-1.1362440586090088,1.2652162313461304,-0.07439712435007095
1761507120788828000,1.864827880859375,-1.0990980863571167,0.8714912533760071,0.27461883425712585
1761507120808985000,1.884985107421875,-1.0523760318756104,0.08260612189769745,0.08147499710321426
1761507120829141000,1.90514111328125,-1.0890567302703857,-0.4118938744068146,-0.18878935277462006
1761507120849298000,1.9252978515625,-1.0232925415039062,-0.39772742986679077,-0.3417659103870392
1761507120869455000,1.945455078125,-0.9195468425750732,-0.4425898492336273,-0.42675328254699707
1761507120889609700,1.965609619140625,-0.7967112064361572,-0.46700096130371094,-0.14960239827632904
1761507120909767000,1.985766845703125,-0.5096988081932068,-0.381173700094223,0.4685373902320862
1761507120929923800,2.005923828125,-0.1348392218351364,-0.3032352924346924,0.9736261963844299
1761507120950080000,2.026080078125,0.2043643742799759,-0.17248380184173584,1.3267806768417358
1761507120970236700,2.046236572265625,0.4122435748577118,-0.1892371028661728,1.3257895708084106
1761507120990393900,2.066393798828125,0.4316492974758148,-0.21570277214050293,0.9646419286727905
1761507121010549800,2.0865498046875,0.6489338874816895,-0.0015414431691169739,0.7515726089477539
1761507121030707000,2.10670703125,1.0650912523269653,0.8352561593055725,1.240875482559204
1761507121050863900,2.12686376953125,1.1403160095214844,1.099634051322937,1.591571569442749
1761507121071019800,2.147019775390625,0.9577407240867615,0.5302059054374695,0.8226038217544556
1761507121091176700,2.1671767578125,0.7753733992576599,0.8159430027008057,-0.04297567903995514
1761507121111334000,2.187333984375,0.8238878846168518,1.1786034107208252,-0.8078382015228271
1761507121131489800,2.20748974609375,0.3464815020561218,0.5707431435585022,-2.049102783203125
1761507121151647000,2.22764697265625,-0.4384719431400299,-0.49721360206604004,-3.2184457778930664
1761507121171804000,2.247803955078125,-0.7805641889572144,-0.5342047214508057,-3.6866307258605957
1761507121191959800,2.267959716796875,-0.3234623968601227,0.10577329248189926,-3.337984085083008
1761507121212117000,2.288116943359375,0.005635544192045927,0.25959986448287964,-2.5782227516174316
1761507121232274000,2.30827392578125,-0.04802636802196503,0.24114783108234406,-1.4930790662765503
1761507121252430000,2.32843017578125,0.09571833163499832,0.3753119111061096,-0.2640385925769806
1761507121272586800,2.348586669921875,0.6394975781440735,0.5346581935882568,0.6478694677352905
1761507121292744000,2.368743896484375,0.8267256617546082,0.954720139503479,0.7773393988609314
1761507121312899800,2.38889990234375,0.35691022872924805,1.1806116104125977,0.2238340824842453
1761507121333057000,2.40905712890625,-0.06716722995042801,1.0687860250473022,-0.3871056139469147
1761507121353213700,2.429213623046875,-0.06700452417135239,0.8278307914733887,-0.5583226084709167
1761507121373369900,2.449369873046875,0.14505496621131897,0.44784465432167053,-0.263286292552948
1761507121393526800,2.46952685546875,0.415281742811203,-0.04097342863678932,0.4374190866947174
1761507121413684000,2.48968408203125,0.5037100315093994,-0.6595702767372131,1.3522379398345947
1761507121433839900,2.50983984375,0.43359702825546265,-1.0364646911621094,1.9626269340515137
1761507121453996800,2.529996826171875,0.49205464124679565,-0.7945083379745483,2.3551270961761475
1761507121474153700,2.55015380859375,0.8744210600852966,0.07884468138217926,2.9368398189544678
1761507121494310000,2.570309814453125,1.2982791662216187,0.8482025861740112,3.7542600631713867
1761507121514466800,2.590466796875,0.7107690572738647,-0.4454743266105652,3.3080825805664062
1761507121534623700,2.610623779296875,0.21457843482494354,-1.401908278465271,2.3831920623779297
1761507121554779600,2.630779541015625,0.6522132754325867,-0.5327262878417969,2.359297275543213
1761507121574936800,2.650936767578125,1.278711199760437,0.31976550817489624,1.5485564470291138
1761507121595094000,2.671093994140625,1.2373450994491577,0.6714624762535095,-0.013318832963705063
1761507121615250000,2.69125,1.0077234506607056,0.4022044539451599,-0.5580248236656189
1761507121635406800,2.71140673828125,0.5791804194450378,-0.34839320182800293,-0.5950412750244141
1761507121655563800,2.731563720703125,0.21192796528339386,-1.0243302583694458,-0.9941031336784363
1761507121675720000,2.751719970703125,0.3091696500778198,-1.0806047916412354,-1.8594143390655518
1761507121695876900,2.771876953125,0.6613022685050964,-0.6964678764343262,-2.826777219772339
1761507121716034000,2.792033935546875,0.9006641507148743,-0.0611579492688179,-3.635261058807373
1761507121736190000,2.81218994140625,0.8901910781860352,0.9972414374351501,-3.8908114433288574
1761507121756347000,2.832346923828125,0.622785747051239,1.930924892425537,-3.440950393676758
1761507121776503800,2.85250390625,0.24255385994911194,2.278485059738159,-2.430743455886841
1761507121796660000,2.872659912109375,0.003942958079278469,1.7729922533035278,-1.4719555377960205
1761507121816817000,2.89281689453125,-0.46915385127067566,0.512736439704895,-0.36104846000671387
1761507121836973800,2.912973876953125,-0.6802588701248169,-0.15542933344841003,-0.17938649654388428
1761507121857129700,2.933129638671875,-0.6123870611190796,-0.3723956048488617,-0.6474004983901978
1761507121877287000,2.953286865234375,-0.4157361686229706,-0.3896197974681854,-0.4097464680671692
1761507121897444000,2.973444091796875,-0.05464019626379013,-0.19108691811561584,0.2699446678161621
1761507121917600000,2.99360009765625,0.18692517280578613,-0.30139562487602234,1.028780221939087
1761507121937757000,3.0137568359375,0.3913831114768982,-0.6472083330154419,1.5442851781845093
1761507121957913900,3.033913818359375,0.6501902341842651,-0.7156214714050293,1.9776567220687866
1761507121978070000,3.054070068359375,0.7043631672859192,-0.7336822152137756,2.4482581615448
1761507121998227000,3.07422705078125,0.2193756401538849,-2.1112520694732666,2.609259605407715
1761507122018384000,3.0943837890625,-0.18585458397865295,-4.241860866546631,2.332993745803833
1761507122038539800,3.114539794921875,-0.08886297047138214,-4.794214725494385,2.462738275527954
1761507122058697000,3.134697021484375,0.20028626918792725,-3.1567423343658447,2.7213683128356934
1761507122078854100,3.154854248046875,0.4216819107532501,-1.0483323335647583,1.1734051704406738
1761507122099010000,3.175010009765625,0.531360387802124,0.6751083731651306,-0.47390684485435486
1761507122119167000,3.1951669921875,0.32873496413230896,1.608838677406311,-1.1717489957809448
1761507122139324000,3.215323974609375,0.0450495146214962,1.8874951601028442,-1.9302376508712769
1761507122159480000,3.23547998046875,0.012803945690393448,1.8995589017868042,-2.125196933746338
1761507122179637000,3.255636962890625,-0.162896528840065,1.6359539031982422,-1.8452776670455933
1761507122199794200,3.275794189453125,-0.5074762105941772,0.965417742729187,-1.284964680671692
1761507122219950000,3.2959501953125,-0.8049604892730713,0.4156651794910431,-0.5211522579193115
1761507122240107000,3.31610693359375,-0.8537425398826599,0.43752384185791016,-0.013327068649232388
1761507122260264000,3.336263916015625,-0.8505874276161194,0.8525446653366089,-0.10501322150230408
1761507122280420000,3.356420166015625,-0.8710092306137085,1.012599229812622,-0.5530992150306702
1761507122300577000,3.376576904296875,-0.8359701037406921,0.7053760886192322,-0.8624871969223022
1761507122320734000,3.39673388671875,-0.9651483297348022,0.40270084142684937,-0.5691243410110474
1761507122340889900,3.416889892578125,-1.3032723665237427,0.3221876323223114,-0.26222652196884155
1761507122361047000,3.437047119140625,-1.4729840755462646,0.2818446457386017,-0.10784506052732468
1761507122381204000,3.457203857421875,-1.3908177614212036,0.18489909172058105,-0.162319153547287
1761507122401360100,3.477360107421875,-1.2292858362197876,0.09888867288827896,-0.3982127010822296
1761507122421516800,3.497516845703125,-0.9205703735351562,0.2603677809238434,-0.2752259075641632
1761507122441674000,3.517674072265625,-0.46044042706489563,0.3817521631717682,0.1826590746641159
1761507122461830000,3.537829833984375,-0.14349134266376495,0.3251248598098755,0.6165446043014526
1761507122481987000,3.557987060546875,0.0591791532933712,0.29059383273124695,1.2959718704223633
1761507122502144000,3.57814404296875,0.09612356871366501,-0.1899442970752716,1.4901821613311768
1761507122522301000,3.598301025390625,-0.037399571388959885,-1.0206611156463623,0.8569132089614868
1761507122542457000,3.61845703125,0.08218584209680557,-1.150284767150879,-0.19707199931144714
1761507122562614000,3.638614013671875,0.28100988268852234,-0.7218682169914246,-0.9587368369102478
1761507122582771000,3.65877099609375,0.39632025361061096,-0.6577795743942261,-1.1623775959014893
1761507122602926800,3.6789267578125,0.7739934921264648,-0.3997509777545929,-0.3415706157684326
1761507122623084000,3.699083984375,0.9759567379951477,0.07109563052654266,0.7640044689178467
1761507122643241000,3.719240966796875,0.4496532380580902,-0.6213752627372742,0.6535184383392334
1761507122663397000,3.739397216796875,0.034276995807886124,-2.583815813064575,-0.13892824947834015
1761507122683554000,3.759553955078125,0.3434465527534485,-3.020601987838745,-1.3714821338653564
1761507122703711000,3.7797109375,0.9736211895942688,-0.24308504164218903,-2.4778552055358887
1761507122723867000,3.799866943359375,1.8402982950210571,1.9923774003982544,-2.275799036026001
1761507122744024000,3.820024169921875,3.3697502613067627,1.2042988538742065,-0.6189687252044678
1761507122764181000,3.840180908203125,1.9916133880615234,1.5133010149002075,0.3362481892108917
1761507122784337200,3.860337158203125,-1.0804369449615479,1.0752118825912476,0.5449956655502319
1761507122804493800,3.880493896484375,-1.857736587524414,-0.7187673449516296,0.9382967948913574
1761507122824651000,3.900651123046875,-1.2805092334747314,-1.5859111547470093,1.0694551467895508
1761507122844807000,3.920806884765625,-0.5896530747413635,-1.082943081855774,0.30349794030189514
1761507122864964000,3.940964111328125,-0.31964853405952454,-0.08214623481035233,-0.35313841700553894
1761507122885121000,3.96112109375,-0.25616252422332764,0.292915403842926,-0.3019953966140747
1761507122905278200,3.9812783203125,-0.18968302011489868,0.3297843039035797,0.15911173820495605
1761507122925434000,4.00143408203125,-0.07504422962665558,0.33802536129951477,0.7634259462356567
1761507122945591300,4.02159130859375,0.1690622866153717,0.33530542254447937,1.5450518131256104
1761507122965748000,4.041748046875,0.35461342334747314,0.5408245921134949,2.123051881790161
1761507122985904000,4.061904052734375,0.40668749809265137,1.0299274921417236,2.3390257358551025
1761507123006061000,4.08206103515625,0.3082154393196106,1.1609981060028076,1.8868612051010132
1761507123026218200,4.10221826171875,0.07301657646894455,0.7561721205711365,0.6990755796432495
1761507123046374100,4.1223740234375,-0.10961870849132538,0.4885731339454651,-0.09768527746200562
1761507123066531000,4.142531005859375,0.2539379596710205,0.339322954416275,0.7826998233795166
1761507123086688000,4.16268798828125,0.7512395977973938,-0.277022123336792,1.1297231912612915
1761507123106844200,4.18284423828125,0.6502670645713806,-0.2938656508922577,0.2891392707824707
1761507123127001000,4.2030009765625,0.6050628423690796,0.3951354920864105,-0.2687470614910126
1761507123147158300,4.223158203125,0.45949169993400574,0.2791268825531006,-0.8359520435333252
1761507123167314200,4.243314208984375,0.14657311141490936,-0.5636919736862183,-1.6435449123382568
1761507123187471000,4.26347119140625,-0.01312934048473835,-1.053916335105896,-2.2180016040802
1761507123207628000,4.2836279296875,-0.11065556108951569,-0.774114191532135,-2.2389626502990723
1761507123227785200,4.30378515625,-0.19057559967041016,-0.28019675612449646,-1.3611661195755005
1761507123247941000,4.323941162109375,0.06044371798634529,-0.21006610989570618,0.3377739489078522
1761507123268098000,4.34409814453125,0.983502209186554,-0.5993255376815796,1.311829924583435
1761507123288255200,4.364255126953125,1.1956486701965332,-0.9854291677474976,0.7989671230316162
1761507123308411100,4.3844111328125,0.42321720719337463,-0.6363956332206726,-0.033519815653562546
1761507123328568300,4.404568359375,-0.25592872500419617,0.06877300888299942,-0.3392981290817261
1761507123348725000,4.42472509765625,-0.5087383985519409,0.32712867856025696,-0.17260900139808655
1761507123368881200,4.444881103515625,-0.47721487283706665,0.4427471458911896,0.00617014616727829
1761507123389038000,4.4650380859375,-0.4395638704299927,0.5018931031227112,-0.011737964116036892
1761507123409195300,4.4851953125,-0.4320915937423706,0.38711556792259216,-0.09786863625049591
1761507123429351200,4.50535107421875,-0.38080886006355286,0.3470500707626343,-0.04632844775915146
1761507123449508000,4.525508056640625,-0.34191614389419556,0.4612649977207184,0.3471331298351288
1761507123469665000,4.5456650390625,-0.2824787497520447,0.66871178150177,0.7681112289428711
1761507123489822200,4.565822265625,-0.1903885453939438,0.6379344463348389,1.0104024410247803
1761507123509978000,4.58597802734375,0.09150199592113495,0.400232195854187,1.166693091392517
1761507123530135000,4.606135009765625,0.17334702610969543,0.021912995725870132,1.108446717262268
1761507123550292000,4.6262919921875,-0.2560235857963562,-0.686949610710144,0.6024296879768372
1761507123570448100,4.6464482421875,-0.7254277467727661,-1.0252803564071655,-0.19873188436031342
1761507123590605000,4.66660498046875,-1.0275251865386963,-0.9997562170028687,-0.6461834907531738
1761507123610762200,4.68676220703125,-0.08349169045686722,-0.0014711171388626099,0.9006453156471252
1761507123630918100,4.706918212890625,0.6931058764457703,0.27386534214019775,2.524427652359009
1761507123651075000,4.727074951171875,0.12418604642152786,-0.5159963965415955,2.1567368507385254
1761507123671232300,4.747232177734375,-0.3157244622707367,-0.2852184474468231,0.7057133913040161
1761507123691389200,4.76738916015625,-0.5023518800735474,0.039828572422266006,-0.4075491726398468
1761507123711545300,4.78754541015625,-0.7710104584693909,-0.07695645838975906,-0.4968664050102234
1761507123731702000,4.807701904296875,-0.7759143710136414,0.08130067586898804,-0.853868305683136
1761507123751859200,4.827859130859375,-0.6046814322471619,0.768875002861023,-1.355726957321167
1761507123772015000,4.84801513671875,-0.34588736295700073,0.9943442344665527,-1.0771162509918213
1761507123792172300,4.86817236328125,-0.40404951572418213,0.4640745520591736,-0.34615573287010193
1761507123812329000,4.888328857421875,-0.6358035206794739,0.022977253422141075,-0.10901553928852081
1761507123832485000,4.908485107421875,-0.6789591908454895,-0.36445266008377075,-0.33760231733322144
1761507123852642000,4.92864208984375,-0.5413104891777039,-0.42918452620506287,-0.5459430813789368
1761507123872799200,4.94879931640625,-0.3609007000923157,-0.16514618694782257,-0.48506855964660645
1761507123892956000,4.968955810546875,-0.25416064262390137,0.5109885931015015,0.44526201486587524
1761507123913112000,4.989112060546875,-0.2016497552394867,0.686909556388855,1.316388726234436
1761507123933269000,5.00926904296875,0.17109315097332,0.667130172252655,2.054166316986084
1761507123953426200,5.02942626953125,0.47840747237205505,0.6747329235076904,2.567692995071411
1761507123973582000,5.04958203125,0.44803333282470703,0.6288967728614807,2.475013494491577
1761507123993739000,5.069739013671875,0.2565303146839142,0.7575212121009827,2.8632447719573975
1761507124013896200,5.089896240234375,0.09130814671516418,0.9367910623550415,3.373544454574585
1761507124034052000,5.110052001953125,0.12423090636730194,0.07709039002656937,2.543440580368042
1761507124054209300,5.130209228515625,0.420940101146698,-0.7478351593017578,1.3223578929901123
1761507124074366200,5.1503662109375,0.6167802214622498,-0.5752384066581726,0.977389395236969
1761507124094523100,5.170523193359375,0.7239958047866821,0.02223331853747368,1.0998166799545288
1761507124114679000,5.190678955078125,1.0109889507293701,0.22259771823883057,0.7552280426025391
1761507124134836200,5.210836181640625,1.4572094678878784,0.08785885572433472,0.6543208956718445
1761507124154993200,5.2309931640625,1.6419926881790161,-0.5118591785430908,0.04562695696949959
1761507124175149300,5.2511494140625,1.7244774103164673,-0.8145643472671509,-0.8618048429489136
1761507124195306000,5.271305908203125,1.5856904983520508,-0.868303120136261,-1.91868257522583
1761507124215463200,5.291463134765625,0.8667994141578674,-1.2904027700424194,-3.027489423751831
1761507124235619000,5.311619140625,0.37337037920951843,-1.3386635780334473,-3.5185680389404297
1761507124255776300,5.3317763671875,0.5358973145484924,-0.2896187901496887,-3.2040669918060303
1761507124275933000,5.351932861328125,0.4270956218242645,0.5863414406776428,-2.800366163253784
1761507124296090000,5.372090087890625,0.13479384779930115,1.023098111152649,-2.07631778717041
1761507124316246000,5.39224609375,-0.309308260679245,0.737109363079071,-1.8666528463363647
1761507124336403200,5.4124033203125,-0.4843168556690216,0.022634543478488922,-1.8815070390701294
1761507124356560100,5.43256005859375,-0.5642745494842529,-0.514857292175293,-1.4314006567001343
1761507124376716000,5.452716064453125,-0.6020472049713135,-0.5632543563842773,-0.8795435428619385
1761507124396873000,5.472873046875,-0.7435625791549683,-0.3139135539531708,-0.7855421304702759
1761507124417030100,5.493030029296875,-0.6609335541725159,-0.046860989183187485,-0.7285601496696472
1761507124437186000,5.51318603515625,-0.7171172499656677,0.4830239415168762,-0.11365556716918945
1761507124457343000,5.533343017578125,-0.6137543320655823,1.4103195667266846,0.8391191959381104
1761507124477500200,5.553500244140625,-0.4539543688297272,1.5937949419021606,1.5284208059310913
1761507124497657000,5.573656982421875,-0.36300724744796753,1.2052932977676392,2.184661626815796
1761507124517813200,5.593813232421875,-0.21716006100177765,1.082626223564148,2.5307657718658447
1761507124537970200,5.61397021484375,-0.08416734635829926,0.7497814893722534,2.0922460556030273
1761507124558127000,5.634127197265625,-0.18979254364967346,-0.9663851261138916,1.423154592514038
1761507124578283000,5.654282958984375,-0.4808366596698761,-1.3280993700027466,1.8796194791793823
1761507124598440200,5.674440185546875,-0.2289903312921524,-0.7681607604026794,1.8005778789520264
1761507124618597000,5.69459716796875,0.3292829394340515,-0.4141247272491455,0.9961397647857666
1761507124638754000,5.714754150390625,0.8650984764099121,-0.04753908887505531,0.25072911381721497
1761507124658910000,5.734909912109375,1.0249875783920288,0.4151360094547272,-0.10141345113515854
1761507124679067100,5.755067138671875,0.8660044074058533,0.40661177039146423,-0.3912445306777954
1761507124699224000,5.77522412109375,0.37355270981788635,0.032190244644880295,-0.5690281391143799
1761507124719380200,5.795380126953125,0.08185303956270218,-0.24955953657627106,-0.7897953987121582
1761507124739537000,5.815536865234375,0.08641046285629272,-0.3272310793399811,-1.1408872604370117
1761507124759694000,5.835694091796875,-0.03928906470537186,0.0648663192987442,-1.0092518329620361
1761507124779850000,5.85585009765625,-0.10074770450592041,0.48855239152908325,-0.24013398587703705
1761507124800007200,5.876007080078125,0.3556560277938843,1.4814469814300537,-0.052697036415338516
1761507124820164000,5.8961640625,0.24397392570972443,0.4130222201347351,-0.025076232850551605
1761507124840321000,5.916321044921875,0.07633014768362045,-1.2428499460220337,0.06316626816987991
1761507124860477200,5.936477294921875,-0.10122977197170258,-0.8181957602500916,0.3047564625740051
1761507124880635100,5.95663525390625,-0.16820237040519714,-0.28024646639823914,0.18339894711971283
1761507124900791800,5.976791748046875,-0.1559801995754242,0.286296546459198,-0.3392694890499115
1761507124920948000,5.996947998046875,-0.03855971246957779,0.48310884833335876,-0.7699150443077087
1761507124941105000,6.01710498046875,0.2651394307613373,0.33208444714546204,-0.6195652484893799
1761507124961262000,6.037261962890625,0.5577082633972168,0.08111335337162018,-0.07252684235572815
1761507124981418000,6.05741796875,0.6838155388832092,-0.0783366784453392,0.3752816915512085
1761507125001575000,6.077574951171875,0.809618353843689,-0.22975412011146545,0.6330710649490356
1761507125021732000,6.097732177734375,0.9802002906799316,-0.3131287395954132,0.7754104137420654
1761507125041889000,6.117888916015625,0.9196351766586304,-0.9555729031562805,0.7049769759178162
1761507125062045200,6.138045166015625,0.8021268248558044,-2.2800190448760986,-0.2549756169319153
1761507125082201900,6.158201904296875,0.52174311876297,-1.8201924562454224,-1.0212675333023071
1761507125102359000,6.178359130859375,0.4105146527290344,0.969193696975708,-0.7686309218406677
1761507125122515000,6.198514892578125,0.7142620086669922,1.3433510065078735,-0.9156802892684937
1761507125142672100,6.218672119140625,0.33531489968299866,0.6557325124740601,-1.5199536085128784
1761507125162828800,6.238828857421875,-0.13411305844783783,0.9078307151794434,-1.307411551475525
1761507125182986000,6.258986083984375,-0.26605796813964844,0.17711415886878967,-0.9085619449615479
1761507125203142000,6.279141845703125,-0.4632272720336914,-0.25254955887794495,-0.6111730337142944
1761507125223299000,6.299299072265625,-0.38150036334991455,-0.17932339012622833,-0.18464325368404388
1761507125243456000,6.3194560546875,0.044847700744867325,-0.3004172742366791,0.4559573233127594
1761507125263612000,6.33961181640625,0.39553651213645935,-0.03200290724635124,0.7940650582313538
1761507125283768800,6.359768798828125,0.2609264552593231,-0.09872793406248093,1.0934399366378784
1761507125303926000,6.379926025390625,0.05008115619421005,-0.4561189115047455,1.4426785707473755
1761507125324083200,6.400083251953125,0.020086035132408142,-0.648627758026123,1.417157530784607
1761507125344239000,6.420239013671875,-0.17976567149162292,-0.8220479488372803,1.2528339624404907
1761507125364396000,6.44039599609375,-0.37279418110847473,-0.5142863988876343,0.9746377468109131
1761507125384553000,6.460552978515625,-0.49121323227882385,-0.5101319551467896,0.7537561058998108
1761507125404709000,6.480709228515625,-0.5598181486129761,-0.19391337037086487,0.36962467432022095
1761507125424866000,6.500865966796875,-0.3378198742866516,0.3672596514225006,-0.00616003293544054
1761507125445023000,6.52102294921875,-0.1210940033197403,0.5492789149284363,-0.04119132086634636
1761507125465180000,6.541179931640625,0.1294606775045395,0.4458846151828766,0.3733372390270233
1761507125485336000,6.561336181640625,0.3245616853237152,0.39700815081596375,0.7118391394615173
1761507125505493000,6.581492919921875,0.5439742803573608,0.6000241637229919,0.5843175649642944
1761507125525650000,6.60164990234375,0.6863119602203369,0.3451302647590637,0.3506384789943695
1761507125545805800,6.621805908203125,0.5999925136566162,-0.27381929755210876,0.3206706941127777
1761507125565963000,6.641962890625,0.17021450400352478,-0.03651631996035576,0.2845157980918884
1761507125586120000,6.662119873046875,-0.2978270947933197,0.2831624746322632,0.31332847476005554
1761507125606276900,6.68227685546875,-0.6560090184211731,0.07853932678699493,0.5905183553695679
1761507125626432800,6.702432861328125,-0.9333938360214233,-0.6392121315002441,0.01549455150961876
1761507125646590000,6.72258984375,-0.5345287322998047,-0.15826727449893951,-0.7045234441757202
1761507125666747100,6.7427470703125,-0.06396309286355972,0.566188633441925,-0.9906812310218811
1761507125686903000,6.762903076171875,-0.06177698075771332,0.742353618144989,-1.0716793537139893
1761507125707060200,6.783060302734375,-0.15826870501041412,0.6358802318572998,-1.172625184059143
1761507125727217000,6.803216796875,-0.09298042953014374,0.38549360632896423,-1.3208348751068115
1761507125747374000,6.8233740234375,-0.018613219261169434,0.009038939140737057,-1.1292927265167236
1761507125767530000,6.843530029296875,-0.006665229331701994,-0.2526971101760864,-0.7453265190124512
1761507125787687200,6.863687255859375,0.0493648461997509,-0.3135848939418793,-0.35315150022506714
1761507125807843800,6.88384375,0.18139025568962097,-0.38069823384284973,0.05304785445332527
1761507125828000000,6.904,0.214647114276886,-0.37934422492980957,0.20457255840301514
1761507125848157000,6.924156982421875,0.16279633343219757,-0.3059643507003784,0.2231716513633728
1761507125868314000,6.944314208984375,0.049619536846876144,-0.2735668122768402,0.14483588933944702
1761507125888469800,6.9644697265625,-0.055386584252119064,-0.29924532771110535,0.1925768256187439
1761507125908626000,6.9846259765625,-0.0863749086856842,-0.18692275881767273,0.17209160327911377
1761507125928782600,7.004782470703125,-0.0893855020403862,0.12674963474273682,0.14868545532226562
1761507125948939800,7.024939697265625,0.024703770875930786,0.4656011462211609,0.28305572271347046
1761507125969096700,7.0450966796875,0.23349463939666748,0.693760097026825,0.5326289534568787
1761507125989252900,7.0652529296875,0.3448675274848938,0.7933658957481384,0.9070613980293274
1761507126009409800,7.085409912109375,0.40590837597846985,0.5661551356315613,1.2907441854476929
1761507126029566700,7.105566650390625,0.4596491754055023,0.0645165890455246,1.1701669692993164
1761507126049722600,7.12572265625,0.3258471190929413,-0.7684195041656494,0.029773704707622528
1761507126069879800,7.1458798828125,0.06937698274850845,-0.6353879570960999,-0.7373940944671631
1761507126090036700,7.16603662109375,-0.12933972477912903,0.5660161972045898,-0.11192180961370468
1761507126110193700,7.186193603515625,-0.25324779748916626,0.8101649284362793,0.714714765548706
1761507126130349600,7.206349609375,-0.46126624941825867,-0.30267196893692017,0.37888607382774353
1761507126150506800,7.2265068359375,-0.35538536310195923,-0.9236012697219849,-0.2814210057258606
1761507126170664000,7.246663818359375,-0.034625567495822906,-0.5508463978767395,-0.8834812045097351
1761507126190819800,7.26681982421875,0.08378623425960541,-0.16748136281967163,-1.3766803741455078
1761507126210976800,7.286976806640625,0.08551836013793945,-0.3238848149776459,-1.7271881103515625
1761507126231133700,7.3071337890625,0.07372456043958664,-0.6744589805603027,-2.022968292236328
1761507126251291000,7.327290771484375,0.27256661653518677,-0.7539669275283813,-1.7630037069320679
1761507126271446800,7.34744677734375,0.6622375249862671,-0.5722623467445374,-0.858964741230011
1761507126291603700,7.367603759765625,0.9266582131385803,-0.5300022959709167,0.07635151594877243
1761507126311760600,7.3877607421875,1.0036792755126953,-0.3746339976787567,0.48071908950805664
1761507126331917800,7.407917724609375,0.9277594089508057,-0.37891000509262085,0.4714491069316864
1761507126352073700,7.42807373046875,0.8025556802749634,-0.2257685363292694,0.38391169905662537
1761507126372230700,7.448230712890625,0.6184127330780029,-0.02550051361322403,0.20739322900772095
1761507126392387600,7.4683876953125,0.3550815284252167,-0.0982263833284378,0.19363267719745636
1761507126412543700,7.488543701171875,0.07200600206851959,-0.1896899938583374,0.26896220445632935
1761507126432700700,7.50870068359375,-0.3021526038646698,-0.23680201172828674,0.2761620581150055
1761507126452857900,7.52885791015625,-0.5152606964111328,-0.2013835459947586,0.37593382596969604
1761507126473014800,7.549014892578125,-0.5411984920501709,0.0006149318069219589,0.4368791878223419
1761507126493170700,7.569170654296875,-0.4611012041568756,0.4719747304916382,0.3134538531303406
1761507126513327900,7.589327880859375,-0.2324526607990265,0.8929941058158875,0.44566598534584045
1761507126533484800,7.60948486328125,0.07336291670799255,0.6757875084877014,0.6505147218704224
1761507126553641700,7.629641845703125,0.23431864380836487,0.18956990540027618,0.28183406591415405
1761507126573797600,7.649797607421875,-0.08750508725643158,0.26560747623443604,-0.41885828971862793
1761507126593954800,7.669954833984375,-0.49889519810676575,0.8373111486434937,-0.16328340768814087
1761507126614111700,7.69011181640625,-0.8104792833328247,0.5977315902709961,0.792235255241394
1761507126634268700,7.7102685546875,-0.9616632461547852,-0.08352646231651306,0.40528783202171326
1761507126654424600,7.730424560546875,-0.6221745014190674,0.5828554034233093,0.2722874581813812
1761507126674581800,7.750581787109375,-0.4364515542984009,0.6559609174728394,0.5178276300430298
1761507126694738700,7.77073876953125,-0.5875406861305237,0.2946507930755615,0.3140224814414978
1761507126714894800,7.790894775390625,-0.6256227493286133,0.17229518294334412,-0.2567530572414398
1761507126735051500,7.811051513671875,-0.4039490222930908,0.23566770553588867,-0.3709339499473572
1761507126755208700,7.831208740234375,-0.13327108323574066,0.2734048068523407,0.14804291725158691
1761507126775366000,7.851365966796875,0.027197817340493202,0.3537910580635071,0.8524406552314758
1761507126795521800,7.871521728515625,0.25946933031082153,0.20409032702445984,1.3805334568023682
1761507126815678700,7.8916787109375,0.4187202453613281,-0.06970137357711792,1.2730904817581177
1761507126835835600,7.911835693359375,0.4045068025588989,-0.19742651283740997,0.9643675088882446
1761507126855992800,7.931992919921875,0.23521284759044647,-0.4020644724369049,0.7052963376045227
1761507126876148700,7.952148681640625,0.03535722568631172,-0.6083368062973022,0.4478418529033661
1761507126896306200,7.97230615234375,-0.08215048909187317,-0.6129449605941772,0.15123969316482544
1761507126916463400,7.99246337890625,-0.09247689694166183,-0.5135487914085388,-0.06968811899423599
1761507126936620500,8.01262060546875,-0.05526041239500046,-0.3345603942871094,-0.19443418085575104
1761507126956776400,8.0327763671875,-0.04815225675702095,-0.05498674884438515,-0.08316962420940399
1761507126976933400,8.052933349609376,-0.12062754482030869,0.1568692922592163,0.2110258787870407
1761507126997090300,8.07309033203125,-0.2216290533542633,0.14822432398796082,0.48785898089408875
1761507127017247500,8.09324755859375,-0.2404128462076187,0.11842095106840134,0.6870935559272766
1761507127037403400,8.1134033203125,-0.11086405813694,-0.09090116620063782,0.5322550535202026
1761507127057560300,8.133560302734375,-0.00017479155212640762,-0.49922099709510803,0.016719605773687363
1761507127077717200,8.15371728515625,-0.16144219040870667,-0.6994613409042358,-0.008781005628407001
1761507127097873400,8.173873291015624,-0.5367152690887451,-0.5155165195465088,0.17418521642684937
1761507127118030300,8.1940302734375,-0.9956390261650085,-0.37428218126296997,-0.9299992918968201
1761507127138187500,8.2141875,-1.5036461353302002,-0.8561292290687561,-2.247985601425171
1761507127158344200,8.23434423828125,-0.908831000328064,-0.3707844913005829,-2.4242115020751953
1761507127178500400,8.254500244140624,-0.0098438560962677,-0.006784547585994005,-1.1894526481628418
1761507127198657300,8.2746572265625,-0.056135859340429306,-1.0344475507736206,-0.49293848872184753
1761507127218814500,8.294814453125,-0.45539721846580505,-1.848612666130066,-0.26940974593162537
1761507127238971400,8.314971435546875,-0.5271143317222595,-1.6663416624069214,-0.3201334774494171
1761507127259127300,8.335127197265624,-0.23247408866882324,-0.8345411419868469,-0.7005916237831116
1761507127279284500,8.355284423828126,-0.0956704318523407,0.013029612600803375,-0.9611073136329651
1761507127299441400,8.37544140625,0.07759882509708405,0.464341938495636,-0.7046907544136047
1761507127319599400,8.395599365234375,0.13584385812282562,0.6435732841491699,-0.08095338195562363
1761507127339756300,8.41575634765625,0.20326171815395355,0.4934394955635071,0.6519715189933777
1761507127359913500,8.43591357421875,0.22043918073177338,-0.01692148670554161,0.9692195057868958
1761507127380069400,8.4560693359375,0.22603744268417358,-0.24409931898117065,0.8742427825927734
1761507127400226300,8.476226318359375,0.1828385591506958,-0.4007447063922882,0.6238927841186523
1761507127420383500,8.496383544921875,-0.025005385279655457,-0.5002343058586121,0.2896851599216461
1761507127440540400,8.51654052734375,-0.18017102777957916,-0.45454540848731995,0.1994236707687378
1761507127460696600,8.536696533203125,-0.2527672052383423,-0.285072386264801,0.21040590107440948
1761507127480853200,8.556853271484375,-0.12395554780960083,-0.0196586512029171,0.15166401863098145
1761507127501010400,8.577010498046874,-0.01703760400414467,0.1138794869184494,0.18354609608650208
1761507127521167400,8.59716748046875,0.10194762796163559,0.2513025403022766,0.24963586032390594
1761507127541323500,8.617323486328125,0.2654067277908325,0.13187487423419952,0.4733920693397522
1761507127561480200,8.637480224609375,0.31264030933380127,-0.6486588716506958,0.6691446304321289
1761507127581637400,8.657637451171874,-0.20931005477905273,-1.369039535522461,0.5031090974807739
1761507127601794600,8.677794677734376,-0.5979854464530945,-0.6141602396965027,0.35137826204299927
1761507127621950500,8.697950439453125,-0.6816362738609314,0.5035672783851624,0.5466615557670593
1761507127642107100,8.718107177734375,-0.603131115436554,0.7261162400245667,0.005972286686301231
1761507127662264300,8.738264404296874,-0.3983255922794342,0.8729041218757629,-0.8512911200523376
1761507127682421500,8.75842138671875,-0.2827315926551819,1.297571063041687,-0.7567234635353088
1761507127702577400,8.778577392578125,-0.20094197988510132,0.853928804397583,-0.3974376320838928
1761507127722734300,8.798734375,-0.11902862787246704,0.165918231010437,-0.29467618465423584
1761507127742891300,8.818891357421874,-0.11633357405662537,-0.14371757209300995,-0.15470688045024872
1761507127763048400,8.83904833984375,-0.11022871732711792,-0.10263734310865402,-0.27259886264801025
1761507127783204400,8.859204345703125,-0.026801753789186478,0.20732872188091278,-0.37009721994400024
1761507127803361500,8.879361572265625,0.1674616038799286,0.4159083664417267,-0.20623034238815308
1761507127823518200,8.899518310546876,0.3158773183822632,0.4636652171611786,0.08163778483867645
1761507127843675400,8.91967529296875,0.3443906903266907,0.3798871636390686,0.28383293747901917
1761507127863831300,8.939831298828125,0.2807791233062744,0.25145798921585083,0.33133581280708313
1761507127883988700,8.95998876953125,0.14594759047031403,0.11088237166404724,0.22477929294109344
1761507127904145700,8.980145751953126,0.07723937183618546,0.07102882862091064,0.08977600187063217
1761507127924302600,9.000302490234375,0.07363243401050568,0.10603345930576324,-0.0026742429472506046
1761507127944458800,9.020458740234375,0.10831568390130997,0.12057013064622879,0.02272847108542919
1761507127964615700,9.04061572265625,0.12086200714111328,0.2028745859861374,0.04807339981198311
1761507127984772600,9.060772705078126,0.1782342940568924,0.37265506386756897,0.020404133945703506
1761507128004928500,9.080928466796875,0.3990201950073242,0.46340399980545044,0.022536609321832657
1761507128025085700,9.101085693359375,0.7221064567565918,0.6792847514152527,-0.03592776134610176
1761507128045242600,9.12124267578125,0.9374226927757263,0.6438809037208557,0.2573443651199341
1761507128065399600,9.141399658203126,0.7910990118980408,-0.8906510472297668,0.9804005026817322
1761507128085556500,9.161556396484375,0.07701674103736877,-1.069496989250183,0.9531263113021851
1761507128105712600,9.181712646484375,-0.24872137606143951,-0.10389821976423264,0.33456289768218994
1761507128125869600,9.20186962890625,-0.514944851398468,-0.22001326084136963,0.2618808448314667
1761507128146026500,9.222026611328126,-0.3883654475212097,0.07218629121780396,-0.4722194969654083
1761507128166182400,9.242182373046875,-0.08608168363571167,1.0615322589874268,-0.6478883624076843
1761507128186339600,9.262339599609374,-0.11209333688020706,0.7289133667945862,0.20777104794979095
1761507128206496800,9.282496826171876,-0.4171261489391327,-0.3109792470932007,0.6440914273262024
1761507128226653700,9.30265380859375,-0.6124286651611328,-0.9372566342353821,0.28752532601356506
1761507128246809600,9.3228095703125,-0.5715929865837097,-0.8119746446609497,-0.1155080497264862
1761507128266966500,9.342966552734374,-0.25282734632492065,-0.21289663016796112,-0.861109733581543
1761507128287123700,9.363123779296876,-0.01533100102096796,0.3479917645454407,-1.1790143251419067
1761507128307280600,9.38328076171875,0.03388378769159317,0.7364686131477356,-0.8537881970405579
1761507128327436800,9.403436767578125,-0.03088018111884594,0.7163152694702148,-0.22882334887981415
1761507128347593500,9.423593505859374,0.0995868369936943,0.3179329037666321,0.16726888716220856
1761507128367750700,9.443750732421876,0.26802894473075867,-0.022882841527462006,0.25380831956863403
1761507128387907600,9.463907470703125,0.34774264693260193,-0.22796931862831116,0.47340157628059387
1761507128408063700,9.484063720703125,0.27802565693855286,-0.365224689245224,0.4911375939846039
1761507128428220400,9.504220458984374,0.12897995114326477,-0.31891340017318726,0.38644587993621826
1761507128448377600,9.524377685546876,0.09366665780544281,-0.07901139557361603,0.3689485788345337
1761507128468534800,9.54453466796875,0.14160844683647156,0.2163720726966858,0.2741517126560211
1761507128488690700,9.564690673828125,0.19905692338943481,0.5220469236373901,0.2530089318752289
1761507128508847600,9.58484765625,0.2271992266178131,0.7912423610687256,0.2964450716972351
1761507128529004500,9.605004638671875,0.44627413153648376,0.9233484864234924,0.41797515749931335
1761507128549161700,9.62516162109375,0.8597940802574158,0.9148415327072144,0.35190242528915405
1761507128569317600,9.645317626953124,1.011106252670288,0.31054165959358215,-0.2038535177707672
1761507128589474600,9.665474609375,0.520683765411377,-0.5107722878456116,-0.12569190561771393
1761507128609631500,9.685631591796875,-0.22860082983970642,-0.9366554021835327,0.8229260444641113
1761507128629788700,9.70578857421875,-0.9052651524543762,-1.2660729885101318,1.1970062255859375
1761507128649944600,9.725944580078124,-1.1145349740982056,-1.1419460773468018,-0.025894645601511
1761507128670101800,9.746101806640626,-0.6082335114479065,0.6020097732543945,-1.769583821296692
1761507128690258400,9.766258544921875,-0.08828269690275192,1.4313195943832397,-1.7810593843460083
1761507128710415600,9.78641552734375,-0.09427496045827866,0.8069952726364136,-1.137131690979004
1761507128730571500,9.806571533203124,-0.470251202583313,-0.05032873898744583,-0.7937427759170532
1761507128750728700,9.826728759765626,-0.6496182084083557,-0.6065911054611206,-0.795776903629303
1761507128770885600,9.8468857421875,-0.5616214275360107,-0.7375847101211548,-0.6590225100517273
1761507128791042600,9.86704248046875,-0.3338249623775482,-0.26780956983566284,-0.3862723410129547
1761507128811198700,9.88719873046875,-0.17674672603607178,0.05781210586428642,-0.23274347186088562
1761507128831355600,9.907355712890626,0.051761966198682785,-0.019784294068813324,-0.1300498992204666
1761507128851512600,9.9275126953125,0.20788100361824036,-0.32313138246536255,0.1834435760974884
1761507128871669500,9.94766943359375,0.2217317670583725,-0.500482976436615,0.5565717220306396
1761507128891825700,9.96782568359375,0.11014052480459213,-0.5023397207260132,0.48241013288497925
1761507128911982600,9.987982666015625,0.03560607135295868,-0.3485681414604187,0.20201218128204346
1761507128932139500,10.008139404296875,0.12173238396644592,-0.044932518154382706,0.07040475308895111
1761507128952296400,10.02829638671875,0.280227929353714,0.10889038443565369,0.16132234036922455
1761507128972452600,10.04845263671875,0.3378099203109741,0.16197574138641357,0.4036998748779297
1761507128992609500,10.068609619140625,0.27987706661224365,0.16252541542053223,0.732944905757904
1761507129012766700,10.0887666015625,0.41245371103286743,0.06621755659580231,1.1270276308059692
1761507129032923600,10.108923583984375,0.8250635266304016,0.22522792220115662,1.0749354362487793
1761507129053079600,10.12907958984375,0.8798757195472717,-0.010812156833708286,0.40748608112335205
1761507129073236700,10.14923681640625,0.6063893437385559,0.28724050521850586,0.2649299204349518
1761507129093393700,10.1693935546875,0.4502214789390564,0.4798275828361511,1.0692297220230103
1761507129113550600,10.189550537109374,0.2460329234600067,-0.25670909881591797,1.106772780418396
1761507129133706500,10.20970654296875,-0.2891675531864166,-0.8601250052452087,-0.019413452595472336
1761507129153863700,10.22986376953125,-0.6153215169906616,-0.722543478012085,-1.2253715991973877
1761507129174020600,10.2500205078125,-0.3928399085998535,0.4326162338256836,-2.232163190841675
1761507129194177500,10.270177490234374,-0.13387355208396912,0.19949772953987122,-2.0818769931793213
1761507129214333400,10.29033349609375,-0.2774166464805603,-0.5828379392623901,-1.1221601963043213
1761507129234490600,10.31049072265625,-0.6390352249145508,-1.485866904258728,-0.4388759732246399
1761507129254647800,10.330647705078125,-0.6270176768302917,-1.1187999248504639,-0.9279655814170837
1761507129274804500,10.350804443359374,-0.2354687750339508,0.31433019042015076,-1.534515380859375
1761507129294960400,10.37096044921875,0.10107220709323883,0.45329999923706055,-0.8915055394172668
1761507129315117600,10.39111767578125,0.17933234572410583,-0.07178792357444763,0.10088104009628296
1761507129335274800,10.411274658203125,0.11779739707708359,-0.5677278637886047,0.76558917760849
1761507129355431700,10.431431640625,0.14562278985977173,-0.6688722372055054,0.9357345104217529
1761507129375587600,10.451587646484375,0.18846918642520905,-0.31973838806152344,0.7148748636245728
1761507129395744500,10.47174462890625,0.11949704587459564,-0.061908163130283356,0.4320516884326935
1761507129415901700,10.491901611328124,0.03777562826871872,0.011760756373405457,0.3596203029155731
1761507129436058600,10.51205859375,-0.07467535883188248,-0.24139803647994995,0.6204308867454529
1761507129456214800,10.53221484375,-0.08525349199771881,-0.33500540256500244,0.9223147630691528
1761507129476371500,10.552371337890625,0.1324254870414734,0.08987477421760559,0.8053852319717407
1761507129496528600,10.572528564453124,0.5006952881813049,0.38832157850265503,0.22505472600460052
1761507129516685800,10.592685791015626,0.8210708498954773,0.15340270102024078,-0.29426512122154236
1761507129536841700,10.612841796875,0.8954636454582214,0.2726403474807739,-0.5668286681175232
