time,seconds_elapsed,z,y,x
1761431148905405700,0.03140576171875,-0.004000060260295868,0.0010859188623726368,0.00356475287117064
1761431148925350000,0.051349853515625,0.001788540743291378,0.0003795805387198925,-0.001982887042686343
1761431148945293800,0.0712939453125,0.00017391226720064878,-0.0004536542110145092,0.000021150684915482998
1761431148965237800,0.09123779296875,0.0008823551470413804,0.001406429335474968,0.0012137972516939044
1761431148985182700,0.1111826171875,-0.0015895674005150795,-0.0009899134747684002,0.001381371053867042
1761431149005127000,0.131126953125,0.0009018201380968094,0.002391533926129341,0.0014415972400456667
1761431149025070800,0.15107080078125,0.0017427069833502173,-0.0000015208497643470764,0.0015973638510331511
1761431149045014800,0.171014892578125,-0.0008456243667751551,0.0004983912222087383,0.000011425814591348171
1761431149064958700,0.190958740234375,0.0010837092995643616,-0.0024292846210300922,0.002125996630638838
1761431149084902700,0.210902587890625,-0.00016388209769502282,-0.0028835551347583532,-0.0010699843987822533
1761431149104846800,0.230846923828125,-0.0007309704087674618,0.0025780238211154938,-0.0014409057330340147
1761431149124788500,0.25078857421875,-0.0003467571805231273,0.00247868150472641,0.0005036037182435393
1761431149144732400,0.270732421875,-0.0002634197589941323,0.0008001294918358326,-0.0006936796708032489
1761431149164676400,0.29067626953125,-0.001068358775228262,0.0030004633590579033,-0.00014033785555511713
1761431149184621600,0.31062158203125,0.00035851862048730254,-0.0016538752242922783,0.000273260404355824
1761431149204565500,0.3305654296875,0.0006163620273582637,0.00044466322287917137,0.003065281081944704
1761431149224509400,0.350509521484375,-0.00031326309544965625,-0.0006013265810906887,0.0026789018884301186
1761431149244453400,0.370453369140625,0.0007013271097093821,-0.0005759261548519135,0.002340726088732481
1761431149264397300,0.390397216796875,-0.0017761450726538897,0.0007434375584125519,-0.0014086018782109022
1761431149284341500,0.410341552734375,-0.000226659351028502,-0.0005606799386441708,-0.0014562341384589672
1761431149304285400,0.430285400390625,0.0007694768719375134,-0.0014657205902040005,0.0007063052617013454
1761431149324229400,0.4502294921875,-0.0013640072429552674,-0.0005393447354435921,0.0028726705349981785
1761431149344173300,0.47017333984375,0.0010191877372562885,-0.001068016979843378,-0.0010672133648768067
1761431149364118500,0.490118408203125,-0.0002663233317434788,0.00048795901238918304,0.0007562648970633745
1761431149384062500,0.5100625,0.002142141340300441,0.0014854688197374344,0.00017025391571223736
1761431149404006400,0.53000634765625,-0.0011068405583500862,0.0011088848114013672,-0.0008504419820383191
1761431149423950300,0.549950439453125,0.0003187813563272357,-0.0013605556450784206,-0.0004972306778654456
1761431149443894300,0.569894287109375,-0.0022854304406791925,-0.0008196155540645123,0.0008174771210178733
1761431149463838500,0.58983837890625,0.0002036841178778559,-0.001574512105435133,0.0012623348738998175
1761431149483782700,0.60978271484375,-0.0020253201946616173,-0.000049093738198280334,0.0003711296012625098
1761431149503726600,0.6297265625,-0.0025666167493909597,0.000379147008061409,0.00019125547260046005
1761431149523670500,0.64967041015625,0.002708427608013153,-0.0026180960703641176,0.000602139625698328
1761431149543615500,0.669615478515625,-0.0006625232635997236,-0.0006546331569552422,0.0003319893730804324
1761431149563559400,0.689559326171875,-0.0016270990017801523,-0.001912216655910015,0.0007216144585981965
1761431149583503400,0.70950341796875,-0.002851814031600952,0.004901413805782795,0.004158876836299896
1761431149603447600,0.729447509765625,-0.0017136611277237535,0.0117658581584692,0.0003770291805267334
1761431149623391500,0.7493916015625,-0.0010385732166469097,-0.014353759586811066,-0.004108586348593235
1761431149643335700,0.769335693359375,-0.00042352284071967006,-0.006970814894884825,-0.0036329268477857113
1761431149663279600,0.789279541015625,-0.0002430708846077323,-0.007209033705294132,-0.0031287106685340405
1761431149683223600,0.8092236328125,0.0028742521535605192,-0.0032654248643666506,0.0009794555371627212
1761431149703167500,0.82916748046875,-0.0010403827764093876,0.0012116176076233387,0.0033088205382227898
1761431149723111400,0.849111328125,-0.0009073718101717532,0.005438552238047123,-0.00027516926638782024
1761431149743056600,0.869056640625,-0.000322420964948833,0.003540484234690666,-0.00031598174246028066
1761431149763000600,0.88900048828125,-0.0006575988372787833,0.0013805944472551346,-0.001107940450310707
1761431149782944500,0.908944580078125,0.0021777860820293427,-0.004461515694856644,0.003379710018634796
1761431149802888400,0.928888427734375,-0.001005935249850154,-0.0039427317678928375,0.0007206641603261232
1761431149822832600,0.94883251953125,-0.0010117089841514826,-0.0027821618132293224,-0.0008170897490344942
1761431149842776600,0.968776611328125,0.000614427262917161,0.0006221910007297993,0.000186216551810503
1761431149862720500,0.988720458984375,0.0001281796721741557,-0.001284165307879448,0.002813922241330147
1761431149882664400,1.00866455078125,0.0007794361445121467,-0.007494788616895676,-0.004669634159654379
1761431149902608400,1.0286083984375,-0.0015609930269420147,-0.032964564859867096,-0.009723138995468616
1761431149922552600,1.048552490234375,0.002604141365736723,-0.015930918976664543,-0.0027483124285936356
1761431149942497500,1.06849755859375,-0.0013409014791250229,0.018649563193321228,0.0011676106369122863
1761431149962441500,1.08844140625,-0.00000404182355850935,0.00791003368794918,0.0004163280827924609
1761431149982385400,1.108385498046875,-0.0021019340492784977,-0.00679527735337615,-0.000595055753365159
1761431150002329600,1.12832958984375,0.0002552373334765434,-0.007565693464130163,-0.001988097093999386
1761431150022273500,1.1482734375,0.0003209546266589314,-0.05275248363614082,-0.012687886133790016
1761431150042217500,1.168217529296875,0.0018824964063242078,-0.27680283784866333,-0.05302217975258827
1761431150062161400,1.188161376953125,-0.006410682108253241,-0.5255374908447266,-0.10687968134880066
1761431150082105300,1.208105224609375,-0.9189021587371826,-0.18691958487033844,-0.05938584357500076
1761431150102049500,1.228049560546875,-1.663530945777893,1.425087571144104,0.22131244838237762
1761431150121992700,1.24799267578125,-1.3331975936889648,-0.8766031861305237,-0.16859754920005798
1761431150141938000,1.26793798828125,-0.7005010843276978,0.19073155522346497,-0.005827512126415968
1761431150161881900,1.2878818359375,-0.3603859543800354,0.05146763101220131,0.03436506912112236
1761431150181825800,1.30782568359375,-0.024814531207084656,-0.0012895246036350727,-0.004221125040203333
1761431150201769700,1.327769775390625,0.0008107260800898075,0.003358753863722086,0.0008045948343351483
1761431150221714000,1.3477138671875,-0.0009684392716735601,0.01639692671597004,0.006721355952322483
1761431150241657900,1.367657958984375,0.0016688627656549215,0.0037421192973852158,0.0009557087905704975
1761431150261602000,1.38760205078125,-0.0016501618083566427,0.0004473230801522732,-0.00021830323385074735
1761431150281546000,1.4075458984375,-0.0004728944622911513,-0.000521437730640173,0.0009370914194732904
1761431150301490000,1.427489990234375,-0.000854772049933672,-0.0007924786768853664,-0.0011973266955465078
1761431150321434000,1.44743408203125,0.001477817539125681,0.00038750190287828445,0.0010611247271299362
1761431150341378000,1.4673779296875,-0.001689625671133399,0.0001271786168217659,-0.00007932650623843074
1761431150361322000,1.487322021484375,0.0014152333606034517,-0.00019413232803344727,-0.0002542106667533517
1761431150381267000,1.507266845703125,-0.000369207002222538,0.000914442352950573,0.0011961966520175338
1761431150401211100,1.527211181640625,0.006077293306589127,-0.013208037242293358,0.007715422194451094
1761431150421155000,1.547155029296875,-0.0029497842770069838,-0.0007614856585860252,-0.001889170496724546
1761431150441099000,1.56709912109375,-0.00009143684292212129,-0.0030648878309875727,-0.002593712415546179
1761431150461043000,1.58704296875,-0.0001876501482911408,0.01171718817204237,0.0039178067818284035
1761431150480987000,1.60698681640625,0.00165077717974782,0.006560576613992453,0.004354304168373346
1761431150500931000,1.62693115234375,-0.004436702001839876,0.007610395550727844,-0.0004832343547604978
1761431150520875000,1.646875,0.0008317346801050007,-0.0018034805543720722,0.0011751079000532627
1761431150540819000,1.66681884765625,-0.0007238176767714322,0.0075719114392995834,0.0035519790835678577
1761431150560763000,1.686762939453125,-0.001265577506273985,0.02092466875910759,0.006501254625618458
1761431150580706800,1.706706787109375,0.00021768297301605344,0.0008802530355751514,-0.000932874740101397
1761431150600652000,1.726652099609375,0.00011827383423224092,-0.00803474523127079,-0.0013639498502016068
1761431150620596000,1.746595947265625,0.0010285156313329935,0.0016429517418146133,0.00000310561154037714
1761431150640540000,1.766539794921875,0.002977005671709776,-0.0019002854824066162,-0.002391122980043292
1761431150660483800,1.78648388671875,-0.001547146588563919,-0.005126172676682472,-0.001356578548438847
1761431150680428000,1.806427978515625,0.0003263633116148412,-0.0002867109142243862,-0.001419564476236701
1761431150700372000,1.8263720703125,-0.0016232638154178858,0.002040425781160593,0.0013779954751953483
1761431150720316000,1.84631591796875,-0.0012084398185834289,-0.001195414923131466,-0.0002191475941799581
1761431150740259800,1.866259765625,-0.02735842950642109,0.008495962247252464,0.00039435969665646553
1761431150760203800,1.886203857421875,-0.6563575267791748,-0.09663428366184235,-0.039576005190610886
1761431150780148000,1.90614794921875,-0.7611185312271118,0.0016755061224102974,-0.014341488480567932
1761431150800092000,1.926091796875,-0.6188802719116211,0.006034669000655413,-0.008479293435811996
1761431150820036900,1.946036865234375,-0.7668836116790771,-0.0033257759641855955,-0.015584205277264118
1761431150839980800,1.965980712890625,-0.7672173380851746,0.03655189648270607,0.00029422901570796967
1761431150859925000,1.985925048828125,-0.2957819104194641,-0.03285760432481766,-0.011638866737484932
1761431150879869000,2.005868896484375,0.0026900158263742924,-0.071087546646595,-0.028213050216436386
1761431150899812900,2.025812744140625,0.0010260231792926788,-0.04716121032834053,-0.004465417470782995
1761431150919756800,2.0457568359375,-0.0034460043534636497,0.11943010240793228,0.0336177796125412
1761431150939700700,2.06570068359375,-0.001795838470570743,0.07699939608573914,0.026714473962783813
1761431150959645000,2.08564501953125,0.0011688179802149534,0.029640130698680878,0.009666155092418194
1761431150979588900,2.1055888671875,-0.000599520979449153,0.013208158314228058,0.005835197865962982
1761431150999533000,2.125532958984375,-0.0015764669515192509,0.0007194662466645241,-0.00032371102133765817
1761431151019477000,2.14547705078125,-0.00248615350574255,-0.0012621590867638588,-0.0005282001802697778
1761431151039421000,2.1654208984375,0.00015565298963338137,-0.0023599471896886826,0.0004821615293622017
1761431151059365000,2.185365234375,0.0001963026588782668,-0.0005656084977090359,-0.000232942053116858
1761431151079309800,2.205309814453125,0.0013467882527038455,0.0017175190150737762,0.0015854642260819674
1761431151099254000,2.22525390625,0.0011311451671645045,-0.0013253423385322094,0.0024391841143369675
1761431151119198000,2.245197998046875,0.0017085912404581904,0.0008960668928921223,0.000025737332180142403
1761431151139142400,2.265142333984375,0.0011346309911459684,-0.0008195745758712292,0.0002653802512213588
1761431151159086300,2.28508642578125,0.0016991007141768932,-0.0004311525262892246,0.0017110307235270739
1761431151179030300,2.3050302734375,0.002082377439364791,0.0012040957808494568,0.0010718749836087227
1761431151198974500,2.324974365234375,-0.00017058424418792129,-0.00003234436735510826,-0.00234984396956861
1761431151218918400,2.34491845703125,-0.000006821530405431986,0.0011460362002253532,0.001572094508446753
1761431151238862300,2.3648623046875,0.0006588700343854725,0.0008269245736300945,-0.0004242918221279979
1761431151258806300,2.38480615234375,0.0019817098509520292,-0.0007674423977732658,-0.00014492339687421918
1761431151278750200,2.404750244140625,-0.0000629684654995799,-0.001302904449403286,0.0007861625635996461
1761431151298694400,2.4246943359375,0.0015291415620595217,-0.0014330320991575718,-0.0010496858740225434
1761431151318639400,2.444639404296875,-0.002664486411958933,0.0012447396293282509,-0.0008748631225898862
1761431151338583300,2.464583251953125,0.0010615637293085456,0.0011515975929796696,0.0005396410124376416
1761431151358527200,2.48452734375,-0.00018946861382573843,0.001432694960385561,-0.0012748577864840627
1761431151378471400,2.504471435546875,0.00008520134724676609,0.0010005291551351547,0.003008920233696699
1761431151398415400,2.524415283203125,0.002021755324676633,0.0006662025116384029,0.0009561105398461223
1761431151418359300,2.544359375,0.0005781762301921844,0.0005398360081017017,0.000337105942890048
1761431151438303200,2.56430322265625,0.00012296909699216485,-0.0020160656422376633,-0.0011930565815418959
1761431151458247200,2.5842470703125,0.000990433618426323,0.0008492954075336456,-0.00046583713265135884
1761431151478191400,2.60419140625,0.001600443385541439,0.00004328880459070206,0.0011023181723430753
1761431151498135300,2.62413525390625,-0.0016073340084403753,-0.00012395763769745827,0.00039072148501873016
1761431151518079200,2.644079345703125,0.002125713974237442,-0.0024069170467555523,-0.0007462184876203537
1761431151538023200,2.664023193359375,0.0020529143512248993,-0.00045898323878645897,0.004370282869786024
1761431151557967000,2.683967041015625,0.0008789916173554957,-0.0004285885952413082,0.0001030616695061326
1761431151577912300,2.703912353515625,0.0014550823252648115,0.00038930121809244156,-0.0022796262055635452
1761431151597856300,2.723856201171875,0.0018478495767340064,-0.0031040001194924116,-0.00135608424898237
1761431151617800200,2.74380029296875,-0.00046031211968511343,0.0018353643827140331,0.0010098681086674333
1761431151637744000,2.763744140625,0.0016428842209279537,0.0005006538704037666,0.0013766688061878085
1761431151657688300,2.783688232421875,-0.00009417522232979536,-0.000865680631250143,-0.0001930844155140221
1761431151677632300,2.80363232421875,0.00023278797743842006,0.0012357532978057861,-0.001122437883168459
1761431151697576200,2.823576171875,0.0005514972726814449,-0.0008107204921543598,0.0022423272021114826
1761431151717520100,2.84352001953125,0.002601427026093006,-0.0006052213720977306,0.0037829307839274406
1761431151737464000,2.863464111328125,-0.0009920235024765134,-0.00043860962614417076,0.0000548108946532011
1761431151757408300,2.883408203125,0.0018713821191340685,0.0014338605105876923,-0.0004103509127162397
1761431151777352400,2.9033525390625,-0.0006269279401749372,-0.0016080369241535664,-0.0010955436155200005
1761431151797296400,2.92329638671875,0.0009198834886774421,-0.0007871836423873901,-0.0012673138407990336
1761431151817240300,2.943240234375,0.002295793266966939,-0.00020221993327140808,0.00004580372478812933
1761431151837185300,2.963185302734375,-0.0013202957343310118,-0.0025714009534567595,0.000979198724962771
1761431151857129200,2.983129150390625,-0.00042310054413974285,0.00008483696728944778,-0.001749919494614005
1761431151877073400,3.003073486328125,0.0007428073440678418,-0.0018156622536480427,-0.00040165212703868747
1761431151897017300,3.023017333984375,0.0014610614161938429,-0.000578323844820261,0.002228177385404706
1761431151916961300,3.042961181640625,0.0009305601706728339,0.0012435107491910458,0.0003893066896125674
1761431151936905500,3.062905517578125,-0.0005894514615647495,0.0012582913041114807,0.0014084111899137497
1761431151956849400,3.082849365234375,-0.0028585854452103376,0.0029218350537121296,-0.0007561188540421426
1761431151976793300,3.10279345703125,0.0009763188427314162,-0.000379753764718771,0.00023484055418521166
1761431151996737300,3.1227373046875,0.00018192158313468099,0.0009172395803034306,0.002913848962634802
1761431152016681200,3.14268115234375,-0.0001551854657009244,0.0002514817751944065,-0.00253067584708333
1761431152036625400,3.16262548828125,0.0005829448346048594,0.0008753952570259571,0.0013300247956067324
1761431152056569300,3.1825693359375,-0.0019128243438899517,-0.0015562050975859165,-0.0013362448662519455
1761431152076513300,3.20251318359375,-0.0006697579519823194,-0.0005048541352152824,0.00036170065868645906
1761431152096458200,3.222458251953125,0.0009772377088665962,0.00023107696324586868,-0.001211650436744094
1761431152116402400,3.24240234375,-0.0010883079376071692,-0.000266204122453928,0.003584248712286353
1761431152136346000,3.26234619140625,0.00030275582685135305,0.00033104559406638145,-0.0015117443399503827
1761431152156290000,3.2822900390625,0.00024109167861752212,-0.0005812537856400013,0.0008174108806997538
1761431152176234200,3.302234130859375,-0.0008633446414023638,0.001429201103746891,0.00270190741866827
1761431152196178200,3.32217822265625,0.001635813619941473,-0.0018874667584896088,0.00004012370482087135
1761431152216122000,3.3421220703125,0.001726723974570632,0.002259140368551016,-0.0013203963171690702
1761431152236066000,3.362066162109375,0.0007689546328037977,-0.00037106312811374664,0.0006819454720243812
1761431152256010000,3.382010009765625,0.0016152604948729277,-0.0015605664812028408,0.0004695060197263956
1761431152275954000,3.401953857421875,0.002096951939165592,-0.0010231384076178074,0.0004791019018739462
1761431152295898000,3.421898193359375,0.0003303558914922178,0.00038234470412135124,0.0004088830901309848
1761431152315842000,3.441842041015625,-0.0003820639685727656,-0.002549296710640192,-0.0001377310836687684
1761431152335786000,3.461785888671875,-0.0018582053016871214,0.0004595755599439144,0.001213599811308086
1761431152355730200,3.481730224609375,-0.0008477770024910569,0.00013600056990981102,0.0010529184946790338
1761431152375675100,3.501675048828125,-0.00008437095675617456,-0.00028164731338620186,0.005340081173926592
1761431152395619000,3.521619140625,0.0001453855074942112,-0.0001135380007326603,0.0007645750883966684
1761431152415563000,3.54156298828125,0.0011660538148134947,-0.00019010482355952263,0.002211559098213911
1761431152435507000,3.5615068359375,0.00036347395507618785,-0.0007266313768923283,-0.0002936318051069975
1761431152455451100,3.581451171875,-0.0012458255514502525,0.001378664281219244,0.00080305733717978
1761431152475395300,3.601395263671875,0.0006616995669901371,-0.012830233201384544,0.008433280512690544
1761431152495339300,3.62133935546875,0.00023443286772817373,0.0058647566474974155,0.005617248360067606
1761431152515283200,3.641283203125,-0.001397869666106999,0.011123768985271454,0.00007184233982115984
1761431152535227100,3.66122705078125,0.0030438522808253765,-0.011559871956706047,-0.0020392010919749737
1761431152555171000,3.681171142578125,-0.0012653041630983353,-0.0011352598667144775,-0.002824923023581505
1761431152575115300,3.701115234375,-0.00008560239803045988,0.0033436771482229233,0.002346714725717902
1761431152595059200,3.72105908203125,0.0012933826074004173,0.006031705066561699,0.0007128205616027117
1761431152615003100,3.741003173828125,-0.0004958435893058777,-0.00015881424769759178,0.0030009173788130283
1761431152634947000,3.760947021484375,0.0005817257333546877,-0.0014409255236387253,-0.0009913379326462746
1761431152654892300,3.780892333984375,0.00022044009529054165,-0.0014398596249520779,0.00003646675031632185
1761431152674836200,3.800836181640625,-0.0003595418529585004,0.0012981030158698559,-0.0010228060418739915
1761431152694780200,3.8207802734375,0.0016689456533640623,0.0015233061276376247,-0.0002992696827277541
1761431152714724000,3.84072412109375,0.0010655794758349657,-0.003525148145854473,-0.0015665341634303331
1761431152734668000,3.86066796875,0.0006872903904877603,-0.001611500047147274,0.0014824747340753675
1761431152754612200,3.8806123046875,0.001435054698958993,0.0007600104436278343,0.0002745073288679123
1761431152774556200,3.90055615234375,0.00007041497156023979,0.0022130985744297504,-0.002476802794262767
1761431152794499000,3.9204990234375,-0.0012800428085029125,-0.0004421724006533623,-0.001039183815009892
1761431152814443000,3.940443115234375,0.0014811881119385362,0.00012095319107174873,0.0006627527764067054
1761431152834387000,3.960386962890625,-0.00042899372056126595,0.0004411982372403145,-0.00189672177657485
1761431152854331100,3.9803310546875,0.00016776210395619273,0.001048332080245018,0.00014192797243595123
1761431152874275300,4.000275390625,0.0007334972033277154,-0.001301041804254055,0.00023354077711701393
1761431152894219300,4.02021923828125,0.0004495331668294966,-0.0016463547945022583,-0.0004706435720436275
1761431152914163200,4.0401630859375,0.000014985911548137665,-0.001504640094935894,-0.003277926705777645
1761431152934107100,4.060107177734375,0.0013148082653060555,-0.0005974345840513706,0.002477340865880251
1761431152954052000,4.080052001953125,0.0003744441783055663,0.00030587613582611084,0.0024291840381920338
1761431152973996300,4.099996337890625,-0.0008795954054221511,0.0005251197144389153,0.001966413576155901
1761431152993940200,4.119940185546875,-0.0004910433199256659,-0.0012282384559512138,-0.0006557332817465067
1761431153013884200,4.13988427734375,0.0024430789053440094,-0.0016192896291613579,-0.000176585977897048
1761431153033828000,4.159828125,0.002113013295456767,-0.003441191278398037,0.0014982306165620685
1761431153053772300,4.179772216796875,0.0004981648526154459,-0.0005786595866084099,-0.0011935585644096136
1761431153073716200,4.19971630859375,0.0011287969537079334,-0.0015156255103647709,0.0017215328989550471
1761431153093660200,4.21966015625,-0.000045310123823583126,0.005863960366696119,0.00011516292579472065
1761431153113604000,4.23960400390625,0.0006415725802071393,0.0017248420044779778,0.00172491988632828
1761431153133548300,4.25954833984375,-0.0030565347988158464,-0.0006589870899915695,-0.00020844658138230443
1761431153153492200,4.2794921875,0.0005095754750072956,-0.00011506956070661545,0.0050057885237038136
1761431153173437400,4.2994375,0.000871428637765348,-0.0009274668991565704,-0.00044518255162984133
1761431153193381400,4.31938134765625,0.000417885254137218,0.0038435198366642,-0.0014553250512108207
1761431153213325300,4.3393251953125,0.0014055075589567423,0.0002117510885000229,0.0012894532410427928
1761431153233269200,4.359269287109375,-0.0013356846757233143,-0.0003740387037396431,-0.00015118700684979558
1761431153253213400,4.37921337890625,0.0009508960065431893,0.00011718040332198143,0.0013309197966009378
1761431153273158400,4.399158447265625,0.0008434413466602564,-0.0010754922404885292,0.0002334809396415949
1761431153293102300,4.419102294921875,0.0004921077052131295,-0.0014243214391171932,-0.0005550617934204638
1761431153313046300,4.43904638671875,0.0002552100922912359,-0.0012050596997141838,0.00022841687314212322
1761431153332990500,4.458990478515625,-0.001174853416159749,0.0007806271314620972,-0.00004613713826984167
1761431153352934400,4.478934326171875,-0.0000264418195001781,-0.00009961891919374466,0.0006116016302257776
1761431153372878300,4.49887841796875,0.0006997215677984059,-0.00014511775225400925,0.0010472871363162994
1761431153392822300,4.518822265625,-0.0007466155802831054,0.00008824234828352928,0.001210358110256493
1761431153412766200,4.53876611328125,0.0014724258799105883,0.0005426434800028801,0.00006848631892353296
1761431153432710400,4.55871044921875,-0.0014323083451017737,-0.000570591539144516,0.0032505649141967297
1761431153452654300,4.578654296875,0.0019478737376630306,0.00037549715489149094,0.0004017783794552088
1761431153472598300,4.598598388671875,-0.0007125282427296042,-0.0002377624623477459,0.0009097348665818572
1761431153492542200,4.618542236328125,-0.00023439398501068354,0.0015450576320290565,-0.0006638829945586622
1761431153512486100,4.638486083984375,-0.0011347362305969,-0.0002644946798682213,-0.0025782515294849873
1761431153532430300,4.658430419921875,-0.00019306683680042624,-0.000822726171463728,-0.002429514192044735
1761431153552374300,4.678374267578125,-0.0015087644569575787,0.0013250471092760563,-0.0004487450351007283
1761431153572318200,4.698318115234375,0.0011320982594043016,-0.0037324954755604267,-0.0008674822165630758
1761431153592263200,4.71826318359375,-0.00018855370581150055,-0.001403112430125475,-0.0005176432314328849
1761431153612207400,4.738207275390625,-0.00023724191123619676,-0.0018206625245511532,0.001389227109029889
1761431153632151300,4.7581513671875,0.0007040638593025506,0.0006322418339550495,0.0011011636815965176
1761431153652095200,4.77809521484375,0.0020257863216102123,0.0011681467294692993,-0.0007132549653761089
1761431153672039200,4.7980390625,-0.0010569768492132425,-0.0003394116647541523,0.00009891379158943892
1761431153691983000,4.817983154296875,-0.0015429581981152296,0.004314408637583256,-0.00011666142381727695
1761431153711927300,4.83792724609375,-0.0022655704524368048,0.0007075369358062744,0.0030414473731070757
1761431153731871500,4.85787158203125,0.0015557025326415896,-0.0016305521130561829,-0.0014617355773225427
1761431153751815400,4.8778154296875,0.0020074949134141207,0.00020632939413189888,0.004727408289909363
1761431153771759400,4.89775927734375,0.0016697405371814966,-0.0006009167991578579,0.0022984913084656
1761431153791703300,4.917703369140625,-0.0006870774668641388,0.0006480659358203411,0.00013259798288345337
1761431153811647200,4.937647216796875,-0.0006373407668434083,-0.0014199884608387947,-0.0001544295228086412
1761431153831591400,4.95759130859375,-0.00015860138228163123,0.0006995215080678463,-0.0004578078514896333
1761431153851535400,4.977535400390625,-0.0011742321075871587,-0.0005075563676655293,-0.0002572777448222041
1761431153871479300,4.997479248046875,0.00016775730182416737,-0.0016388669610023499,-0.003313072957098484
1761431153891423200,5.01742333984375,-0.00020579691044986248,-0.0026369888801127672,-0.002061644336208701
1761431153911367200,5.0373671875,-0.0009110706741921604,-0.0000965525396168232,0.0014883235562592745
1761431153931312400,5.0573125,0.001256550196558237,0.0013318005949258804,0.0008889747550711036
1761431153951256300,5.07725634765625,0.0008487211307510734,-0.00037492066621780396,0.002346306573599577
1761431153971200300,5.0972001953125,-0.0008434966439381242,0.00003896886482834816,-0.0001657287939451635
1761431153991144200,5.117144287109375,-0.0018915326800197363,0.0011023618280887604,0.0007545741973444819
1761431154011088400,5.13708837890625,-0.00009374873479828238,-0.00022415630519390106,-0.0018622009083628654
1761431154031032300,5.1570322265625,-0.0027079517021775246,-0.0010562590323388577,0.0036643038038164377
1761431154050976300,5.176976318359375,0.0004892793949693441,0.00033893296495079994,-0.0011133189545944333
1761431154070920200,5.196920166015625,0.0009390607010573149,-0.0003617219626903534,0.0003197530750185251
1761431154090864000,5.216864013671875,0.00043873218237422407,-0.00013387342914938927,-0.00011437502689659595
1761431154110808300,5.236808349609375,-0.0014968186151236296,-0.0019436138682067394,0.0016001061303541064
1761431154130752300,5.256752197265625,-0.00020063359988853335,0.0016524619422852993,0.00018757511861622334
1761431154150696200,5.2766962890625,-0.0011043811682611704,-0.0000814921222627163,0.002071117050945759
1761431154170640400,5.296640380859375,0.0016624914715066552,-0.00022358214482665062,0.000230098026804626
1761431154190584300,5.316584228515625,0.0017590736970305443,-0.002080159727483988,0.0006189137930050492
1761431154210528300,5.3365283203125,-0.0007298047421500087,0.00011996971443295479,-0.000371094502042979
1761431154230472400,5.356472412109375,0.000882288790307939,0.0006798948161303997,-0.0011468814918771386
1761431154250416400,5.37641650390625,-0.0009733543265610933,-0.00042475108057260513,-0.000806748925242573
1761431154270360600,5.396360595703125,-0.0010767325293272734,-0.001268740277737379,0.00021026539616286755
1761431154290305300,5.41630517578125,0.0001832679263316095,0.0005845050327479839,0.000029668095521628857
1761431154310249200,5.436249267578125,-0.0008045714348554611,0.0005134330131113529,0.0015220136847347021
1761431154330193400,5.456193359375,0.00003727542934939265,-0.0012161219492554665,-0.000038160127587616444
1761431154350137600,5.4761376953125,-0.001050941413268447,0.0006054132245481014,-0.0024887979961931705
1761431154370081500,5.49608154296875,0.0015110439853742719,-0.00027259765192866325,0.002531658625230193
1761431154390025500,5.516025390625,-0.0021110987290740013,0.00048015452921390533,-0.0013074255548417568
1761431154409969400,5.535969482421875,0.0011456856736913323,-0.0024116034619510174,0.0011778641492128372
1761431154429913300,5.555913330078125,0.0010571840684860945,-0.0014322306960821152,0.00020620122086256742
1761431154449857500,5.575857421875,0.000913287396542728,-0.00010067131370306015,0.0010626529110595584
1761431154469801500,5.595801513671875,-0.0008745379745960236,-0.0015199948102235794,0.004219690803438425
1761431154489745400,5.615745361328125,0.0010190675966441631,-0.0004367530345916748,0.00022041855845600367
1761431154509689300,5.635689453125,-0.0015208614058792591,0.0025294097140431404,-0.0005318367038853467
1761431154529633300,5.65563330078125,-0.0001875503803603351,-0.0007540341466665268,0.0028241651598364115
1761431154549577500,5.675577392578125,0.0004542037204373628,0.0008104904554784298,-0.0009707339922897518
1761431154569521400,5.695521484375,-0.0025958060286939144,0.001639263704419136,-0.0031873451080173254
1761431154589465300,5.71546533203125,-0.00020265066996216774,0.0007001995109021664,-0.0009353846544399858
1761431154609409300,5.7354091796875,-0.0006191969150677323,0.0022636614739894867,-0.00010719813872128725
1761431154629353200,5.755353271484375,-0.001178208040073514,0.001363143790513277,0.0006991173140704632
1761431154649297400,5.77529736328125,0.0018284476827830076,0.00010022846981883049,-0.002673942130059004
1761431154669241300,5.795241455078125,0.0011546679306775331,-0.0012524225749075413,0.0010078235063701868
1761431154689185300,5.815185302734375,0.0008741372730582952,-0.0012693745084106922,-0.00012197729665786028
1761431154709130200,5.835130126953125,0.0010932148434221745,0.0016420017927885056,-0.0003702184185385704
1761431154729074400,5.855074462890625,-0.00025138951605185866,-0.0004934058524668217,-0.0007688587065786123
1761431154749018400,5.875018310546875,-0.0014678800944238901,0.00015010498464107513,-0.0013902500504627824
1761431154768962300,5.89496240234375,0.0005587167106568813,-0.002541637048125267,0.0015604256186634302
1761431154788906200,5.91490625,-0.000054645759519189596,-0.0024452046491205692,0.0016459785401821136
1761431154808850200,5.93485009765625,0.0040604304522275925,-0.0018707499839365482,0.0027397500816732645
1761431154828794400,5.95479443359375,-0.0006018182029947639,0.0015811389312148094,0.0001256295945495367
1761431154848738300,5.97473828125,0.0007312004454433918,-0.0013793036341667175,-0.000507448217831552
1761431154868682500,5.9946826171875,0.0007549354340881109,0.001571910921484232,-0.00041774415876716375
1761431154888626400,6.01462646484375,0.002833676990121603,0.0014133197255432606,-0.0014299207832664251
1761431154908570400,6.0345703125,-0.0018217453034594655,0.00022162171080708504,0.0009405555902048945
1761431154928514600,6.0545146484375,0.0005952180945314467,0.000027344562113285065,-0.001350204460322857
1761431154948458500,6.07445849609375,-0.0031477578449994326,-0.0004268912598490715,-0.0005285754450596869
1761431154968402400,6.09440234375,-0.0016313539817929268,-0.001067114993929863,0.0010152589529752731
1761431154988346400,6.114346435546875,-0.0009236165788024664,-0.002007435541599989,0.0007704583695158362
1761431155008290300,6.134290283203125,0.0018209060654044151,0.0015722885727882385,-0.0009221172076649964
1761431155028234500,6.154234375,-0.0011298758909106255,-0.0006632371805608273,-0.0002470700419507921
1761431155048178400,6.174178466796875,0.0024155154824256897,-0.0015373867936432362,0.0021296744234859943
1761431155068122400,6.194122314453125,0.001233992981724441,-0.0012240656651556492,0.0009008009219542146
1761431155088066300,6.21406640625,-0.00014487624866887927,0.0015206695534288883,-0.0011823783861473203
1761431155108010200,6.23401025390625,0.0029866115655750036,-0.0006292983889579773,-0.001242574187926948
1761431155127954200,6.2539541015625,-0.00007012655260041356,-0.0002148677594959736,-0.00040446670027449727
1761431155147898000,6.273898193359375,-0.002042151289060712,-0.0005001029931008816,-0.002306966343894601
1761431155167843300,6.29384326171875,-0.0020641868468374014,-0.0014663278125226498,-0.0004804276395589113
1761431155187787300,6.313787353515625,0.000530452118255198,-0.0005052504129707813,0.000003602122887969017
1761431155207731200,6.333731201171875,-0.001378659624606371,-0.0004904153756797314,0.0005673794075846672
1761431155227675100,6.353675048828125,0.0010786971542984247,0.0005257492884993553,0.0006721559911966324
1761431155247619300,6.373619384765625,-0.00011257536243647337,-0.002111932262778282,-0.001932753250002861
1761431155267563300,6.393563232421875,0.0006252871826291084,-0.0007506543770432472,-0.0011299240868538618
1761431155287507200,6.413507080078125,0.0011655213311314583,-0.001788285095244646,-0.00015622121281921864
1761431155307451100,6.433451171875,-0.0016317490953952074,-0.0020615090616047382,0.00033953890670090914
1761431155327395300,6.453395263671875,-0.0003029396175406873,0.0004457179456949234,-0.0006457037525251508
1761431155347339300,6.47333935546875,0.0005694233695976436,0.00017200177535414696,-0.0027287830598652363
1761431155367283500,6.493283447265625,-0.0008739360491745174,-0.0003326856531202793,-0.0023398851044476032
1761431155387227400,6.513227294921875,0.0003844220482278615,-0.0012584254145622253,0.0007022030185908079
1761431155407171300,6.53317138671875,0.0016693936195224524,-0.000058177392929792404,0.0001887147082015872
1761431155427115300,6.553115234375,-0.0014250145759433508,0.0003610975109040737,-0.00021848728647455573
1761431155447059500,6.5730595703125,0.001459013670682907,-0.002067661378532648,0.001993090845644474
1761431155467003400,6.59300341796875,-0.0010237512178719044,0.0017733825370669365,-0.0023417440243065357
1761431155486947300,6.612947265625,-0.0008233507978729904,0.0024383477866649628,-0.0002235379652120173
1761431155506891300,6.632891357421875,0.0014788636472076178,0.001864616759121418,0.001069925376214087
1761431155526835200,6.652835205078125,0.0012562609044834971,-0.0012603369541466236,0.0015717215137556195
1761431155546779400,6.672779296875,0.00016756652621552348,0.0001104278489947319,0.000652236514724791
1761431155566723300,6.692723388671875,0.004159584641456604,0.00017242366448044777,0.0023399856872856617
1761431155586667300,6.712667236328125,0.0005638223956339061,-0.001997356303036213,-0.0013192319311201572
1761431155606611200,6.732611083984375,0.0010856632143259048,0.00035238591954112053,0.002495533088222146
1761431155626555100,6.75255517578125,-0.0007332118111662567,-0.000021079089492559433,0.00254423962906003
1761431155646500400,6.772500244140625,-0.0010190453613176942,-0.001247459091246128,0.0017616134136915207
1761431155666444300,6.7924443359375,0.0008110752678476274,-0.0018702754750847816,-0.00020807835971936584
1761431155686388200,6.81238818359375,-0.0014044970739632845,-0.00008463207632303238,-0.0024930154904723167
1761431155706332200,6.832332275390625,-0.0008130575879476964,0.0021087443456053734,0.0023765400983393192
1761431155726276400,6.8522763671875,0.0016269455663859844,-0.0011202357709407806,-0.00023775658337399364
1761431155746220300,6.87222021484375,-0.001112897414714098,-0.000508633442223072,-0.0006230081198737025
1761431155766164200,6.892164306640625,0.001361302798613906,0.0015961923636496067,0.0007903209188953042
1761431155786108200,6.912108154296875,-0.00007714080857113004,0.0006587603129446507,0.0005723295034840703
1761431155806052000,6.932052001953125,0.00004118407377973199,0.0014095883816480637,-0.0013016036245971918
1761431155825996300,6.951996337890625,0.0008784096571616828,0.0016533425077795982,0.000683343387208879
1761431155845940200,6.971940185546875,0.0005545578896999359,0.0006314767524600029,-0.0024847248569130898
1761431155865884400,6.991884521484375,-0.0005091634811833501,-0.0022986754775047302,0.0034365770407021046
1761431155885828400,7.011828369140625,-0.000537233951035887,-0.0013135750778019428,0.0014974906807765365
1761431155905772300,7.031772216796875,0.0006097389268688858,-0.0004593576304614544,-0.003602428361773491
1761431155925716500,7.051716552734375,-0.0000869008363224566,0.0009864354506134987,-0.001633301144465804
1761431155945660400,7.071660400390625,-0.0006260261288844049,-0.0010395636782050133,0.0006077639991417527
1761431155965604400,7.091604248046875,0.0007335622794926167,-0.0013293963856995106,0.0007089637219905853
1761431155985548300,7.11154833984375,0.00020710378885269165,0.0003420701250433922,0.0015020632417872548
1761431156005492200,7.1314921875,0.0006090731476433575,-0.0010509793646633625,-0.0006057018181309104
1761431156025436400,7.1514365234375,0.0003871802182402462,0.00002082856371998787,-0.0007888309191912413
1761431156045380400,7.17138037109375,-0.0014628816861659288,0.0013368437066674232,-0.0018323904369026423
1761431156065324300,7.19132421875,0.0007259753765538335,-0.0007670209743082523,0.0000013416865840554237
1761431156085268200,7.211268310546875,0.0007511345320381224,0.0022208387963473797,-0.0018007145263254642
1761431156105212200,7.231212158203125,-0.002251601777970791,0.00015073828399181366,-0.0016056292224675417
1761431156125156400,7.25115625,0.0007792988326400518,-0.00015988154336810112,0.000578047358430922
1761431156145099500,7.271099609375,0.0006658690981566906,0.002426314167678356,-0.0008854378829710186
1761431156165044500,7.29104443359375,-0.0021697680931538343,0.0017189299687743187,-0.0025788757484406233
1761431156184988700,7.31098876953125,-0.002240809379145503,0.0012902021408081055,-0.0006346983136609197
1761431156204932600,7.3309326171875,0.000529290409758687,-0.0002698628231883049,0.003416945692151785
1761431156224876500,7.35087646484375,0.0009861572179943323,-0.0016953293234109879,0.000840518157929182
1761431156244820500,7.370820556640625,-0.0007118560606613755,-0.00035452423617243767,-0.0009511063108220696
1761431156264764700,7.3907646484375,0.00022165910922922194,0.00037052109837532043,0.0010559260845184326
1761431156284708900,7.410708984375,-0.0006079621380195022,0.0005694259889423847,0.0018122140318155289
1761431156304652800,7.43065283203125,-0.00021582160843536258,0.0017898669466376305,0.00018901750445365906
1761431156324596700,7.4505966796875,0.0015753463376313448,-0.001310897059738636,0.0010617213556542993
1761431156344540700,7.470540771484375,-0.0004763115430250764,0.00142323924228549,-0.0016445487271994352
1761431156364484600,7.490484619140625,0.0005101198330521584,0.0017611617222428322,-0.0011954846559092402
1761431156384428800,7.5104287109375,-0.0029599755071103573,-0.0006484338082373142,0.002159244380891323
1761431156404372700,7.530372802734375,-0.0015834379009902477,0.001736626960337162,-0.0004479839117266238
1761431156424316700,7.550316650390625,-0.000021591142285615206,0.001609761267900467,-0.0005540212732739747
1761431156444260600,7.570260498046875,0.0015492383390665054,-0.0002764565870165825,-0.0019827636424452066
1761431156464204500,7.59020458984375,0.0008310439297929406,-0.0003246590495109558,-0.002673122100532055
1761431156484148700,7.610148681640625,0.002884434536099434,-0.0003291363827884197,-0.001439043553546071
1761431156504092700,7.6300927734375,-0.0000969354878179729,0.0004606773145496845,-0.0010922387009486556
1761431156524036600,7.65003662109375,0.0007752927485853434,-0.0003401339054107666,0.0011707550147548318
1761431156543980500,7.66998046875,0.0006481450982391834,0.001688328105956316,-0.001287096063606441
1761431156563924500,7.689924560546875,0.0012448623310774565,0.0005199001170694828,0.0002697448944672942
1761431156583868700,7.70986865234375,0.00021949445363134146,0.00009292876347899437,-0.0015023149317130446
1761431156603812600,7.7298125,-0.0016306997276842594,-0.0018042041920125484,0.0007419215980917215
1761431156623756500,7.749756591796875,0.0013448212994262576,0.0020673125982284546,0.0016342708840966225
1761431156643700500,7.769700439453125,0.0006918600993230939,0.0010227169841527939,0.0014686599606648088
1761431156663644700,7.789644775390625,-0.0015961695462465286,0.0005233315750956535,0.000656547024846077
1761431156683588900,7.8095888671875,0.00006194759043864906,-0.00028555281460285187,-0.0006022355519235134
1761431156703532800,7.82953271484375,-0.0023534209467470646,-0.000233521219342947,-0.0008914915379136801
1761431156723477500,7.8494775390625,-0.002010104013606906,0.0013746246695518494,-0.0037236285861581564
1761431156743421400,7.86942138671875,-0.0004214769578538835,-0.0009194076992571354,-0.00020223378669470549
1761431156763365600,7.88936572265625,-0.0022099690977483988,0.0003809579648077488,0.0010136166820302606
1761431156783309800,7.909309814453125,-0.0010510645806789398,-0.00004362175241112709,0.0004562033573165536
1761431156803252700,7.929252685546875,-0.0028205926064401865,-0.0005459520034492016,0.0003921391908079386
1761431156823196700,7.94919677734375,0.000026791851269081235,-0.0017097331583499908,0.0020225534681230783
1761431156843140600,7.969140625,0.002005333546549082,-0.00036551570519804955,0.002324273344129324
1761431156863084500,7.98908447265625,-0.0007617154042236507,0.00003203609958291054,0.001967142103239894
1761431156883028700,8.00902880859375,0.004086916800588369,-0.001213806215673685,-0.0004867936950176954
1761431156902972700,8.02897265625,0.0005676088039763272,-0.00016679475083947182,-0.0015658308984711766
1761431156922916600,8.04891650390625,0.0013162849936634302,0.00020172586664557457,-0.0003063497133553028
1761431156942860500,8.068860595703125,0.0007922104559838772,0.001422929111868143,-0.0001674295635893941
1761431156962804500,8.088804443359376,0.0011406365083530545,0.0013111885637044907,0.0027053342200815678
1761431156982748400,8.10874853515625,-0.0005442628753371537,0.0004311860539019108,0.002431080676615238
1761431157002692600,8.128692626953125,-0.002012335229665041,0.00017985794693231583,0.001881476491689682
1761431157022636500,8.148636474609376,0.0005626005004160106,-0.0012948522344231606,0.0017023729160428047
1761431157042580500,8.16858056640625,-0.001614343374967575,0.0019432185217738152,0.001727385213598609
1761431157062524700,8.188524658203125,-0.0006094927084632218,0.000912786927074194,-0.0007047505350783467
1761431157082468600,8.208468505859376,-0.00008229888044297695,0.001333107240498066,0.0003467563074082136
1761431157102412800,8.228412841796874,-0.0007813600241206586,0.0012624911032617092,-0.0020196852274239063
1761431157122356700,8.248356689453125,0.00020052969921380281,0.0009592301212251186,0.0017176633700728416
1761431157142301000,8.268301025390626,0.0006468512583523989,-0.0023210314102470875,0.0006940457969903946
1761431157162245000,8.2882451171875,-0.0009081382304430008,-0.0013391734100878239,0.0013222668785601854
1761431157182190800,8.30819091796875,0.0008946120506152511,-0.00011846283450722694,0.000571780139580369
1761431157202134800,8.328134765625,-0.000016513338778167963,0.002392910420894623,-0.0007963873213157058
1761431157222078700,8.34807861328125,-0.0005829284782521427,0.0007214094512164593,0.0011350755812600255
1761431157242023000,8.36802294921875,0.00021280933287926018,-0.00037564150989055634,0.003123483620584011
1761431157261966800,8.387966796875,-0.0005507893511094153,-0.000193136278539896,0.0024074416141957045
1761431157281910800,8.407910888671875,0.0008620059234090149,0.0019444655627012253,0.0007198748644441366
1761431157301855000,8.42785498046875,-0.0001211116905324161,-0.0009677442722022533,0.0015532666584476829
1761431157321799000,8.447798828125,0.0002081592392642051,-0.00037220539525151253,-0.0010400786995887756
1761431157341743000,8.4677431640625,0.0003876339760608971,-0.0004828348755836487,0.0012388862669467926
1761431157361687000,8.48768701171875,0.002712378976866603,-0.00045028654858469963,0.00003362237475812435
1761431157381631000,8.507630859375,0.00293540395796299,0.0003619026392698288,-0.0013651223853230476
1761431157401575000,8.527574951171875,-0.0002754531451500952,-0.0009955246932804585,-0.00027087359922006726
1761431157421518800,8.547518798828126,0.001211073249578476,-0.001547425054013729,0.0015000110724940896
1761431157441463000,8.567463134765624,0.00019452450214885175,0.00013752281665802002,0.0012788099702447653
1761431157461407000,8.587406982421875,0.0010290620848536491,0.0005617951974272728,-0.0026270346716046333
1761431157481351000,8.607350830078126,0.000030375347705557942,-0.00131554389372468,0.0014421507949009538
1761431157501294800,8.627294921875,-0.0031808032654225826,0.0008462467230856419,-0.0027135228738188744
1761431157521238800,8.64723876953125,-0.00212722085416317,0.0019375123083591461,0.001573944347910583
1761431157541183000,8.667182861328126,-0.0030023017898201942,-0.0013797958381474018,0.002359268255531788
1761431157561127000,8.687126953125,0.00018672700389288366,0.001043172087520361,-0.00007055897731333971
1761431157581070800,8.70707080078125,-0.0013695843517780304,0.0001201145350933075,0.0005972414510324597
1761431157601014800,8.727014892578126,-0.0006738165975548327,-0.00017231563106179237,0.0011333449510857463
1761431157620958700,8.746958740234374,-0.00005110580241307616,-0.0004766993224620819,-0.0010188721353188157
1761431157640903000,8.76690283203125,-0.0006311131292022765,-0.0013223960995674133,0.0006959583843126893
1761431157660846800,8.786846923828126,0.0019426182843744755,0.001523834653198719,-0.0027989372611045837
1761431157680791800,8.806791748046875,0.002180211478844285,-0.00023358920589089394,0.00050123012624681
1761431157700735700,8.82673583984375,0.000963878002949059,-0.0015624798834323883,-0.0016058755572885275
1761431157720680000,8.846679931640624,0.003074230160564184,-0.0012313597835600376,-0.002833044622093439
1761431157740624000,8.866623779296875,0.00047923531383275986,-0.0005535455420613289,-0.001196112483739853
1761431157760567800,8.88656787109375,0.00022689253091812134,0.00014206580817699432,0.0007613871712237597
1761431157780511700,8.90651171875,-0.0001606434816494584,0.0010989787988364697,-0.0005818861536681652
1761431157800456000,8.9264560546875,-0.0015557000879198313,-0.0011334102600812912,0.00041176925878971815
1761431157820399900,8.94639990234375,0.0015834365040063858,0.0015552379190921783,0.0014626062475144863
1761431157840344000,8.966343994140624,-0.0011091077467426658,-0.0010291868820786476,0.0018379132961854339
1761431157860288000,8.9862880859375,-0.0002932773786596954,0.002430009189993143,-0.000506739248521626
1761431157880232000,9.00623193359375,0.0018315922934561968,0.0007588411681354046,-0.0007852814742363989
1761431157900176000,9.02617578125,-0.0010042848298326135,-0.00039310986176133156,0.002008811105042696
1761431157920120000,9.0461201171875,0.0030724508687853813,0.00011655408889055252,0.0015378986718133092
1761431157940064000,9.06606396484375,0.0019388202344998717,0.0013544904068112373,-0.00031634129118174314
1761431157960008000,9.086008056640624,-0.0011408132268115878,0.0003686221316456795,-0.0007320081349462271
1761431157979951900,9.105951904296875,0.00004656732198782265,-0.00042673107236623764,-0.001431792275980115
1761431157999895800,9.125895751953125,-0.002371549606323242,0.0011919410899281502,-0.0013792356476187706
1761431158019840000,9.145840087890624,0.0010947799310088158,0.0008164756000041962,0.0002664894564077258
1761431158039784000,9.165783935546875,-0.0027853818610310555,-0.0011653676629066467,-0.000792302074842155
1761431158059728000,9.185727783203125,0.002898367354646325,0.00037594186142086983,-0.00030026125023141503
1761431158079671800,9.205671875,0.0002544978051446378,-0.000018140766769647598,0.0011197967687621713
1761431158099615700,9.22561572265625,-0.0004316925769671798,0.0009841802529990673,0.00010543514508754015
1761431158119560000,9.245559814453125,-0.0008441805257461965,0.0017822999507188797,-0.0000713421031832695
1761431158139503600,9.265503662109374,-0.0009452472440898418,0.0005028131417930126,-0.0004887948743999004
1761431158159447600,9.285447509765625,-0.0015302407555282116,0.001325378194451332,0.0002031000331044197
1761431158179391700,9.305391845703125,0.0012223785743117332,0.0015004854649305344,-0.00029447663109749556
1761431158199336000,9.3253359375,0.0013396700378507376,0.00008656969293951988,0.000807562842965126
1761431158219280000,9.34527978515625,0.0005033056368120015,0.0005848915316164494,0.0026314323768019676
1761431158239223800,9.365223876953126,-0.0013096212642267346,0.0003572222776710987,0.00028613011818379164
1761431158259167700,9.385167724609374,-0.00135251902975142,-0.0015199650079011917,0.0002357717603445053
1761431158279112000,9.40511181640625,-0.000028267037123441696,-0.000630759634077549,-0.001541737001389265
1761431158299055900,9.425055908203126,0.0003036793787032366,-0.001381944864988327,0.0007750485092401505
1761431158318999800,9.444999755859374,-0.0017683174228295684,-0.0005390862934291363,0.0006650525610893965
1761431158338943700,9.46494384765625,0.0018725330010056496,0.0014722305350005627,-0.0001614002976566553
1761431158358887700,9.4848876953125,0.00045655749272555113,0.001494547352194786,-0.002221725881099701
1761431158378832000,9.504831787109374,-0.00010322046000510454,0.001174136996269226,0.0019243510905653238
1761431158398775800,9.52477587890625,-0.0015198402106761932,-0.00166768254712224,-0.0010047999676316977
1761431158418719700,9.5447197265625,-0.002106290776282549,0.00034205010160803795,-0.0004816122236661613
1761431158438663700,9.56466357421875,-0.0015771654434502125,0.001403681468218565,-0.0028105920646339655
1761431158458607600,9.584607666015625,-0.0003683861577883363,0.0007819030433893204,0.0014855553163215518
1761431158478551800,9.6045517578125,-0.0003780608531087637,0.00006821285933256149,0.0010173897026106715
1761431158498495700,9.624495849609374,0.00087833619909361,-0.0008471058681607246,0.002751358784735203
1761431158518440700,9.644440673828125,-0.00010614475468173623,0.0008369381539523602,-0.0007640797994099557
1761431158538383600,9.664383544921876,0.00006438916898332536,-0.0014170743525028229,0.0018810487817972898
1761431158558328800,9.684328857421875,0.0014290462713688612,-0.0010640625841915607,0.00017394812311977148
1761431158578272800,9.704272705078125,0.0003133852733299136,-0.0022869748063385487,-0.0009515864076092839
1761431158598216700,9.724216796875,-0.0016012227861210704,-0.0009303311817348003,-0.0005957409739494324
1761431158618160600,9.74416064453125,0.0014055795036256313,-0.0017578122206032276,-0.0017607577610760927
1761431158638104600,9.7641044921875,0.001172525342553854,0.0012981798499822617,-0.0006819084519520402
1761431158658048800,9.784048828125,0.00199713371694088,-0.00008696271106600761,0.0014083769638091326
1761431158677992700,9.80399267578125,0.00024233883596025407,-0.0002872822806239128,0.00023942289408296347
1761431158697937000,9.82393701171875,-0.00038158276583999395,-0.00028318678960204124,-0.00044042500667274
1761431158717880800,9.843880859375,-0.0005987106706015766,-0.0007772995159029961,0.000044183689169585705
1761431158737824800,9.86382470703125,0.0008314438164234161,0.00035016611218452454,0.0009115635184571147
1761431158757769000,9.88376904296875,0.0010858750902116299,-0.0002657296136021614,-0.00035986281000077724
1761431158777713000,9.903712890625,-0.001334065804257989,0.001239224337041378,-0.0011351217981427908
1761431158797656800,9.92365673828125,-0.0006076782592572272,0.0001995982602238655,-0.002728812862187624
1761431158817600800,9.943600830078125,0.0006018246640451252,-0.0005816095508635044,-0.0013000695034861565
1761431158837544700,9.963544677734374,-0.0000034814001992344856,0.0007597003132104874,0.0013555185869336128
1761431158857489000,9.983489013671875,0.0020334324799478054,0.00024950597435235977,0.000059094629250466824
1761431158877432800,10.003432861328125,0.0018100424204021692,-0.0026900162920355797,0.0008105919696390629
1761431158897376800,10.023376708984374,-0.0013648574240505695,-0.001712440513074398,-0.003502551931887865
1761431158917320700,10.04332080078125,-0.000029488408472388983,-0.0019141524098813534,-0.0004259792040102184
1761431158937264600,10.0632646484375,0.0013351342640817165,-0.003696284955367446,0.0005076415836811066
1761431158957208600,10.08320849609375,0.0008703892817720771,0.0012690974399447441,0.0001501251244917512
1761431158977152800,10.10315283203125,0.00033251731656491756,-0.0008285013027489185,-0.002991180866956711
1761431158997096700,10.1230966796875,-0.0015653816517442465,-0.0005026464350521564,0.0009271495509892702
1761431159017040600,10.14304052734375,0.0012295905034989119,0.00042810291051864624,-0.0016168777365237474
1761431159036984600,10.162984619140625,0.0017289468087255955,0.0005605914629995823,-0.00009079882875084877
1761431159056928500,10.182928466796875,-0.0017574627418071032,0.0005180081352591515,0.002170864026993513
1761431159076872700,10.202872802734374,-0.0006670529255643487,0.0002913745120167732,0.0004681337159126997
1761431159096817000,10.22281689453125,0.001230608089827001,-0.0012689265422523022,0.0002992117078974843
1761431159116760800,10.2427607421875,0.001331765204668045,-0.0000071981921792030334,-0.0008662756299600005
1761431159136704500,10.26270458984375,-0.0008838901412673295,-0.002314177807420492,0.0007844382198527455
1761431159156648400,10.2826484375,0.0006670472212135792,-0.0008312920108437538,0.0010701874271035194
1761431159176592400,10.30259228515625,0.001154680852778256,0.001186432782560587,-0.00045995909022167325
1761431159196536300,10.322536376953124,0.0001231209607794881,-0.0005066394805908203,0.0001533995382487774
1761431159216480500,10.34248046875,-0.0016682111890986562,-0.0005719256587326527,0.00036667322274297476
1761431159236424400,10.362424560546875,0.0005486573209054768,0.0007777172140777111,-0.00008567527402192354
1761431159256368400,10.382368408203124,-0.00015752590843476355,0.002359893638640642,0.003032305743545294
1761431159276312300,10.402312255859375,0.0011902800761163235,0.0004856023006141186,0.008722738362848759
1761431159296256300,10.42225634765625,-0.0011287047527730465,0.025855733081698418,0.008243574760854244
1761431159316200400,10.442200439453124,0.0006637630867771804,-0.01350502297282219,-0.010683564469218254
1761431159336144400,10.462144287109375,0.00017074000788852572,-0.049377504736185074,-0.018394477665424347
1761431159356088300,10.48208837890625,-0.0007191929034888744,-0.014610900543630123,-0.001199152902700007
