time,seconds_elapsed,z,y,x
1761481574903657700,0.07565771484375,0.6060873866081238,0.5487370491027832,-0.5682528614997864
1761481574923600600,0.0956005859375,-0.4372846186161041,-0.8661325573921204,-1.1219907999038696
1761481574943543600,0.11554345703125,0.028361164033412933,-1.4181212186813354,-1.3574936389923096
1761481574963486700,0.13548681640625,0.6758276224136353,-1.3033770322799683,-1.2237539291381836
1761481574983428600,0.1554287109375,0.9100828766822815,-0.7065847516059875,-0.7040674090385437
1761481575003371800,0.175371826171875,0.6457739472389221,0.14489683508872986,-0.05786450207233429
1761481575023314700,0.195314697265625,0.30319538712501526,0.670585572719574,0.2657882869243622
1761481575043256800,0.2152568359375,0.2688864469528198,0.4814319610595703,0.2567562162876129
1761481575063199700,0.23519970703125,0.5802319645881653,0.03371044620871544,0.2196182906627655
1761481575083142700,0.255142578125,0.5618795156478882,0.1720220148563385,0.3941969573497772
1761481575103085800,0.2750859375,-0.12728190422058105,0.4472566545009613,0.5278501510620117
1761481575123027700,0.29502783203125,-0.777201235294342,0.7058981657028198,0.34226417541503906
1761481575142971000,0.314970947265625,-0.9539532661437988,0.8267807960510254,-0.002125183120369911
1761481575162913800,0.334913818359375,-0.5931506156921387,0.8286570906639099,-0.1854322999715805
1761481575182855700,0.354855712890625,-0.1308261603116989,0.6692380309104919,-0.10176002234220505
1761481575202798600,0.374798583984375,-0.031111856922507286,0.5032393336296082,0.04827749356627464
1761481575222741500,0.394741455078125,-0.4635447859764099,0.1668597161769867,0.014529328793287277
1761481575242684700,0.4146845703125,-0.7762431502342224,0.042121678590774536,-0.045696236193180084
1761481575262626600,0.43462646484375,-0.503294050693512,0.2171061635017395,0.19469143450260162
1761481575282570500,0.454570556640625,0.06989459693431854,0.605178713798523,0.8870209455490112
1761481575302513700,0.474513671875,0.24664640426635742,1.5644584894180298,1.8824942111968994
1761481575322455600,0.49445556640625,-0.42778244614601135,0.8426325917243958,1.892140507698059
1761481575342398700,0.514398681640625,-1.1581648588180542,-1.1533511877059937,0.9185558557510376
1761481575362341600,0.534341552734375,-0.22507749497890472,-0.9032429456710815,-0.13674499094486237
1761481575382284500,0.554284423828125,0.7805785536766052,0.5875049829483032,-0.16175203025341034
1761481575402226700,0.574226806640625,1.071334958076477,1.2940274477005005,0.38970962166786194
1761481575422169600,0.594169677734375,0.4729105532169342,0.7651639580726624,0.029234884306788445
1761481575442112800,0.61411279296875,-0.1954602748155594,0.5911916494369507,-0.7203606963157654
1761481575462054700,0.6340546875,0.21475544571876526,1.3168036937713623,-0.69581139087677
1761481575481997800,0.653997802734375,0.7040776610374451,1.5499241352081299,0.12331362068653107
1761481575501940700,0.673940673828125,0.5575689077377319,0.43915969133377075,1.0574390888214111
1761481575521883600,0.693883544921875,0.1540340781211853,-0.3474016785621643,0.9675235748291016
1761481575541825800,0.71382568359375,0.0038504935801029205,0.355664998292923,-0.0475757010281086
1761481575561768700,0.733768798828125,-0.14490212500095367,0.9081375002861023,-0.8739993572235107
1761481575581712000,0.7537119140625,-0.047703832387924194,0.42215996980667114,-1.2623423337936401
1761481575601653500,0.773653564453125,0.02086963690817356,-0.0004516560584306717,-0.6788356304168701
1761481575621596700,0.7935966796875,-0.11638057976961136,-0.5953508019447327,0.3616039454936981
1761481575641539600,0.81353955078125,-0.27082499861717224,-1.1409388780593872,0.7088543176651001
1761481575661482500,0.833482421875,-0.2934868037700653,-0.7360072135925293,-0.05903656780719757
1761481575681424600,0.853424560546875,-0.12667235732078552,-0.5441612005233765,-0.9565256237983704
1761481575701367600,0.873367431640625,0.21253803372383118,-0.9191962480545044,-1.3509893417358398
1761481575721310700,0.893310791015625,0.1803160160779953,-1.0335521697998047,-0.3384365737438202
1761481575741252600,0.913252685546875,-0.0012766264844685793,-0.9888522624969482,1.1279239654541016
1761481575761195800,0.93319580078125,-0.1678478717803955,-1.3263795375823975,1.7913317680358887
1761481575781138700,0.953138671875,-0.08806850761175156,-1.2311875820159912,1.329821228981018
1761481575801081600,0.97308154296875,0.2940758168697357,-0.8042848110198975,0.3585086762905121
1761481575821023700,0.993023681640625,0.5807102918624878,-0.46969491243362427,-0.20668984949588776
1761481575840966700,1.012966552734375,0.5507453083992004,0.193545401096344,0.3888087272644043
1761481575860909800,1.032909912109375,-0.23781266808509827,-0.20334528386592865,0.9775640964508057
1761481575880851700,1.052851806640625,-1.2069255113601685,-0.9463354349136353,0.6912253499031067
1761481575900794600,1.072794677734375,-0.9523400664329529,-0.020635243505239487,-0.13253164291381836
1761481575920737800,1.09273779296875,0.2783648669719696,1.764902949333191,-0.9999833703041077
1761481575940680700,1.1126806640625,0.7368797659873962,2.195194959640503,-1.3796437978744507
1761481575960622800,1.132622802734375,0.2905438244342804,1.0195012092590332,-1.059577465057373
1761481575980565800,1.152565673828125,0.12706314027309418,-0.9424655437469482,-0.6902590990066528
1761481576000508700,1.1725087890625,0.5361289381980896,-1.416857123374939,-0.5950543284416199
1761481576020450600,1.192450439453125,0.7523741126060486,-0.3683716356754303,-0.3836679756641388
1761481576040393500,1.2123935546875,0.6658300757408142,0.3577314615249634,-0.03585489094257355
1761481576060336600,1.232336669921875,0.5393434762954712,0.6547268033027649,-0.16313664615154266
1761481576080279600,1.252279541015625,0.6328623294830322,0.4372890889644623,-0.8685832023620605
1761481576100221700,1.2722216796875,0.6424005031585693,-0.040216345340013504,-1.4156527519226074
1761481576120164600,1.29216455078125,0.17733551561832428,-0.47239774465560913,-1.2475861310958862
1761481576140107500,1.312107421875,-0.1343684196472168,-0.5590658783912659,-0.5270771384239197
1761481576160050700,1.33205078125,-0.028176628053188324,-0.3962177634239197,0.20404286682605743
1761481576179992600,1.35199267578125,0.30284902453422546,-0.2206573635339737,0.585669219493866
1761481576199935700,1.371935791015625,0.5330410003662109,-0.1475520133972168,0.5697867274284363
1761481576219878700,1.391878662109375,0.5608921647071838,-0.24426336586475372,0.32136398553848267
1761481576239820800,1.41182080078125,0.42362847924232483,-0.7337594628334045,0.07794303447008133
1761481576259763700,1.431763671875,0.25033697485923767,-1.302630066871643,-0.06276258826255798
1761481576279706000,1.4517060546875,0.012046851217746735,-1.2606147527694702,-0.0569629892706871
1761481576299649300,1.471649169921875,-0.0751645416021347,-0.4732673764228821,0.23738841712474823
1761481576319591200,1.491591064453125,-0.14896120131015778,0.041731055825948715,0.4212180972099304
1761481576339534000,1.5115341796875,-0.5854738354682922,-0.1713889092206955,0.3628694713115692
1761481576359477000,1.53147705078125,-1.28182852268219,0.13347625732421875,0.5380603075027466
1761481576379419100,1.551419189453125,-1.4419128894805908,1.384029746055603,0.6049290299415588
1761481576399362000,1.571362060546875,-1.018230676651001,2.7042417526245117,0.050141509622335434
1761481576419305000,1.591304931640625,-0.9486528635025024,2.0422616004943848,-1.6290347576141357
1761481576439248100,1.611248046875,-1.211904525756836,-0.688949704170227,-3.0079638957977295
1761481576459190000,1.63118994140625,-0.8364239931106567,-2.571017026901245,-2.4235384464263916
1761481576479133200,1.65113330078125,-0.025214286521077156,-1.6985665559768677,-0.6428892016410828
1761481576499076000,1.671076171875,0.6828354001045227,0.34648603200912476,1.1693167686462402
1761481576519019000,1.69101904296875,0.8680735230445862,1.3271828889846802,1.9417389631271362
1761481576538961200,1.710961181640625,0.42496633529663086,1.0559331178665161,1.5191378593444824
1761481576558904000,1.730904052734375,-0.035937242209911346,-0.06501245498657227,0.6567409634590149
1761481576578847200,1.75084716796875,0.042997412383556366,-0.7721611261367798,0.1878933608531952
1761481576598789000,1.7707890625,0.3926728665828705,-0.42148685455322266,0.17868217825889587
1761481576618732300,1.790732177734375,0.28164228796958923,0.02251039445400238,0.09049497544765472
1761481576638675200,1.81067529296875,-0.5744932293891907,0.513841986656189,-0.006457318086177111
1761481576658618000,1.8306181640625,-1.0833699703216553,0.8317255973815918,-0.08270159363746643
1761481576678560300,1.850560302734375,-0.6788181066513062,0.7821319699287415,-0.2718057632446289
1761481576698503200,1.870503173828125,0.03126901015639305,0.44774311780929565,-0.5469639301300049
1761481576718446300,1.8904462890625,0.1957554817199707,0.029902810230851173,-0.5696631669998169
1761481576738388000,1.910387939453125,-0.04645698890089989,-0.3493073880672455,-0.3700887858867645
1761481576758331100,1.9303310546875,-0.29560381174087524,-0.5446455478668213,-0.043671853840351105
1761481576778274000,1.950274169921875,-0.27561384439468384,-0.31820204854011536,0.12656591832637787
1761481576798217000,1.970217041015625,-0.007154701743274927,0.06106569990515709,0.0019071378046646714
1761481576818159000,1.9901591796875,0.24896246194839478,0.12041202932596207,-0.20171047747135162
1761481576838102000,2.01010205078125,0.35762327909469604,-0.002158486284315586,-0.16499657928943634
1761481576858045200,2.030045166015625,0.30985063314437866,-0.08643802255392075,0.14390011131763458
1761481576877988000,2.049988037109375,0.3536587357521057,0.012748867273330688,0.371286541223526
1761481576897930200,2.06993017578125,0.4600726068019867,0.1969720721244812,0.39203450083732605
1761481576917873200,2.089873046875,0.4415506422519684,0.22937162220478058,0.242929607629776
1761481576937816000,2.109816162109375,0.2829309105873108,0.1282396763563156,-0.04963808134198189
1761481576957758200,2.12975830078125,0.1359647959470749,-0.038380395621061325,-0.32189878821372986
1761481576977701000,2.149701171875,0.17954647541046143,-0.12107187509536743,-0.43143948912620544
1761481576997644300,2.169644287109375,0.3337283730506897,-0.22220709919929504,-0.37658342719078064
1761481577017587200,2.189587158203125,0.4064808189868927,-0.35583892464637756,-0.2604252099990845
1761481577037529300,2.209529296875,0.3135002553462982,-0.5451220870018005,-0.026769135147333145
1761481577057472300,2.22947216796875,0.25694364309310913,-0.5374541878700256,0.23364311456680298
1761481577077415200,2.249415283203125,0.264117032289505,-0.3302130699157715,0.3175450563430786
1761481577097357000,2.269357177734375,0.2796764671802521,-0.05919367074966431,0.23109008371829987
1761481577117300000,2.289300048828125,0.25608038902282715,0.208792582154274,0.14981217682361603
1761481577137243100,2.3092431640625,0.1345224827528,0.2511140704154968,0.10817687958478928
1761481577157186000,2.32918603515625,0.02726675756275654,0.028212938457727432,0.11108549684286118
1761481577177128200,2.349128173828125,-0.023453088477253914,-0.06355296820402145,0.1076333150267601
1761481577197071000,2.369071044921875,-0.0005440976819954813,-0.023069530725479126,0.053825028240680695
1761481577217014000,2.389013916015625,0.033554159104824066,-0.0165261123329401,-0.03140365332365036
1761481577236957200,2.408957275390625,0.11159644275903702,-0.04293031245470047,-0.11341741681098938
1761481577256899000,2.428899169921875,0.14339539408683777,-0.06290353834629059,-0.07075043767690659
1761481577276842200,2.44884228515625,0.05253637582063675,-0.0817650854587555,0.0813678503036499
1761481577296785400,2.468785400390625,-0.05204601585865021,-0.1057606190443039,0.1796605885028839
1761481577316727300,2.488727294921875,-0.07088452577590942,-0.012945130467414856,0.09835544973611832
1761481577336670500,2.50867041015625,-0.043977487832307816,0.14120930433273315,0.024590542539954185
1761481577356613400,2.52861328125,-0.007912957109510899,0.1721045821905136,0.04639804735779762
1761481577376556300,2.548556396484375,-0.013748585246503353,0.12401610612869263,0.09896859526634216
1761481577396498200,2.568498291015625,-0.02223069779574871,0.0681517943739891,0.1260373592376709
1761481577416441000,2.588441162109375,-0.006870388984680176,0.015105518512427807,0.10996615141630173
1761481577436384300,2.60838427734375,0.027008429169654846,0.014177332632243633,0.10657922178506851
1761481577456327200,2.6283271484375,0.07204962521791458,0.05418981611728668,0.1338678002357483
1761481577476269300,2.648269287109375,0.06198655068874359,0.19917143881320953,0.1535494476556778
1761481577496212200,2.668212158203125,0.00525812990963459,0.25554749369621277,0.1425997018814087
1761481577516155100,2.688155029296875,-0.0835513174533844,0.21153825521469116,0.0948762372136116
1761481577536097300,2.70809716796875,-0.1439727395772934,0.1316150724887848,0.06366675347089767
1761481577556040200,2.728040283203125,-0.23121678829193115,0.11497411876916885,0.054140809923410416
1761481577575983400,2.7479833984375,-0.2919621467590332,0.12824827432632446,0.010510662570595741
1761481577595926300,2.76792626953125,-0.298526793718338,0.18468058109283447,-0.05586114153265953
1761481577615868400,2.787868408203125,-0.2765599191188812,0.19446226954460144,-0.07686068117618561
1761481577635811300,2.807811279296875,-0.2152010053396225,0.1507139801979065,0.019175706431269646
1761481577655754200,2.827754150390625,-0.14718030393123627,0.21887485682964325,0.17219631373882294
1761481577675697400,2.847697509765625,-0.1746128350496292,0.3393562138080597,0.17376919090747833
1761481577695639300,2.867639404296875,-0.2130233496427536,0.3220876455307007,0.00532119907438755
1761481577715582500,2.88758251953125,-0.2020673006772995,0.10490816831588745,-0.15879976749420166
1761481577735525400,2.907525390625,-0.20366883277893066,-0.04887720197439194,-0.13381622731685638
1761481577755467500,2.927467529296875,-0.23875826597213745,0.012285050004720688,-0.059992026537656784
1761481577775410400,2.947410400390625,-0.26007649302482605,0.15074390172958374,-0.07865174859762192
1761481577795353300,2.967353271484375,-0.17542578279972076,0.16118589043617249,-0.1411191076040268
1761481577815296500,2.987296630859375,-0.011493314988911152,0.0024781087413430214,-0.10717355459928513
1761481577835238100,3.007238037109375,0.1279536336660385,-0.07338321208953857,0.03347447142004967
1761481577855181300,3.027181396484375,0.18861117959022522,-0.03486350178718567,0.1503404974937439
1761481577875124200,3.047124267578125,0.17558197677135468,0.0024879411794245243,0.14244094491004944
1761481577895067100,3.067067138671875,0.12378115206956863,-0.04719517379999161,0.06890906393527985
1761481577915009300,3.08700927734375,0.07146281749010086,-0.0877218246459961,-0.008202499710023403
1761481577934952200,3.1069521484375,-0.02353367581963539,0.028814608231186867,-0.044128742069005966
1761481577954895400,3.126895263671875,-0.07410029321908951,0.13236147165298462,-0.08876943588256836
1761481577974838300,3.14683837890625,-0.05200803652405739,0.13849839568138123,-0.11543571949005127
1761481577994780400,3.166780517578125,0.026239579543471336,0.05462547764182091,-0.08095547556877136
1761481578014723300,3.186723388671875,0.10097149759531021,0.018369637429714203,-0.028880316764116287
1761481578034666200,3.206666259765625,0.11876636743545532,0.08189243078231812,-0.10099387168884277
1761481578054608400,3.2266083984375,0.06905505806207657,0.2664377987384796,-0.27597060799598694
1761481578074551300,3.24655126953125,-0.02662704698741436,0.24418285489082336,-0.46308252215385437
1761481578094494500,3.266494384765625,-0.040148451924324036,-0.02133243717253208,-0.5705391764640808
1761481578114437400,3.286437255859375,0.09599847346544266,-0.08590807765722275,-0.49074992537498474
1761481578134379300,3.306379150390625,0.22211933135986328,0.14844641089439392,-0.3739488422870636
1761481578154322400,3.326322509765625,0.21143142879009247,0.5312128067016602,-0.4657137393951416
1761481578174265300,3.346265380859375,0.12476050853729248,0.3865952491760254,-0.7731277942657471
1761481578194208300,3.366208251953125,-0.04141866788268089,-0.16825313866138458,-1.0226457118988037
1761481578214150400,3.386150390625,-0.3381892442703247,-0.8101451396942139,-0.9736762046813965
1761481578234093300,3.40609326171875,-0.33412376046180725,-0.46415412425994873,-0.5784257650375366
1761481578254036500,3.426036376953125,-0.04070856422185898,0.8140662908554077,-0.2811107337474823
1761481578273979100,3.445979248046875,0.1677718311548233,0.5229660868644714,-0.205407053232193
1761481578293921300,3.46592138671875,0.46133145689964294,-0.519745409488678,-0.25850486755371094
1761481578313864200,3.4858642578125,0.7189399003982544,-1.0589638948440552,-0.29611119627952576
1761481578333807000,3.50580712890625,0.49863308668136597,-0.2770789563655853,0.029007045552134514
1761481578353749200,3.525749267578125,-0.2543497085571289,1.2200404405593872,0.6154285073280334
1761481578373692200,3.545692138671875,-0.6557608842849731,1.4699031114578247,0.559295117855072
1761481578393635300,3.56563525390625,-0.7233608961105347,0.6086927652359009,0.3127650320529938
1761481578413578200,3.585578125,-0.6076651811599731,-0.33684468269348145,0.38312846422195435
1761481578433520400,3.605520263671875,-0.3622884750366211,-0.8823232054710388,0.4402713179588318
1761481578453463300,3.62546337890625,-0.07857073098421097,-0.9276384711265564,0.39887866377830505
1761481578473406200,3.64540625,0.4752844274044037,-0.4831203818321228,0.5670409202575684
1761481578493349400,3.665349365234375,0.9113255739212036,0.2539951205253601,1.0355231761932373
1761481578513291300,3.685291259765625,0.8192082643508911,0.7673267722129822,1.2351226806640625
1761481578533234400,3.705234375,0.4028582274913788,1.3715345859527588,0.9073504209518433
1761481578553177300,3.72517724609375,0.04472558572888374,1.7310764789581299,0.2338014394044876
1761481578573120300,3.745120361328125,-0.28175196051597595,1.7709827423095703,-0.15392737090587616
1761481578593062100,3.765062255859375,-0.36536189913749695,1.691495656967163,-0.1346396952867508
1761481578613005000,3.785005126953125,-0.18957893550395966,1.6219316720962524,0.14400522410869598
1761481578632948200,3.8049482421875,-0.10657982528209686,1.281665563583374,0.19989809393882751
1761481578652891100,3.82489111328125,-0.2827906012535095,0.5964643359184265,0.04189620167016983
1761481578672833300,3.844833251953125,-0.3109745979309082,0.11025594919919968,-0.15146099030971527
1761481578692776200,3.864776123046875,-0.0733594000339508,0.035918015986680984,-0.1510343998670578
1761481578712719000,3.884718994140625,0.4903187155723572,0.2568569779396057,0.21713073551654816
1761481578732662300,3.904662353515625,0.9777938723564148,0.28028324246406555,0.7253842353820801
1761481578752604200,3.924604248046875,0.647576630115509,-0.6194363832473755,0.7204480171203613
1761481578772547300,3.94454736328125,-0.036458857357501984,-1.9158720970153809,0.5494428277015686
1761481578792490200,3.964490234375,-0.24629582464694977,-1.7927078008651733,0.8766180276870728
1761481578812433200,3.98443310546875,0.1543159931898117,-0.308097243309021,0.8539479970932007
1761481578832375300,4.004375244140625,0.5708818435668945,0.3294377624988556,-0.1393243372440338
1761481578852318200,4.024318115234375,0.5743811726570129,-0.1879170686006546,-1.116327166557312
1761481578872261400,4.044261474609375,0.37504658102989197,-1.2165566682815552,-1.0919932126998901
1761481578892203300,4.064203369140625,0.4166233241558075,-1.2922866344451904,-0.3951435387134552
1761481578912146400,4.084146484375,0.747418224811554,-0.015407190658152103,0.39415693283081055
1761481578932089300,4.10408935546875,0.9678308367729187,1.0915340185165405,0.6241254210472107
1761481578952032300,4.1240322265625,0.7602300047874451,1.064244270324707,0.2652188241481781
1761481578971974400,4.143974365234375,0.35104823112487793,0.22805503010749817,-0.03967978432774544
1761481578991917300,4.163917236328125,0.1898178607225418,-0.4731781780719757,-0.2818760573863983
1761481579011860500,4.183860595703125,0.2730283737182617,-0.4019958972930908,-0.5323768854141235
1761481579031803400,4.203803466796875,0.1828894317150116,0.06307262182235718,-0.6851511001586914
1761481579051745300,4.223745361328125,-0.1760198473930359,0.5021041035652161,-0.7198066711425781
1761481579071688200,4.243688232421875,-0.43569299578666687,0.4859682023525238,-0.4788195788860321
1761481579091631000,4.263631103515625,-0.2713554799556732,-0.07285316288471222,0.22095274925231934
1761481579111574300,4.28357421875,0.16147936880588531,-0.8927305936813354,1.0825937986373901
1761481579131516200,4.30351611328125,0.2674693465232849,-1.4950761795043945,1.5882371664047241
1761481579151459300,4.323459228515625,0.02533004991710186,-1.4763824939727783,1.6257209777832031
1761481579171402200,4.34340234375,-0.1602308601140976,-1.2603622674942017,1.485138177871704
1761481579191345200,4.36334521484375,-0.2062036246061325,-0.8112961053848267,1.3892916440963745
1761481579211287300,4.383287353515625,-0.35834938287734985,-0.0325782410800457,1.4322123527526855
1761481579231230200,4.403230224609375,-0.39856913685798645,0.2652495801448822,1.880252480506897
1761481579251173400,4.42317333984375,0.025565631687641144,-0.3333170711994171,2.6139674186706543
1761481579271116000,4.443115966796875,0.3345133066177368,-0.9309586882591248,2.497702121734619
1761481579291058000,4.463057861328125,-0.12224327027797699,-0.6376312971115112,1.5392040014266968
1761481579311000800,4.483000732421875,-0.9051363468170166,-0.19432763755321503,0.7320345044136047
1761481579330943700,4.50294384765625,-0.8906523585319519,0.3969559967517853,1.0652308464050293
1761481579350887000,4.522886962890625,-0.1630035936832428,0.5026966333389282,1.6949084997177124
1761481579370828800,4.542828857421875,0.10271991789340973,0.09922567754983902,1.8069294691085815
1761481579390772000,4.56277197265625,-0.17922602593898773,-0.24359431862831116,1.2889504432678223
1761481579410715000,4.58271484375,-0.5751317143440247,0.1341908723115921,0.07098426669836044
1761481579430657800,4.60265771484375,-0.8117182850837708,0.7278704643249512,-1.3286081552505493
1761481579450600000,4.622599853515625,-0.7326652407646179,0.837829053401947,-2.0552897453308105
1761481579470542800,4.64254296875,-0.113050676882267,0.13585534691810608,-1.951573371887207
1761481579490486000,4.662486083984375,0.3947651982307434,-0.2082846462726593,-1.1967405080795288
1761481579510429000,4.682428955078125,0.29978635907173157,-0.129845529794693,-0.3514764904975891
1761481579530371000,4.70237109375,-0.0416613444685936,-0.1432279646396637,-0.1284002661705017
1761481579550314000,4.72231396484375,0.09479488432407379,0.14778058230876923,-0.6005485653877258
1761481579570257000,4.7422568359375,0.21513620018959045,1.1068910360336304,-0.8051378130912781
1761481579590200000,4.762199951171875,-0.13034360110759735,1.1236567497253418,-0.6961641311645508
1761481579610142000,4.782141845703125,-0.5429040193557739,0.2886327803134918,-0.3898632526397705
1761481579630084900,4.8020849609375,-0.5764228105545044,-0.4412457048892975,-0.3448111414909363
1761481579650028000,4.822028076171875,-0.41796913743019104,-0.7662245631217957,-0.5405178070068359
1761481579669971000,4.841970947265625,-0.490309476852417,-0.6504207253456116,-0.7127308249473572
1761481579689913000,4.8619130859375,-0.4973463714122772,-0.5284155607223511,-0.7058866024017334
1761481579709856000,4.88185595703125,-0.27568426728248596,-0.34945958852767944,-0.4759497344493866
1761481579729798000,4.9017978515625,0.042574070394039154,0.021531756967306137,0.014146078377962112
1761481579749740800,4.92174072265625,-0.0885300487279892,0.13911335170269012,0.5740815997123718
1761481579769683700,4.94168359375,-0.23039408028125763,-0.39620715379714966,0.6869697570800781
1761481579789627000,4.961626953125,0.01184870395809412,-0.9761451482772827,0.13912217319011688
1761481579809568800,4.98156884765625,0.16793881356716156,-0.5634242296218872,-0.564228355884552
1761481579829512000,5.001511962890625,-0.12369255721569061,0.4806426465511322,-0.6088256239891052
1761481579849454800,5.021454833984375,-0.3520769476890564,1.5658464431762695,0.3885599970817566
1761481579869397800,5.041397705078125,-0.42823952436447144,1.461921215057373,0.8372352123260498
1761481579889340000,5.06133984375,0.030019551515579224,0.5109860897064209,-0.034271240234375
1761481579909282800,5.08128271484375,0.38856256008148193,-1.0279213190078735,-1.2855144739151
1761481579929226000,5.10122607421875,0.3213101029396057,-1.7530301809310913,-1.4793167114257812
1761481579949169000,5.1211689453125,0.06756676733493805,-1.044447422027588,-0.9486808180809021
1761481579969111000,5.141111083984375,-0.13584387302398682,-0.14137960970401764,-0.8155018091201782
1761481579989054000,5.161053955078125,-0.07904493808746338,0.07384949922561646,-1.277748465538025
1761481580008996900,5.180996826171875,-0.11057798564434052,-0.14306604862213135,-1.7354241609573364
1761481580028940000,5.20093994140625,-0.13508732616901398,-0.4959307610988617,-1.6320573091506958
1761481580048882000,5.2208818359375,0.1400361806154251,-0.6850050687789917,-1.1724324226379395
1761481580068825900,5.240825927734375,0.44284334778785706,-0.3322678506374359,-0.7067614197731018
1761481580088769000,5.26076904296875,0.29610663652420044,0.17163173854351044,-0.3825964629650116
1761481580108712000,5.2807119140625,-0.14575456082820892,0.21461190283298492,-0.2423555850982666
1761481580128654000,5.300654052734375,-0.3993818461894989,-0.2580072581768036,-0.15805649757385254
1761481580148597000,5.320596923828125,-0.26895931363105774,-0.6070162057876587,0.05383022129535675
1761481580168540000,5.340539794921875,0.09800750017166138,-0.671667218208313,0.29188501834869385
1761481580188483000,5.360483154296875,0.16865220665931702,-0.34677907824516296,0.2414730042219162
1761481580208425000,5.380425048828125,-0.12180938571691513,0.01813618466258049,0.024848271161317825
1761481580228368100,5.4003681640625,-0.24302172660827637,-0.14134611189365387,0.13244876265525818
1761481580248311000,5.42031103515625,-0.1960982233285904,-0.9746254086494446,0.5296246409416199
1761481580268254000,5.44025390625,-0.08708447962999344,-1.488001823425293,0.9927746057510376
1761481580288196000,5.460196044921875,0.13580654561519623,-0.7222976088523865,1.1516486406326294
1761481580308139000,5.480138916015625,0.2033892720937729,0.5129208564758301,0.6826784014701843
1761481580328082200,5.500082275390625,-0.04457490146160126,0.8566102981567383,0.007526024244725704
1761481580348025000,5.520025146484375,-0.04963703081011772,0.2941236197948456,-0.18637704849243164
1761481580367967200,5.53996728515625,0.0738794207572937,0.36794158816337585,-0.016893848776817322
1761481580387910100,5.55991015625,0.48506590723991394,0.5580494999885559,-0.29769667983055115
1761481580407853000,5.57985302734375,0.9555613994598389,0.08530469238758087,-0.6657798290252686
1761481580427796200,5.599796142578125,0.9527963995933533,-0.2856277823448181,-0.6154032945632935
1761481580447739100,5.6197392578125,0.5594130754470825,-0.053166382014751434,-0.2992711067199707
1761481580467681000,5.639680908203125,0.2640035152435303,0.8850229978561401,-0.09154541790485382
1761481580487624000,5.6596240234375,0.16120196878910065,1.1972576379776,-0.4587283134460449
1761481580507566800,5.67956689453125,0.14525437355041504,1.0207650661468506,-0.7826294898986816
1761481580527510000,5.699510009765625,0.14184728264808655,0.4387526512145996,-1.0629284381866455
1761481580547452000,5.719451904296875,-0.12803234159946442,-0.19234086573123932,-0.9840238094329834
1761481580567395000,5.73939501953125,-0.33010241389274597,-0.35903799533843994,-0.34385332465171814
1761481580587338000,5.759337890625,-0.5364176034927368,0.16951827704906464,0.6844969391822815
1761481580607281000,5.779281005859375,-0.4488522410392761,0.858110249042511,1.2090768814086914
1761481580627223000,5.79922314453125,0.02502921037375927,0.4996489882469177,0.6283746361732483
1761481580647166000,5.819166015625,0.192512646317482,0.12024105340242386,0.28969982266426086
1761481580667109000,5.839109130859375,0.23408383131027222,-0.10585900396108627,0.1220536008477211
1761481580687052000,5.859052001953125,0.209726944565773,0.290017694234848,0.08176916092634201
1761481580706995000,5.878994873046875,0.07000479102134705,0.648273766040802,0.2689090371131897
1761481580726937000,5.89893701171875,0.0195593424141407,0.5832687616348267,0.2862769365310669
1761481580746880000,5.9188798828125,-0.055107273161411285,-0.06789183616638184,0.30060306191444397
1761481580766823200,5.9388232421875,-0.23370125889778137,-0.49730759859085083,0.7342954874038696
1761481580786766000,5.95876611328125,-0.28307193517684937,-0.5055724382400513,1.3777416944503784
1761481580806708200,5.978708251953125,-0.21585136651992798,-0.5140587687492371,1.4715608358383179
1761481580826651100,5.998651123046875,-0.5873345732688904,0.07047034800052643,1.3310943841934204
1761481580846594000,6.018593994140625,-0.6668342351913452,0.9832370281219482,1.2029093503952026
1761481580866537200,6.038537109375,-0.20510907471179962,1.012076735496521,0.6034805178642273
1761481580886479000,6.05847900390625,0.33165064454078674,0.24456261098384857,-0.07480267435312271
1761481580906422000,6.078422119140625,0.5032356381416321,-0.21286509931087494,-0.37598323822021484
1761481580926365200,6.098365234375,0.3833485245704651,0.5135460495948792,-0.3450615406036377
1761481580946308000,6.11830810546875,0.5108080506324768,1.4626340866088867,-0.36633601784706116
1761481580966250000,6.13825,0.8023423552513123,1.1771173477172852,-0.2868749499320984
1761481580986193000,6.15819287109375,0.9135456681251526,0.44925546646118164,-0.10354860872030258
1761481581006136000,6.178135986328125,0.693083643913269,-0.3000718951225281,-0.3567813038825989
1761481581026079000,6.198078857421875,0.2590912878513336,-0.9311643838882446,-0.8250174522399902
1761481581046022000,6.21802197265625,-0.1509837508201599,-1.1143521070480347,-1.1017920970916748
1761481581065964000,6.237964111328125,-0.3665926456451416,-0.7205094695091248,-0.8852980732917786
1761481581085907000,6.257906982421875,-0.2917446792125702,0.4072318375110626,-0.2941131889820099
1761481581105849900,6.277849853515625,-0.16391684114933014,1.2034183740615845,0.01682749018073082
1761481581125793000,6.29779296875,-0.13421876728534698,1.3635029792785645,-0.39223259687423706
1761481581145735000,6.31773486328125,-0.28815609216690063,0.6190218925476074,-1.0331743955612183
1761481581165678000,6.337677978515625,-0.5076204538345337,-0.5757109522819519,-1.0893163681030273
1761481581185621000,6.35762109375,-0.31181100010871887,-1.3279526233673096,-0.625460684299469
1761481581205564000,6.37756396484375,-0.11108862608671188,-1.1352663040161133,0.06816691905260086
1761481581225507000,6.397507080078125,-0.17023785412311554,-0.6579961180686951,0.39529016613960266
1761481581245449000,6.417448974609375,-0.19181543588638306,-0.05787167698144913,0.3145163059234619
1761481581265392000,6.43739208984375,-0.009418138302862644,0.47364306449890137,0.30704566836357117
1761481581285335600,6.45733544921875,0.36038386821746826,1.0992823839187622,0.09313888102769852
1761481581305278500,6.477278564453125,0.08076820522546768,1.8919421434402466,-0.47117215394973755
1761481581325220600,6.497220703125,-0.32973429560661316,2.7629172801971436,-0.8589861989021301
1761481581345163500,6.51716357421875,0.179811492562294,2.650501251220703,-0.6763713359832764
1761481581365106700,6.537106689453125,1.1195416450500488,1.1675866842269897,-0.6828320026397705
1761481581385049600,6.557049560546875,0.8963837027549744,-0.560945987701416,-1.1895287036895752
1761481581404991700,6.57699169921875,-0.0035322883632034063,-1.991065263748169,-1.4908361434936523
1761481581424934700,6.5969345703125,-0.3015260100364685,-2.7436184883117676,-1.1170233488082886
1761481581444877600,6.616877685546875,-0.1480160802602768,-2.455310821533203,-0.01932438276708126
1761481581464820700,6.63682080078125,-0.05017595738172531,-1.2401518821716309,0.922916054725647
1761481581484763600,6.656763671875,-0.17829829454421997,-0.22285211086273193,1.1223479509353638
1761481581504705800,6.676705810546875,-0.5205675959587097,0.1867832988500595,0.7433654069900513
1761481581524648700,6.696648681640625,-0.6769680976867676,0.09538741409778595,0.22311919927597046
1761481581544591600,6.716591552734375,-0.5754162073135376,-0.4185984134674072,-0.32326340675354004
1761481581564534800,6.73653466796875,-0.16780497133731842,-0.6391715407371521,-0.8908081650733948
1761481581584476700,6.7564765625,0.15831834077835083,-0.7084781527519226,-1.2611976861953735
1761481581604419600,6.776419677734375,0.03368639945983887,-0.7552710175514221,-1.1992145776748657
1761481581624362800,6.79636279296875,-0.3206714391708374,-0.0867602676153183,-0.6502118706703186
1761481581644305700,6.8163056640625,-0.5014106035232544,0.5156291127204895,-0.011937839910387993
1761481581664248800,6.836248779296875,-0.41346368193626404,0.3924497365951538,0.391973078250885
1761481581684190700,6.856190673828125,-0.32117700576782227,-0.2958017587661743,0.5085241198539734
1761481581704133600,6.876133544921875,-0.3181886076927185,-0.8008686304092407,0.5017331838607788
1761481581724076800,6.896076904296875,-0.41325098276138306,-0.7309226989746094,0.6514167189598083
1761481581744019700,6.916019775390625,-0.5112372636795044,-0.43630242347717285,0.8377174139022827
1761481581763961600,6.935961669921875,-0.48571333289146423,-0.1868269294500351,1.037718653678894
1761481581783904500,6.955904541015625,-0.7028356790542603,0.033798329532146454,1.2767395973205566
1761481581803847400,6.975847412109375,-0.5989588499069214,0.00565642025321722,1.2555210590362549
1761481581823790600,6.99579052734375,-0.6420183181762695,0.16032056510448456,0.8907176852226257
1761481581843733500,7.0157333984375,-0.46394044160842896,0.5339504480361938,0.6092135310173035
1761481581863675600,7.035675537109375,0.46040138602256775,0.73078852891922,0.5402759313583374
1761481581883618600,7.05561865234375,0.8758196234703064,-0.20724177360534668,0.14823733270168304
1761481581903561500,7.0755615234375,0.9270775318145752,-1.9322243928909302,-0.49273213744163513
1761481581923504600,7.095504638671875,0.9256471991539001,-2.6316006183624268,-0.9123718738555908
1761481581943446500,7.115446533203125,0.9116075038909912,-1.7204303741455078,-0.9220656156539917
1761481581963389700,7.1353896484375,0.5222843885421753,-0.1671345978975296,-0.24868737161159515
1761481581983332600,7.15533251953125,0.04231993854045868,0.5306258201599121,0.4592685103416443
1761481582003275500,7.175275634765625,-0.4975208640098572,-0.0380251519382,0.7542639970779419
1761481582023218700,7.19521875,-0.8037042021751404,-0.5904451608657837,0.6483739018440247
1761481582043160600,7.21516064453125,-0.7207642793655396,-0.37695252895355225,-0.0075672585517168045
1761481582063103700,7.235103759765625,-0.6792896389961243,0.23859664797782898,-0.6957237720489502
1761481582083046700,7.255046630859375,-0.786608099937439,0.569063663482666,-0.9531574249267578
1761481582102989600,7.274989501953125,-0.5900187492370605,0.6125530004501343,-0.660433828830719
1761481582122931700,7.294931640625,-0.09023816138505936,0.4645106792449951,-0.20088155567646027
1761481582142874600,7.31487451171875,0.40368932485580444,0.3999530076980591,-0.055072300136089325
1761481582162817800,7.33481787109375,0.15828701853752136,0.4269561469554901,-0.28656119108200073
1761481582182760700,7.3547607421875,-0.5421469807624817,0.46082785725593567,-0.5657085180282593
1761481582202703600,7.37470361328125,-0.9028518199920654,0.3168015778064728,-0.4068779945373535
1761481582222645800,7.394645751953125,-0.6129111051559448,0.40480276942253113,0.33994022011756897
1761481582242588700,7.414588623046875,-0.31616273522377014,0.5144431591033936,0.8832600116729736
1761481582262531800,7.43453173828125,-0.48468998074531555,0.6644384860992432,0.9904186725616455
1761481582282474800,7.454474853515625,-0.7795801758766174,0.5492618083953857,0.8314118385314941
1761481582302417700,7.474417724609375,-0.6852859258651733,0.1907714158296585,0.8048717379570007
1761481582322359800,7.49435986328125,-0.05810067057609558,0.23283104598522186,0.9569027423858643
1761481582342302700,7.514302734375,0.677767276763916,0.5357733368873596,0.9326649308204651
1761481582362246000,7.534245849609375,0.7523829340934753,0.6819530725479126,0.4166310131549835
1761481582382188800,7.554188720703125,0.2690262198448181,0.49035051465034485,-0.27776873111724854
1761481582402131000,7.574130859375,0.14887715876102448,-0.11844165623188019,-0.783669650554657
1761481582422073900,7.594073974609375,0.6209694147109985,-0.8274621963500977,-0.9464027881622314
1761481582442016800,7.614016845703125,0.8425896763801575,-1.0494065284729004,-0.5671215653419495
1761481582461960000,7.6339599609375,0.6891084313392639,-0.4539855718612671,0.07750099897384644
1761481582481902800,7.65390283203125,0.47134214639663696,0.07249259948730469,0.4577454626560211
1761481582501845000,7.673844970703125,0.38830476999282837,0.3014780282974243,0.28448063135147095
1761481582521788000,7.693787841796875,0.5053771138191223,0.09951342642307281,-0.3772634267807007
1761481582541730800,7.713730712890625,0.5363677144050598,-0.4679130017757416,-1.1844899654388428
1761481582561674000,7.733674072265625,0.3098275363445282,-0.6488391757011414,-1.292870044708252
1761481582581617000,7.753616943359375,-0.09970080852508545,-0.2257242053747177,-0.5842028856277466
1761481582601558800,7.773558837890625,-0.18116945028305054,0.3994174301624298,0.33358094096183777
1761481582621501700,7.793501708984375,0.02592874877154827,0.7913299202919006,0.845812201499939
1761481582641444600,7.813444580078125,-0.0924728736281395,0.7956108450889587,0.8266783356666565
1761481582661387800,7.8333876953125,-0.4385892152786255,0.5532610416412354,0.393424928188324
1761481582681330700,7.85333056640625,-0.7346096038818359,0.015313168987631798,0.11820635944604874
1761481582701272800,7.87327294921875,-0.6757017374038696,-0.2514815926551819,0.23890109360218048
1761481582721215700,7.8932158203125,-0.3926689028739929,-0.25361189246177673,0.6572051644325256
1761481582741158700,7.91315869140625,-0.3660261929035187,0.23328807950019836,1.0785566568374634
1761481582761101800,7.933101806640625,-0.49902039766311646,0.5377757549285889,1.4075067043304443
1761481582781044700,7.953044677734375,-0.3482591509819031,0.3507820963859558,1.5472463369369507
1761481582800987000,7.97298681640625,0.007712207734584808,0.26950541138648987,1.655282735824585
1761481582820929800,7.9929296875,-0.09061527997255325,0.9915991425514221,1.7895896434783936
1761481582840872700,8.012872802734375,-0.38051503896713257,2.078908920288086,1.5369243621826172
1761481582860816000,8.03281591796875,-0.5172484517097473,2.3456947803497314,0.29077351093292236
1761481582880757800,8.0527578125,0.0641302615404129,1.1235419511795044,-1.5825753211975098
1761481582900701000,8.072700927734376,0.6804296374320984,-0.9575617909431458,-2.8847358226776123
1761481582920643800,8.092643798828124,0.8989710807800293,-1.7780630588531494,-3.041255474090576
1761481582940586800,8.112586669921875,0.47513270378112793,-0.8432785868644714,-2.55068039894104
1761481582960530000,8.132530029296875,0.06276550143957138,0.41873258352279663,-1.6022363901138306
1761481582980471800,8.152471923828125,-0.02825751341879368,0.6505646705627441,-0.7907814383506775
1761481583000415000,8.1724150390625,-0.13446922600269318,0.33968260884284973,-0.24125537276268005
1761481583020358000,8.19235791015625,-0.1112886443734169,-0.09105376154184341,0.02398817613720894
1761481583040300800,8.21230078125,0.14324866235256195,-0.29240795969963074,0.06240496411919594
1761481583060244000,8.232243896484375,0.5379310846328735,-0.1465412974357605,0.22577698528766632
1761481583080185900,8.252185791015625,0.7808737754821777,0.11028435826301575,0.609398603439331
1761481583100128800,8.272128662109376,0.8201977610588074,0.04854660853743553,0.9416958689689636
1761481583120072000,8.292072021484374,0.7053777575492859,-0.27127665281295776,0.8489607572555542
1761481583140014800,8.312014892578125,0.6509103178977966,-0.6452539563179016,0.4450594484806061
1761481583159957800,8.331957763671875,0.6271704435348511,-0.6204823851585388,0.2756914794445038
1761481583179899600,8.351899658203125,0.4336250424385071,-0.6324755549430847,0.5837244987487793
1761481583199842800,8.3718427734375,0.26894310116767883,-0.6254352331161499,1.3148510456085205
1761481583219785700,8.39178564453125,0.4314592778682709,-0.9211538434028625,1.431372046470642
1761481583239728600,8.411728759765625,0.3943657875061035,-0.7113695740699768,0.9334486722946167
1761481583259671800,8.431671875,-0.14657989144325256,-0.2266729325056076,0.013268913142383099
1761481583279613700,8.45161376953125,-0.8171490430831909,-0.19106416404247284,-0.5746039748191833
1761481583299556600,8.471556640625,-0.8714304566383362,-0.0357762835919857,-0.12239235639572144
1761481583319499800,8.491499755859374,-0.39580944180488586,0.9269858002662659,0.6192105412483215
1761481583339442700,8.511442626953125,-0.3781123161315918,1.4615720510482788,0.009000206366181374
1761481583359385900,8.5313857421875,-0.4498388469219208,0.9531326293945312,-1.3210928440093994
1761481583379327500,8.551327392578125,-0.3022098243236542,0.34518492221832275,-2.218073606491089
1761481583399270700,8.571270751953126,-0.007142804097384214,-0.9322932362556458,-2.3856027126312256
1761481583419213600,8.591213623046874,0.2742953896522522,-1.3754808902740479,-1.2709026336669922
1761481583439156500,8.611156494140625,-0.0812901109457016,-0.6549777388572693,0.13059918582439423
1761481583459098600,8.6310986328125,-0.11992453038692474,-0.051794473081827164,0.23715151846408844
1761481583479041500,8.65104150390625,0.17283430695533752,0.008051848039031029,-0.5900226831436157
1761481583498984400,8.670984375,0.24188965559005737,0.00826968438923359,-1.4946343898773193
1761481583518927600,8.690927734375,-0.08523478358983994,0.03634894639253616,-1.5172549486160278
1761481583538870500,8.71087060546875,-0.4217997193336487,0.21177463233470917,-0.465719997882843
1761481583558812700,8.730812744140625,-0.5960384607315063,0.17243005335330963,0.8672605156898499
1761481583578755600,8.750755615234375,-0.48030439019203186,-0.37906110286712646,1.2615054845809937
1761481583598698500,8.770698486328126,-0.21204647421836853,-0.8095204830169678,0.8097758889198303
1761481583618641700,8.7906416015625,-0.1450936496257782,-0.7939972281455994,0.14255072176456451
1761481583638584600,8.81058447265625,-0.21957236528396606,-0.2885400950908661,-0.2537734806537628
1761481583658527500,8.830527587890625,-0.4116065502166748,0.16477039456367493,-0.32846304774284363
1761481583678468600,8.850468505859375,-0.5735905170440674,-0.04993388056755066,-0.17935903370380402
1761481583698411800,8.870411865234376,-0.5669626593589783,-0.5308415293693542,0.26337534189224243
1761481583718354700,8.890354736328124,-0.2032555341720581,-0.7022702693939209,0.5654517412185669
1761481583738297600,8.910297607421874,0.21960793435573578,-0.43809449672698975,0.5102543234825134
1761481583758240800,8.93024072265625,0.4537460207939148,-0.25953009724617004,-0.22606518864631653
1761481583778183700,8.95018359375,-0.0002723851357586682,-0.7380440831184387,-1.0225111246109009
1761481583798125800,8.970125732421875,0.06228814274072647,-0.3281250298023224,-0.6663233637809753
1761481583818068700,8.99006884765625,0.48748353123664856,0.26865720748901367,0.17676030099391937
1761481583838011600,9.01001171875,0.46709707379341125,0.4373297691345215,0.14779633283615112
1761481583857954800,9.029954833984375,0.3976362645626068,0.2107619196176529,-0.7986726760864258
1761481583877896400,9.049896484375,0.5264162421226501,0.012481335550546646,-1.3792632818222046
1761481583897839600,9.069839599609375,0.7350013256072998,-0.6222196817398071,-1.114822268486023
1761481583917782500,9.089782470703126,0.596139669418335,-1.2702598571777344,-0.3711135983467102
1761481583937725400,9.109725341796874,0.00549777876585722,-1.0422240495681763,0.12383820861577988
1761481583957668600,9.129668701171875,-0.4737391769886017,0.06009659916162491,0.39935746788978577
1761481583977611500,9.149611572265625,-0.4081839621067047,0.7910588979721069,0.5132179856300354
1761481583997553700,9.1695537109375,0.12199811637401581,0.4910278022289276,0.3819189667701721
1761481584017496600,9.18949658203125,0.4765860140323639,-0.03367112949490547,-0.2157573699951172
1761481584037439500,9.209439453125,0.18517658114433289,-0.24498356878757477,-0.952154278755188
1761481584057383400,9.229383544921875,-0.38409727811813354,-0.07260023802518845,-1.142851710319519
1761481584077326600,9.24932666015625,-0.6879121661186218,0.18918651342391968,-0.5397366285324097
1761481584097269500,9.26926953125,-0.5895844101905823,0.268346905708313,0.45616868138313293
1761481584117211600,9.289211669921874,-0.37755972146987915,0.1802866905927658,1.0455166101455688
1761481584137154600,9.309154541015625,-0.28457513451576233,0.10519356280565262,0.9116392135620117
1761481584157097500,9.329097412109375,-0.4152659475803375,-0.00882210023701191,0.2914033532142639
1761481584177040600,9.34904052734375,-0.5641586780548096,-0.2730347812175751,-0.20548881590366364
1761481584196983600,9.368983642578126,-0.2978475093841553,-0.22808794677257538,0.009805047884583473
1761481584216926500,9.388926513671874,-0.010034206323325634,0.14999741315841675,0.6001473069190979
1761481584236868600,9.40886865234375,-0.20622852444648743,0.5635097622871399,1.0800095796585083
1761481584256811500,9.4288115234375,-0.4500816762447357,0.4608362317085266,1.0490890741348267
1761481584276754400,9.44875439453125,-0.7177684307098389,0.2885283827781677,0.4803231954574585
1761481584296697300,9.468697265625,-0.5138707160949707,0.719908595085144,-0.15811635553836823
1761481584316640300,9.48864013671875,0.27833807468414307,0.8978406190872192,-0.5808374285697937
1761481584336582100,9.50858203125,0.5000641942024231,0.5159693360328674,-0.9089285731315613
1761481584356525000,9.528525146484375,0.16661463677883148,-0.4584864377975464,-1.2652573585510254
1761481584376468200,9.54846826171875,0.12210061401128769,-1.3652191162109375,-1.701841950416565
1761481584396411100,9.5684111328125,0.2915318012237549,-1.3830078840255737,-1.8078018426895142
1761481584416354300,9.588354248046874,0.3855319321155548,-0.8850944638252258,-1.5128408670425415
1761481584436296200,9.608296142578125,0.42665132880210876,-0.722824215888977,-1.0375627279281616
1761481584456239000,9.628239013671875,0.33548039197921753,-0.20968005061149597,-0.5912842750549316
1761481584476182300,9.648182373046875,-0.09787900745868683,0.4533127546310425,-0.48842012882232666
1761481584496125200,9.668125244140626,-0.3925199508666992,0.7882540225982666,-0.6132590174674988
1761481584516068000,9.688068115234374,-0.5700931549072266,0.21876928210258484,-0.5613989233970642
1761481584536011300,9.70801123046875,-0.3049437701702118,-0.12410306930541992,-0.04561731591820717
1761481584555953200,9.727953125,0.008889405056834221,-0.06417836248874664,0.4904623031616211
1761481584575896300,9.747896240234375,0.047337088733911514,0.3293211758136749,0.9514918923377991
1761481584595839200,9.767839111328126,0.1075424775481224,0.2127019166946411,1.192535161972046
1761481584615782100,9.7877822265625,0.14043471217155457,-0.237166628241539,1.315765142440796
1761481584635725300,9.807725341796875,0.04250510782003403,-0.6786254048347473,1.103610873222351
1761481584655667200,9.827667236328125,-0.14905142784118652,-0.8978661298751831,0.6389316320419312
1761481584675610400,9.8476103515625,-0.3156976103782654,-1.067313313484192,0.20536474883556366
1761481584695553300,9.86755322265625,-0.31970444321632385,-0.7786219120025635,0.025161709636449814
1761481584715496200,9.88749609375,-0.34147322177886963,0.04177550971508026,0.04363371059298515
1761481584735439400,9.907439453125,-0.5083963871002197,1.0540419816970825,0.18004389107227325
1761481584755381200,9.92738134765625,-0.5954840183258057,1.4807218313217163,0.3059169054031372
1761481584775324400,9.947324462890625,-0.3997313976287842,1.0085997581481934,0.5325441360473633
1761481584795267300,9.967267333984376,-0.3339553773403168,-0.33391842246055603,0.13780660927295685
1761481584815210200,9.987210205078124,-0.5357496738433838,-1.269347071647644,-0.5235130190849304
1761481584835153400,10.0071533203125,-0.6437557339668274,-1.2908378839492798,-0.9519628286361694
1761481584855096300,10.027096435546875,-0.3531363308429718,-0.5339416265487671,-0.7018502354621887
1761481584875038500,10.04703857421875,-0.10317247360944748,-0.033812545239925385,-0.06477155536413193
1761481584894981400,10.0669814453125,0.09219713509082794,-0.17805425822734833,0.28046131134033203
1761481584914924300,10.08692431640625,0.09477027505636215,-0.6736671924591064,0.33937495946884155
1761481584934867500,10.106867431640625,-0.00566476583480835,-1.0008398294448853,0.38858991861343384
