time,seconds_elapsed,z,y,x
1761430160545783800,0.07678369140625,0.09243662655353546,-0.6559838652610779,-0.02384558692574501
1761430160565727700,0.096727783203125,0.15301114320755005,-0.5818539261817932,-0.14153441786766052
1761430160585671700,0.116671630859375,0.13722975552082062,-0.4857541024684906,-0.2823794484138489
1761430160605615600,0.13661572265625,0.05729483440518379,-0.5352740287780762,-0.4393426775932312
1761430160625559800,0.156559814453125,-0.006835788954049349,-0.5854718685150146,-0.5850920677185059
1761430160645503700,0.176503662109375,0.020284457132220268,-0.45244404673576355,-0.6867423057556152
1761430160665447700,0.19644775390625,0.027790099382400513,-0.2767350375652313,-0.6664960980415344
1761430160685391600,0.2163916015625,-0.08854219317436218,0.0505535714328289,-0.5462643504142761
1761430160705335600,0.23633544921875,-0.08556956052780151,0.3025588393211365,-0.29367393255233765
1761430160725278700,0.25627880859375,-0.08414997905492783,0.4614197611808777,-0.07638806104660034
1761430160745223000,0.276222900390625,-0.15791545808315277,0.22416840493679047,-0.015796475112438202
1761430160765166800,0.296166748046875,-0.18783725798130035,0.15150605142116547,0.05967380106449127
1761430160785110800,0.31611083984375,-0.08046524226665497,0.10173586755990982,0.09993059933185577
1761430160805054700,0.3360546875,0.05464104562997818,0.1796116679906845,0.0637391209602356
1761430160824998700,0.35599853515625,0.10751093924045563,0.19003522396087646,-0.11984321475028992
1761430160844942800,0.37594287109375,0.011305022984743118,0.13267211616039276,-0.284021258354187
1761430160864886800,0.39588671875,-0.09756897389888763,0.06984996050596237,-0.2788589596748352
1761430160884830700,0.415830810546875,-0.17076539993286133,0.0031500780023634434,-0.15582826733589172
1761430160904774700,0.435774658203125,-0.2097354382276535,-0.011758564040064812,-0.048549752682447433
1761430160924718600,0.455718505859375,-0.23273776471614838,-0.00023034540936350822,0.018902383744716644
1761430160944662800,0.475662841796875,-0.2349606305360794,-0.06601805239915848,0.11539330333471298
1761430160964606700,0.495606689453125,-0.18824531137943268,-0.15387120842933655,0.19973960518836975
1761430160984550700,0.515550537109375,-0.11674261093139648,-0.19206833839416504,0.206753671169281
1761430161004494600,0.53549462890625,-0.036117926239967346,-0.18337620794773102,0.08620072901248932
1761430161024438500,0.5554384765625,0.019900869578123093,-0.16519826650619507,0.003664841176941991
1761430161044382700,0.5753828125,0.03330668807029724,-0.218774676322937,0.036173779517412186
1761430161064326700,0.59532666015625,0.0427749902009964,-0.3054414689540863,0.12243460863828659
1761430161084269800,0.615269775390625,0.059770893305540085,-0.3178204298019409,0.19897067546844482
1761430161104213800,0.6352138671875,0.05027218163013458,-0.2969420850276947,0.25936779379844666
1761430161124157700,0.65515771484375,0.017865216359496117,-0.2577233612537384,0.2717955708503723
1761430161144101400,0.675101318359375,0.016909927129745483,-0.14545002579689026,0.2558179497718811
1761430161164045600,0.695045654296875,0.043044764548540115,-0.05578388273715973,0.22009769082069397
1761430161183989500,0.714989501953125,0.06009385362267494,-0.0006603961810469627,0.22212325036525726
1761430161203933400,0.734933349609375,0.08410520851612091,0.03429630398750305,0.30301183462142944
1761430161223877400,0.75487744140625,0.12641894817352295,0.01223133597522974,0.4117944836616516
1761430161243821300,0.7748212890625,0.18942473828792572,0.05566529184579849,0.5230947732925415
1761430161263765500,0.794765625,0.22774775326251984,-0.04479890316724777,0.5123277902603149
1761430161283709400,0.81470947265625,0.29800915718078613,-0.11780118197202682,0.48634934425354004
1761430161303653400,0.8346533203125,0.36351001262664795,-0.04339926689863205,0.2763749063014984
1761430161323597300,0.854597412109375,0.35514310002326965,-0.0754414051771164,0.01131730992347002
1761430161343541500,0.87454150390625,0.3243812024593353,-0.15320943295955658,-0.17302919924259186
1761430161363485700,0.894485595703125,0.30236610770225525,-0.1524893343448639,-0.21395111083984375
1761430161383429600,0.9144296875,0.3228229284286499,-0.057208918035030365,-0.16094975173473358
1761430161403372500,0.93437255859375,0.35013312101364136,0.019281063228845596,-0.06136190518736839
1761430161423316500,0.95431640625,0.3348016142845154,-0.05254165455698967,0.06087774038314819
1761430161443260400,0.974260498046875,0.29004794359207153,-0.19915810227394104,0.17141255736351013
1761430161463204400,0.994204345703125,0.27123814821243286,-0.2452370524406433,0.21168380975723267
1761430161483148500,1.0141484375,0.2511841356754303,-0.20231685042381287,0.17473411560058594
1761430161503092500,1.034092529296875,0.24003800749778748,-0.06359276175498962,0.11067809909582138
1761430161523036400,1.054036376953125,0.20189006626605988,0.04343188926577568,0.07579519599676132
1761430161542980400,1.07398046875,0.13406290113925934,0.03636928275227547,0.03345392271876335
1761430161562924300,1.09392431640625,0.04951219633221626,0.052429646253585815,-0.026921717450022697
1761430161582868500,1.113868408203125,-0.03894488513469696,0.0770820677280426,-0.06065370514988899
1761430161602812400,1.1338125,-0.11487767845392227,0.05846367031335831,-0.03130057081580162
1761430161622756600,1.153756591796875,-0.17683711647987366,0.05823814868927002,-0.03789167478680611
1761430161642700500,1.173700439453125,-0.21448148787021637,0.10884963721036911,-0.1529541164636612
1761430161662644500,1.19364453125,-0.22293007373809814,0.20620152354240417,-0.29013317823410034
1761430161682588700,1.213588623046875,-0.18810124695301056,0.25306758284568787,-0.3184926509857178
1761430161702532600,1.23353271484375,-0.11542176455259323,0.16376160085201263,-0.2302786409854889
1761430161722475500,1.2534755859375,-0.08016312122344971,0.02598053589463234,-0.1556171178817749
1761430161742419500,1.27341943359375,-0.062205199152231216,-0.044150616973638535,-0.1396782100200653
1761430161762363400,1.29336328125,-0.03780356049537659,-0.026390381157398224,-0.12512455880641937
1761430161782307300,1.313307373046875,-0.040737416595220566,-0.006837332155555487,-0.07151608914136887
1761430161802251500,1.33325146484375,-0.05857355147600174,-0.016362516209483147,-0.035593606531620026
1761430161822195500,1.353195556640625,-0.06375781446695328,0.018056832253932953,-0.05558810755610466
1761430161842139400,1.373139404296875,-0.05318800359964371,0.0077913380227983,-0.06866627186536789
1761430161862083300,1.393083251953125,-0.014644098468124866,-0.0353824719786644,0.004085771273821592
1761430161882027300,1.41302734375,0.003969892859458923,-0.09955976158380508,0.08823985606431961
1761430161901971500,1.432971435546875,0.004297994077205658,-0.05172353237867355,0.08354337513446808
1761430161921915600,1.45291552734375,0.052124716341495514,0.025157205760478973,0.02679554931819439
1761430161941859600,1.472859619140625,0.11980533599853516,0.04432223364710808,0.009291371330618858
1761430161961803500,1.492803466796875,0.18808360397815704,0.047618549317121506,0.07471655309200287
1761430161981747500,1.51274755859375,0.25531280040740967,0.07761356234550476,0.14893651008605957
1761430162001691600,1.532691650390625,0.29118168354034424,0.07561071962118149,0.1358254849910736
1761430162021634600,1.552634521484375,0.29358118772506714,0.01804329827427864,0.04100736230611801
1761430162041578500,1.57257861328125,0.27936384081840515,-0.08295050263404846,-0.0453827902674675
1761430162061522400,1.5925224609375,0.2500816881656647,-0.1362341195344925,-0.05963658168911934
1761430162081466400,1.61246630859375,0.1940557211637497,-0.12263176590204239,-0.07770326733589172
1761430162101410300,1.632410400390625,0.14528405666351318,-0.06402847915887833,-0.11485268175601959
1761430162121354500,1.6523544921875,0.11530225723981857,-0.06665882468223572,-0.11350676417350769
1761430162141298400,1.67229833984375,0.07316230237483978,-0.0912807434797287,-0.1145046278834343
1761430162161242400,1.692242431640625,0.03802120313048363,0.01683405414223671,-0.1295711249113083
1761430162181186600,1.7121865234375,0.019452819600701332,0.11077895015478134,-0.14034859836101532
1761430162201130500,1.732130615234375,0.015988364815711975,0.2019304633140564,-0.10490001738071442
1761430162221074700,1.75207470703125,0.0014037237269803882,0.27742135524749756,-0.07815387099981308
1761430162241018600,1.7720185546875,-0.018420394510030746,0.34659716486930847,-0.11050689965486526
1761430162260962600,1.791962646484375,-0.030775807797908783,0.2851477563381195,-0.10862569510936737
1761430162280906500,1.811906494140625,-0.023200007155537605,0.08841142058372498,-0.02441633865237236
1761430162300849400,1.831849365234375,0.024650977924466133,-0.07511693239212036,0.09244741499423981
1761430162320793300,1.85179345703125,0.08315348625183105,-0.09329830855131149,0.14708538353443146
1761430162340737500,1.871737548828125,0.12834827601909637,-0.04874004051089287,0.11466576904058456
1761430162360681500,1.891681396484375,0.1400475651025772,-0.0845397561788559,0.05147942900657654
1761430162380625400,1.91162548828125,0.11237511783838272,-0.1047159805893898,0.02753242664039135
1761430162400569300,1.9315693359375,0.08223528414964676,-0.0412382110953331,0.017563294619321823
1761430162420513300,1.95151318359375,0.05907054990530014,-0.026742935180664062,-0.022334156557917595
1761430162440457500,1.97145751953125,0.01747133396565914,-0.008543014526367188,-0.08689821511507034
1761430162460401400,1.9914013671875,-0.04623690992593765,-0.024462712928652763,-0.1441926509141922
1761430162480345600,2.011345703125,-0.09498605132102966,-0.11382339894771576,-0.20759736001491547
1761430162500289500,2.03128955078125,-0.11373765021562576,-0.0386434905230999,-0.21355582773685455
1761430162520233500,2.0512333984375,-0.08891399949789047,0.10181883722543716,-0.17104853689670563
1761430162540176400,2.07117626953125,-0.06484802812337875,0.10599983483552933,-0.14096978306770325
1761430162560120600,2.09112060546875,-0.03790532797574997,-0.014003755524754524,-0.13302387297153473
1761430162580064500,2.111064453125,-0.008945719338953495,-0.03155575320124626,-0.11202333867549896
1761430162600008400,2.131008544921875,0.027498695999383926,0.0732501670718193,-0.10351650416851044
1761430162619952400,2.150952392578125,0.05106634274125099,0.1151462197303772,-0.09420902281999588
1761430162639896300,2.170896240234375,0.06839811056852341,0.04911785572767258,-0.07600672543048859
1761430162659840500,2.190840576171875,0.07808895409107208,-0.037595365196466446,-0.05041969195008278
1761430162679784400,2.210784423828125,0.08825138211250305,-0.014461502432823181,-0.05636763945221901
1761430162699728400,2.230728271484375,0.0989551991224289,0.0734226182103157,-0.08955778926610947
1761430162719672300,2.25067236328125,0.08229923993349075,0.12850767374038696,-0.11829561740159988
1761430162739616500,2.270616455078125,0.07087302953004837,0.1416965276002884,-0.1315295249223709
1761430162759560700,2.290560791015625,0.07138306647539139,0.09313519299030304,-0.15459273755550385
1761430162779504600,2.310504638671875,0.10112643986940384,0.023220119997859,-0.15664079785346985
1761430162799447600,2.330447509765625,0.13089019060134888,-0.08075714111328125,-0.11081977188587189
1761430162819391500,2.3503916015625,0.14930544793605804,-0.09888789802789688,-0.031025506556034088
1761430162839335400,2.37033544921875,0.12859788537025452,-0.12181279808282852,0.03077019564807415
1761430162859279400,2.390279296875,0.10071389377117157,-0.1120857447385788,0.027673719450831413
1761430162879223600,2.4102236328125,0.07245396077632904,-0.03647393360733986,-0.02651134878396988
1761430162899167500,2.43016748046875,0.022560570389032364,0.04049452021718025,-0.08294285088777542
1761430162919111400,2.450111328125,-0.024713627994060516,0.012402284890413284,-0.07608736306428909
1761430162939055400,2.470055419921875,-0.06458113342523575,-0.05520150437951088,-0.024358199909329414
1761430162958999300,2.489999267578125,-0.0713084489107132,-0.05704164877533913,0.015868110582232475
1761430162978943500,2.509943603515625,-0.05960380658507347,0.00627369899302721,0.020555049180984497
1761430162998887400,2.529887451171875,-0.04060187190771103,0.07088334113359451,0.01947399042546749
1761430163018831600,2.54983154296875,-0.05773143470287323,-0.02335486188530922,0.03534431755542755
1761430163038774500,2.5697744140625,-0.11111558973789215,-0.04032111167907715,0.08051515370607376
1761430163058718500,2.589718505859375,-0.1440506875514984,-0.007086484227329493,0.10269206017255783
1761430163078662400,2.609662353515625,-0.15741422772407532,-0.000999346375465393,0.05550035089254379
1761430163098606600,2.629606689453125,-0.16499726474285126,-0.06102297455072403,0.018476860597729683
1761430163118550500,2.649550537109375,-0.1554775834083557,-0.08724208921194077,0.016823796555399895
1761430163138494500,2.669494384765625,-0.12184407562017441,-0.05753622204065323,0.06158987060189247
1761430163158438700,2.689438720703125,-0.10786959528923035,-0.031100813299417496,0.08594222366809845
1761430163178382600,2.709382568359375,-0.08649498224258423,0.027089595794677734,0.030511071905493736
1761430163198326500,2.729326416015625,-0.06619609147310257,0.04801327735185623,-0.03708190098404884
1761430163218270500,2.7492705078125,-0.055532220751047134,0.03396297246217728,-0.07425898313522339
1761430163238214400,2.76921435546875,-0.055336933583021164,0.017751585692167282,-0.08531201630830765
1761430163258158600,2.78915869140625,-0.07470303028821945,0.005410688929259777,-0.08769208937883377
1761430163278101800,2.809101806640625,-0.11262892931699753,0.012246394529938698,-0.09367254376411438
1761430163298045700,2.829045654296875,-0.16070696711540222,0.013540424406528473,-0.10807065665721893
1761430163317989600,2.84898974609375,-0.1795887053012848,0.060490965843200684,-0.1162157878279686
1761430163337933600,2.86893359375,-0.17132866382598877,0.08947572112083435,-0.09725479781627655
1761430163357877500,2.88887744140625,-0.1816268414258957,0.029932230710983276,-0.08451023697853088
1761430163377821700,2.90882177734375,-0.18311172723770142,-0.08063653111457825,-0.04049931466579437
1761430163397765600,2.928765625,-0.15436246991157532,-0.11455493420362473,0.000023099826648831367
1761430163417709600,2.94870947265625,-0.096343994140625,-0.14562425017356873,0.02415572479367256
1761430163437653500,2.968653564453125,-0.05505222827196121,-0.19768108427524567,0.033955708146095276
1761430163457597400,2.988597412109375,-0.04891401156783104,-0.19204561412334442,0.0303459744900465
1761430163477541600,3.008541748046875,-0.052314642816782,-0.07725465297698975,0.016184862703084946
1761430163497484800,3.02848486328125,-0.08345019072294235,-0.0068297553807497025,-0.00358777679502964
1761430163517428700,3.0484287109375,-0.13481639325618744,0.01827855221927166,-0.03405057266354561
1761430163537372700,3.06837255859375,-0.1864319145679474,0.06358269602060318,-0.08766800910234451
1761430163557316600,3.088316650390625,-0.21044623851776123,0.08392593264579773,-0.13948339223861694
1761430163577260500,3.108260498046875,-0.18335068225860596,0.09813264012336731,-0.13987699151039124
1761430163597204700,3.128204833984375,-0.15389612317085266,0.06557922065258026,-0.10745620727539062
1761430163617148700,3.148148681640625,-0.13066372275352478,0.031354185193777084,-0.06697311997413635
1761430163637092600,3.168092529296875,-0.12032000720500946,0.0026045176200568676,-0.06987914443016052
1761430163657036500,3.18803662109375,-0.11818140000104904,0.03462278097867966,-0.127668097615242
1761430163676980500,3.20798046875,-0.1314687579870224,0.08961459249258041,-0.22363966703414917
1761430163696924700,3.227924560546875,-0.13079515099525452,0.14938105642795563,-0.27049463987350464
1761430163716867600,3.24786767578125,-0.14189554750919342,0.09118907153606415,-0.21768410503864288
1761430163736811500,3.2678115234375,-0.13431419432163239,0.0705081969499588,-0.11240341514348984
1761430163756755700,3.287755615234375,-0.0953226312994957,0.04764861613512039,-0.05699316784739494
1761430163776699600,3.30769970703125,-0.04437790438532829,0.06510113924741745,-0.04392899200320244
1761430163796643600,3.3276435546875,-0.031997811049222946,0.027647914364933968,-0.030999980866909027
1761430163816587800,3.347587890625,-0.019871920347213745,-0.03052992932498455,0.009595198556780815
1761430163836531700,3.36753173828125,-0.005966793745756149,-0.060761068016290665,0.036834683269262314
1761430163856475600,3.3874755859375,-0.006354377139359713,-0.057991478592157364,0.03052799217402935
1761430163876419600,3.407419677734375,-0.026635363698005676,-0.00597672164440155,0.016291840001940727
1761430163896363500,3.427363525390625,-0.04700171574950218,0.009196542203426361,0.05357683077454567
1761430163916307700,3.4473076171875,-0.046158988028764725,0.029973089694976807,0.09899459779262543
1761430163936250600,3.467250732421875,-0.06027091667056084,0.0343538299202919,0.07837512344121933
1761430163956194600,3.487194580078125,-0.04879360646009445,0.05787612125277519,0.044882405549287796
1761430163976138500,3.507138427734375,-0.01266162097454071,-0.0026310912799090147,0.020193452015519142
1761430163996082400,3.52708251953125,0.03039511665701866,-0.07499976456165314,0.032370634377002716
1761430164016026600,3.547026611328125,0.07848052680492401,-0.11984535306692123,0.0902961865067482
1761430164035970600,3.566970458984375,0.10285645723342896,-0.1804564893245697,0.1163593977689743
1761430164055914800,3.586914794921875,0.05750128626823425,-0.1615314781665802,0.10133540630340576
1761430164075858700,3.606858642578125,0.017845861613750458,-0.12113146483898163,0.06732814013957977
1761430164095802600,3.626802734375,-0.005138061940670013,-0.10976996272802353,0.02335800603032112
1761430164115746600,3.64674658203125,-0.04288257285952568,-0.10149050503969193,-0.043917130678892136
1761430164135690800,3.666690673828125,-0.08295135200023651,-0.004709033295512199,-0.09537485241889954
1761430164155634000,3.686634033203125,-0.10155406594276428,0.09011441469192505,-0.10959533601999283
1761430164175577900,3.706577880859375,-0.09137925505638123,0.1455398052930832,-0.06923109292984009
1761430164195521800,3.726521728515625,-0.08071259409189224,0.11166856437921524,-0.028312217444181442
1761430164215465700,3.7464658203125,-0.0726839080452919,0.0803607776761055,0.01609814167022705
1761430164235409700,3.76640966796875,-0.005475124344229698,0.06411538273096085,0.0701679214835167
1761430164255353900,3.786353759765625,0.07012093812227249,-0.0006366008892655373,0.12152429670095444
1761430164275297800,3.8062978515625,0.10735701024532318,-0.13101962208747864,0.14887595176696777
1761430164295241700,3.82624169921875,0.13626614212989807,-0.2436700165271759,0.14997883141040802
1761430164315185700,3.846185546875,0.1593358814716339,-0.18436209857463837,0.1398462951183319
1761430164335129900,3.8661298828125,0.1345931440591812,-0.0760357454419136,0.10601404309272766
1761430164355072800,3.88607275390625,0.08182065933942795,-0.027145778760313988,0.0831538587808609
1761430164375017000,3.906016845703125,0.04132832959294319,0.03337854892015457,0.0720725804567337
1761430164394961000,3.9259609375,0.024751249700784683,0.08699118345975876,0.04191241040825844
1761430164414904800,3.94590478515625,0.03675944358110428,0.14974644780158997,0.005376770626753569
1761430164434848800,3.965848876953125,0.029193513095378876,0.10074013471603394,-0.05054856836795807
1761430164454792700,3.985792724609375,0.028552034869790077,0.07520902156829834,-0.040605511516332626
1761430164474737000,4.00573681640625,0.029558632522821426,0.048691049218177795,0.011787776835262775
1761430164494680800,4.025680908203125,0.045597806572914124,0.06759653985500336,0.03924890235066414
1761430164514624800,4.045624755859375,0.08625710010528564,0.08724323660135269,0.05414840951561928
1761430164534568700,4.065568603515625,0.12960165739059448,0.05220937728881836,0.09042723476886749
1761430164554512600,4.0855126953125,0.16228719055652618,0.08821187913417816,0.11313913017511368
1761430164574455800,4.105455810546875,0.16205668449401855,0.10860570520162582,0.06854039430618286
1761430164594400000,4.12539990234375,0.11123120784759521,0.122215136885643,-0.004420343786478043
1761430164614344000,4.145343994140625,0.03967123478651047,0.18138174712657928,-0.05031869560480118
1761430164634287900,4.165287841796875,0.08112101256847382,0.23538783192634583,-0.07562313228845596
1761430164654231800,4.185231689453125,0.06720507889986038,0.09946523606777191,-0.12334232777357101
1761430164674175700,4.20517578125,0.06351131945848465,-0.03160402923822403,-0.13430653512477875
1761430164694120000,4.225119873046875,0.07479218393564224,-0.07112398743629456,-0.07536406815052032
1761430164714064000,4.24506396484375,0.10260476917028427,-0.06255969405174255,0.014474129304289818
1761430164734007800,4.2650078125,0.10071983188390732,-0.0562141127884388,0.08164545893669128
1761430164753951700,4.28495166015625,0.0519690066576004,-0.08831750601530075,0.08421731740236282
1761430164773895000,4.30489501953125,-0.009512338787317276,-0.05857890844345093,0.0574905164539814
1761430164793838800,4.3248388671875,-0.05962727963924408,0.00996324047446251,0.045871999114751816
1761430164813783000,4.344782958984375,-0.08031192421913147,0.12173599004745483,0.07559835910797119
1761430164833727000,4.36472705078125,-0.09567751735448837,0.14293184876441956,0.0812259316444397
1761430164853671000,4.3846708984375,-0.10413391888141632,0.10333964228630066,0.04499845951795578
1761430164873614800,4.40461474609375,-0.10411837697029114,0.005389743950217962,0.024370208382606506
1761430164893558800,4.424558837890625,-0.06618671119213104,0.021862193942070007,0.07853331416845322
1761430164913503000,4.4445029296875,-0.007611167151480913,0.008870837278664112,0.14548279345035553
1761430164933447000,4.464447021484375,0.03276221081614494,-0.05833548679947853,0.17715778946876526
1761430164953390800,4.484390869140625,0.023017626255750656,-0.1409473568201065,0.16413666307926178
1761430164973333800,4.504333740234375,0.0019166958518326283,-0.1498185098171234,0.1250327229499817
1761430164993277700,4.524277587890625,-0.016406526789069176,-0.14810222387313843,0.04463577643036842
1761430165013221600,4.5442216796875,-0.011978786438703537,-0.1110324040055275,-0.01916380785405636
1761430165033165800,4.564165771484375,0.0094655342400074,-0.011959855444729328,-0.02967725321650505
1761430165053109800,4.58410986328125,0.012504754588007927,0.012729758396744728,0.00938833225518465
1761430165073054000,4.604053955078125,0.016568763181567192,-0.03843000903725624,0.05106901004910469
1761430165092998000,4.623997802734375,0.02400330826640129,-0.07840906828641891,0.03886955976486206
1761430165112941800,4.64394189453125,0.04778071492910385,-0.07832394540309906,-0.05161033198237419
1761430165132886000,4.663885986328125,0.07175765931606293,-0.07209086418151855,-0.1547306925058365
1761430165152830200,4.683830322265625,0.04521864280104637,0.02217351645231247,-0.20491783320903778
1761430165172773000,4.703773193359375,0.03569266200065613,-0.052524566650390625,-0.17760328948497772
1761430165192717000,4.723717041015625,0.030621247366070747,-0.13918402791023254,-0.08517161011695862
1761430165212661000,4.743660888671875,0.044746436178684235,-0.08359716087579727,-0.006935616955161095
1761430165232605200,4.763605224609375,0.05546257272362709,-0.04478972777724266,0.025091269984841347
1761430165252549000,4.783549072265625,0.07029745727777481,0.015794742852449417,0.05255194380879402
1761430165272493000,4.8034931640625,0.05722837895154953,0.04204726219177246,0.06317199021577835
1761430165292437000,4.82343701171875,0.03846975415945053,0.06153939664363861,0.03845120221376419
1761430165312381000,4.843380859375,0.023550214245915413,0.056583769619464874,-0.024234874173998833
1761430165332325000,4.8633251953125,0.009767020121216774,0.027395296841859818,-0.06423291563987732
1761430165352269000,4.88326904296875,-0.002984915627166629,0.003972868900746107,-0.030338188633322716
1761430165372212200,4.903212158203125,-0.01828778348863125,-0.04866751283407211,0.011798468418419361
1761430165392156200,4.92315625,-0.011356749571859837,-0.088521309196949,-0.005851875990629196
1761430165412100000,4.94310009765625,0.010995520278811455,-0.07999936491250992,-0.0488075353205204
1761430165432044000,4.9630439453125,0.05910535529255867,-0.009042532183229923,-0.056204140186309814
1761430165451988200,4.98298828125,0.02113390900194645,0.027726037427783012,-0.027351513504981995
1761430165471932200,5.00293212890625,-0.00829094834625721,0.05773385986685753,0.025461470708251
1761430165491876000,5.0228759765625,-0.01474358607083559,0.015937361866235733,0.036790065467357635
1761430165511820000,5.042820068359375,-0.029694808647036552,0.009883778169751167,0.026620352640748024
1761430165531764000,5.062763916015625,-0.02219771221280098,0.03277182579040527,-0.0004881329950876534
1761430165551708200,5.082708251953125,-0.004354358185082674,0.009572627022862434,-0.016537705436348915
1761430165571651300,5.1026513671875,0.02705267257988453,0.0013582687824964523,0.006250112783163786
1761430165591595300,5.12259521484375,0.03299572318792343,-0.05912194773554802,0.03653591871261597
1761430165611539200,5.142539306640625,0.03847212344408035,-0.08705385029315948,0.06117505580186844
1761430165631483100,5.162483154296875,0.049760572612285614,-0.10114292055368423,0.029971042647957802
1761430165651427000,5.182427001953125,0.05306514725089073,-0.08013176918029785,-0.0431181900203228
1761430165671371300,5.202371337890625,0.047233276069164276,0.012703822925686836,-0.09358949959278107
1761430165691315200,5.222315185546875,0.06267876923084259,0.09608173370361328,-0.07702198624610901
1761430165711259100,5.242259033203125,0.09692931920289993,0.12758713960647583,-0.018092982470989227
1761430165731203000,5.262203125,0.1528528779745102,0.07038464397192001,0.03307833522558212
1761430165751147000,5.28214697265625,0.18067026138305664,-0.026125770062208176,0.046111736446619034
1761430165771090000,5.30208984375,0.17681190371513367,-0.035560011863708496,0.056844405829906464
1761430165791034000,5.3220341796875,0.15054772794246674,-0.04575999081134796,0.04489438980817795
1761430165810978000,5.34197802734375,0.12120819836854935,-0.048264943063259125,0.019184019416570663
1761430165830922200,5.361922119140625,0.09313973784446716,-0.041452426463365555,0.006835628300905228
1761430165850866200,5.3818662109375,0.07245617359876633,0.0009532533586025238,0.01506966631859541
1761430165870810000,5.40181005859375,0.06459713727235794,0.015769945457577705,0.014803868718445301
1761430165890754300,5.42175439453125,0.04807784780859947,0.01428741030395031,0.006844577379524708
1761430165910698200,5.4416982421875,0.03682530298829079,-0.010453768074512482,0.018192550167441368
1761430165930642200,5.46164208984375,0.02169289067387581,-0.009157700464129448,0.030091356486082077
1761430165950585000,5.481585205078125,0.028449755162000656,0.013716336339712143,0.029987512156367302
1761430165970529000,5.501529052734375,0.0455620177090168,0.028448553755879402,0.006112968549132347
1761430165990473000,5.521472900390625,0.05057365074753761,0.06025424599647522,0.0010575512424111366
1761430166010417200,5.541417236328125,0.04525367170572281,0.015153590589761734,0.011714410036802292
1761430166030361000,5.561361083984375,0.03625660762190819,-0.0716480016708374,0.03348630666732788
1761430166050305000,5.581304931640625,0.02493259496986866,-0.07968486845493317,0.05437818914651871
1761430166070249000,5.6012490234375,0.027856087312102318,-0.010206067934632301,0.08296679705381393
1761430166090193200,5.621193115234375,0.025828199461102486,0.050796154886484146,0.0997215211391449
1761430166110137300,5.641137451171875,0.0007629189640283585,0.08877430856227875,0.07653087377548218
1761430166130080300,5.661080322265625,-0.043645229190588,0.09926214814186096,0.026456749066710472
1761430166150023200,5.681023193359375,-0.08539535850286484,0.10245818644762039,-0.029207227751612663
1761430166169967000,5.700967041015625,-0.10960320383310318,0.1240316778421402,-0.05049528926610947
1761430166189911300,5.720911376953125,-0.0882701426744461,0.12992745637893677,-0.04578321427106857
1761430166209855200,5.740855224609375,-0.045896995812654495,0.07940530776977539,-0.009311064146459103
1761430166229799200,5.760799072265625,0.005967816803604364,0.020752133801579475,0.02356051467359066
1761430166249743000,5.7807431640625,0.058691371232271194,0.0002896161749958992,0.03011457808315754
1761430166269687300,5.800687255859375,0.09689708054065704,0.002759964670985937,0.019985776394605637
1761430166289631500,5.820631591796875,0.10553892701864243,-0.022249100729823112,0.01398676447570324
1761430166309574400,5.840574462890625,0.09963387995958328,-0.10734324902296066,0.030493121594190598
1761430166329518300,5.860518310546875,0.09525786340236664,-0.14668790996074677,0.03722280636429787
1761430166349462300,5.880462158203125,0.08898727595806122,-0.08541510254144669,0.01750718429684639
1761430166369406200,5.90040625,0.08272787183523178,-0.014919307082891464,-0.004126375541090965
1761430166389350100,5.92035009765625,0.08107632398605347,0.021728884428739548,0.018974756821990013
1761430166409294300,5.94029443359375,0.05809518322348595,-0.00667232321575284,0.05320797115564346
1761430166429238300,5.96023828125,0.031044846400618553,0.003757607191801071,0.07727187871932983
1761430166449182200,5.98018212890625,0.016150036826729774,0.04919590428471565,0.07627781480550766
1761430166469126100,6.000126220703125,0.012802334502339363,0.07478397339582443,0.06019260734319687
1761430166489070000,6.020070068359375,0.021898578852415085,0.07030823081731796,0.061318546533584595
1761430166509013200,6.04001318359375,0.030876128003001213,0.015465803444385529,0.07691437751054764
1761430166528957400,6.05995751953125,0.01571357622742653,-0.0372137725353241,0.08274486660957336
1761430166548901400,6.0799013671875,-0.016217239201068878,-0.004298767074942589,0.05308309569954872
1761430166568845300,6.09984521484375,-0.0371769443154335,0.008235836401581764,-0.0020574494265019894
1761430166588789200,6.119789306640625,-0.03906731680035591,0.018217049539089203,-0.03690993785858154
1761430166608733200,6.139733154296875,-0.03285320848226547,0.011841586790978909,-0.024227939546108246
1761430166628677400,6.159677490234375,-0.007561073172837496,0.028093622997403145,0.01598319038748741
1761430166648621300,6.179621337890625,0.022861359640955925,-0.008958064019680023,0.0426999032497406
1761430166668565200,6.199565185546875,0.03463444486260414,-0.04864708334207535,0.040160588920116425
1761430166688508200,6.219508056640625,0.03210320323705673,-0.026180827990174294,0.018353356048464775
1761430166708452400,6.239452392578125,0.0034583043307065964,0.012244909070432186,-0.010545971803367138
1761430166728396300,6.259396240234375,-0.012853742577135563,0.030299123376607895,-0.025883009657263756
1761430166748340500,6.279340576171875,-0.007642863318324089,0.04818553104996681,-0.012467722408473492
1761430166768284400,6.299284423828125,0.0035178810358047485,0.031060602515935898,0.005563077516853809
1761430166788228400,6.319228271484375,0.017296355217695236,-0.04004918783903122,0.015507467091083527
1761430166808172300,6.33917236328125,0.01397857628762722,-0.1262785941362381,0.019652722403407097
1761430166828116200,6.3591162109375,-0.0010062346700578928,-0.1138501986861229,-0.0017979361582547426
1761430166848059100,6.37905908203125,-0.01055031456053257,-0.03714009374380112,-0.03275609761476517
1761430166868003300,6.39900341796875,-0.020424218848347664,-0.007499064318835735,-0.058488789945840836
1761430166887947300,6.418947265625,-0.02312774956226349,0.0462995320558548,-0.06255756318569183
1761430166907891200,6.43889111328125,-0.016775328665971756,0.03453609719872475,-0.05020523443818092
1761430166927835100,6.458835205078125,0.004849100951105356,-0.0040687210857868195,-0.017519133165478706
1761430166947779000,6.478779052734375,0.03176817670464516,-0.014595811255276203,0.01760740391910076
1761430166967723300,6.49872314453125,0.04665576294064522,-0.009853276424109936,0.01588336005806923
1761430166987667200,6.518667236328125,0.03502287343144417,0.019505461677908897,0.006960401311516762
1761430167007611400,6.538611328125,0.023471960797905922,0.014125366695225239,-0.0052926205098629
1761430167027555300,6.558555419921875,0.024935804307460785,-0.03121291473507881,-0.004107574466615915
1761430167047498200,6.578498291015625,0.02996664308011532,-0.03494652360677719,0.016096388921141624
1761430167067442200,6.598442138671875,0.023208854719996452,-0.025026805698871613,0.019074153155088425
1761430167087386400,6.618386474609375,0.006155381444841623,0.03274921327829361,-0.00002109899651259184
1761430167107330300,6.638330322265625,0.010119217447936535,0.06583261489868164,-0.015374976210296154
1761430167127274200,6.658274169921875,0.019204197451472282,0.02252068743109703,-0.004258830100297928
1761430167147221200,6.67822119140625,0.020552869886159897,-0.0367862842977047,0.015449410304427147
1761430167167165200,6.698165283203125,0.012252266518771648,-0.050138361752033234,0.011893859133124352
1761430167187109400,6.718109375,-0.005840153433382511,-0.026490015909075737,-0.028603633865714073
1761430167207052500,6.738052490234375,-0.015300359576940536,-0.015957314521074295,-0.05875454097986221
1761430167226996500,6.75799658203125,-0.05438590049743652,0.015768464654684067,-0.07240602374076843
1761430167246940400,6.7779404296875,-0.0746292695403099,0.05508562922477722,-0.026496078819036484
1761430167266884400,6.79788427734375,-0.03419382870197296,0.06374342739582062,0.05984371155500412
1761430167286828300,6.817828369140625,0.02298765815794468,0.08977846056222916,0.06574682891368866
1761430167306772500,6.8377724609375,0.01975872926414013,0.06708074361085892,0.03474419191479683
1761430167326716400,6.85771630859375,0.017196644097566605,0.03394902125000954,0.010645090602338314
1761430167346660400,6.877660400390625,-0.01709206961095333,-0.06102989241480827,-0.006467973347753286
1761430167366604300,6.897604248046875,-0.01957518793642521,-0.05089924484491348,0.024450749158859253
1761430167386547200,6.917547119140625,-0.009343824349343777,-0.03506248816847801,0.038693733513355255
1761430167406491400,6.937491455078125,-0.0017061915714293718,-0.02464982122182846,0.032304760068655014
1761430167426435600,6.957435546875,-0.0013486857060343027,-0.032146502286195755,0.022785266861319542
1761430167446379500,6.977379638671875,-0.019873743876814842,-0.04107993096113205,-0.011379601433873177
1761430167466323500,6.997323486328125,-0.035743240267038345,-0.029810739681124687,-0.04127660021185875
1761430167486267400,7.017267333984375,-0.03448619320988655,-0.01936897076666355,-0.026012860238552094
1761430167506211300,7.03721142578125,-0.020676089450716972,0.002743010874837637,0.03457370027899742
1761430167526155500,7.057155517578125,-0.010522694326937199,0.03153613954782486,0.07420319318771362
1761430167546098400,7.077098388671875,-0.007813677191734314,0.0626685619354248,0.056848980486392975
1761430167566042400,7.09704248046875,-0.01132085919380188,0.08321528881788254,-0.009659393690526485
1761430167585986300,7.116986328125,-0.016785133630037308,0.07745247334241867,-0.044765982776880264
1761430167605930200,7.13693017578125,0.006911202799528837,0.05802157148718834,-0.022162171080708504
1761430167625874200,7.156874267578125,0.04162824526429176,0.057338278740644455,0.02985643409192562
1761430167645818400,7.176818359375,0.05932335928082466,0.048641763627529144,0.056913841515779495
1761430167665762300,7.19676220703125,0.04424837976694107,0.06008997559547424,0.035234663635492325
1761430167685706500,7.21670654296875,0.037488456815481186,0.04244784265756607,-0.023969454690814018
1761430167705650400,7.236650390625,0.05211194232106209,0.03501584753394127,-0.03878496214747429
1761430167725593300,7.25659326171875,0.03431975096464157,-0.04534733295440674,-0.032784126698970795
1761430167745537300,7.276537353515625,0.02118842676281929,-0.04300275817513466,-0.03180769458413124
1761430167765481500,7.2964814453125,0.011826693080365658,-0.015038162469863892,-0.04456036165356636
1761430167785425400,7.31642529296875,0.03255641087889671,0.008263114839792252,-0.06254065781831741
1761430167805369300,7.336369384765625,0.0684242770075798,0.02923940122127533,-0.0542118214070797
1761430167825313300,7.356313232421875,0.09034634381532669,0.025322917848825455,-0.029543982818722725
1761430167845257200,7.37625732421875,0.08384972810745239,0.0031565488316118717,0.0065852440893650055
1761430167865201400,7.396201416015625,0.08422549813985825,0.028110859915614128,0.021310966461896896
1761430167885144600,7.41614453125,0.0776427760720253,0.030112072825431824,0.006590982899069786
1761430167905088500,7.436088623046875,0.061730023473501205,0.027308467775583267,-0.004888632800430059
1761430167925032400,7.456032470703125,0.03976477310061455,0.016221683472394943,0.03693648427724838
1761430167944976400,7.475976318359375,0.037112247198820114,0.003890691790729761,0.06611815840005875
1761430167964920300,7.49592041015625,0.04143158346414566,0.005077900364995003,0.05468488857150078
1761430167984864500,7.515864501953125,0.02289065346121788,-0.010521072894334793,0.029412059113383293
1761430168004808400,7.535808349609375,0.0018841419368982315,-0.0064682792872190475,0.015989862382411957
1761430168024752400,7.55575244140625,-0.009579012170433998,-0.0025908357929438353,0.04964664950966835
1761430168044696300,7.5756962890625,-0.02035731077194214,-0.05129709467291832,0.05125071853399277
1761430168064639200,7.59563916015625,-0.04884975031018257,-0.07969175279140472,0.009253284893929958
1761430168084583200,7.615583251953125,-0.06127336621284485,-0.04072090983390808,-0.02629498578608036
1761430168104527400,7.63552734375,-0.037519849836826324,0.027806194499135017,-0.04045732691884041
1761430168124471600,7.655471435546875,-0.016639867797493935,0.022489195689558983,-0.03600851446390152
1761430168144412200,7.675412109375,0.00423597963526845,0.03301335126161575,-0.04862162098288536
1761430168164356400,7.6953564453125,0.019749483093619347,0.05316932126879692,-0.06427865475416183
1761430168184300500,7.715300537109375,0.015629881992936134,0.023838361725211143,-0.0643952414393425
1761430168204244500,7.735244384765625,0.0038248333148658276,-0.06446763873100281,-0.049005601555109024
1761430168224187400,7.7551875,0.0006376162637025118,-0.08132454007863998,-0.01783066987991333
1761430168244131300,7.77513134765625,0.007648475933820009,-0.036357007920742035,-0.04009032994508743
1761430168264075300,7.7950751953125,0.00015562749467790127,-0.0016275541856884956,-0.11399523168802261
1761430168284019500,7.81501953125,0.006641957443207502,0.025502244010567665,-0.16877825558185577
1761430168303963400,7.83496337890625,0.006819135509431362,0.043850965797901154,-0.17153926193714142
1761430168323907300,7.8549072265625,-0.014703450724482536,-0.05065447837114334,-0.14211195707321167
1761430168343851300,7.874851318359375,-0.011372729204595089,-0.12064671516418457,-0.06520950794219971
1761430168363795200,7.894795166015625,0.00364571250975132,-0.10720352828502655,-0.006918625440448523
1761430168383738400,7.91473828125,0.02599533647298813,-0.02519829012453556,0.011032653041183949
1761430168403682600,7.9346826171875,0.022866027429699898,0.022982191294431686,-0.018412914127111435
1761430168423626500,7.95462646484375,0.01042107678949833,0.006215994246304035,-0.03926333412528038
1761430168443570400,7.9745703125,0.0017048330046236515,-0.03556205704808235,-0.012496519833803177
1761430168463514400,7.994514404296875,0.006752699613571167,-0.03301728516817093,0.03803480416536331
1761430168483458300,8.014458251953124,0.014041316695511341,-0.006181870587170124,0.018374163657426834
1761430168503402500,8.034402587890625,0.022249555215239525,0.05422193557024002,-0.004242490045726299
1761430168523346400,8.054346435546876,0.048221904784440994,0.10598725080490112,0.006909075193107128
1761430168543289300,8.074289306640624,0.0056853205896914005,0.07601921260356903,0.05651918798685074
1761430168563233300,8.0942333984375,0.025735367089509964,0.05366133898496628,0.0695853978395462
1761430168583177200,8.11417724609375,0.025595376268029213,0.051915429532527924,-0.010838508605957031
1761430168603121400,8.134121337890624,0.07603613287210464,0.1569502055644989,-0.12849195301532745
1761430168623065300,8.1540654296875,0.15579259395599365,0.11809401214122772,-0.18641972541809082
1761430168643009500,8.174009521484376,0.15659479796886444,0.06276502460241318,-0.12382642179727554
1761430168662953500,8.193953369140624,0.08378525823354721,-0.001493087038397789,-0.054038602858781815
1761430168682897400,8.2138974609375,0.04800624027848244,-0.0015897369012236595,-0.025720763951539993
1761430168702840300,8.23384033203125,0.05147063359618187,0.01372864656150341,-0.045043569058179855
1761430168722784300,8.2537841796875,0.06456391513347626,0.04398973286151886,-0.04100731015205383
1761430168742728400,8.273728515625,0.06534701585769653,0.015639176592230797,-0.0014762993669137359
1761430168762672400,8.29367236328125,0.04969029501080513,-0.04360976815223694,0.029599593952298164
1761430168782616300,8.3136162109375,0.01644396036863327,-0.08514358103275299,-0.008966878056526184
1761430168802560300,8.333560302734375,-0.0027744933031499386,-0.02894105203449726,-0.05536438524723053
1761430168822504200,8.353504150390625,0.005589963402599096,0.04526766389608383,-0.04617541283369064
1761430168842448400,8.373448486328124,-0.002200834918767214,0.03762437403202057,0.011808213777840137
1761430168862391600,8.3933916015625,-0.0025954509619623423,-0.07665550708770752,0.03115920163691044
1761430168882335500,8.41333544921875,0.0032786973752081394,-0.09460335969924927,0.027338050305843353
1761430168902279400,8.433279541015626,0.02880960889160633,-0.06754429638385773,0.05123118311166763
1761430168922223400,8.453223388671875,0.052325181663036346,-0.03208523243665695,0.08218259364366531
1761430168942167300,8.473167236328125,0.03270784020423889,0.04632466658949852,0.09302814304828644
1761430168962111500,8.493111572265626,-0.00014261796604841948,0.09442361444234848,0.07224215567111969
1761430168982055400,8.513055419921875,-0.00362363550812006,0.1076776385307312,0.03245373070240021
1761430169001999400,8.532999267578125,0.013000553473830223,0.0829397514462471,0.012714680284261703
1761430169021942300,8.5529423828125,0.02351248823106289,-0.010679246857762337,0.006249530706554651
1761430169041886200,8.57288623046875,0.017032768577337265,-0.05490953475236893,0.01619262434542179
1761430169061830400,8.592830322265625,0.009986637160182,-0.06920213997364044,0.05125017464160919
1761430169081774600,8.612774658203126,0.017833735793828964,-0.07099089026451111,0.09324322640895844
1761430169101718500,8.632718505859375,0.03621121123433113,-0.06886932253837585,0.11048045754432678
1761430169121662500,8.652662353515625,0.04070496931672096,-0.0032094053458422422,0.10188353806734085
1761430169141606400,8.6726064453125,0.02444205805659294,0.035768553614616394,0.055257976055145264
1761430169161549800,8.6925498046875,0.006623629946261644,0.04043731838464737,0.028151076287031174
1761430169181493800,8.71249365234375,-0.00714500667527318,-0.013875284232199192,0.020061930641531944
1761430169201438000,8.73243798828125,-0.016899771988391876,-0.054913923144340515,0.028145045042037964
1761430169221382000,8.7523818359375,-0.0021916378755122423,-0.007221228443086147,0.011426122859120369
1761430169241325800,8.772325927734375,0.0007644430734217167,0.010133521631360054,-0.021138347685337067
1761430169261269800,8.792269775390626,0.01284308172762394,0.026435652747750282,0.004828382283449173
1761430169281213700,8.812213623046874,0.027288300916552544,-0.019983820617198944,0.055937279015779495
1761430169301158000,8.832157958984375,0.026818182319402695,-0.0718020424246788,0.09172145277261734
1761430169321101000,8.85210107421875,0.019851816818118095,-0.0548015832901001,0.07801291346549988
1761430169341045000,8.872044921875,0.0220123790204525,0.006854540202766657,0.04873654618859291
1761430169360989000,8.891989013671875,0.03637397289276123,0.04108197242021561,0.04849250614643097
1761430169380932900,8.911932861328125,0.051801588386297226,0.009812395088374615,0.07653731107711792
1761430169400876800,8.931876708984374,0.06750191003084183,-0.026735836640000343,0.08725558966398239
1761430169420821000,8.951821044921875,0.05052649974822998,-0.009064579382538795,0.06509566307067871
1761430169440765000,8.971764892578125,0.04705430567264557,0.045311089605093,0.05552755296230316
1761430169460708900,8.991708984375,0.05912960320711136,0.008881671354174614,0.0598943829536438
1761430169480651800,9.01165185546875,0.06621319055557251,-0.024270836263895035,0.06002778187394142
1761430169500595700,9.031595703125,0.053750209510326385,-0.024738414213061333,0.056500304490327835
1761430169520539600,9.05153955078125,0.03337075933814049,0.0051264152862131596,0.05576276406645775
1761430169540483800,9.07148388671875,0.01823742501437664,0.024703120812773705,0.03431195020675659
1761430169560428000,9.091427978515625,0.009784253314137459,0.014902109280228615,-0.005047537852078676
1761430169580372000,9.1113720703125,0.010767241939902306,-0.01570397987961769,-0.03804605454206467
1761430169600316000,9.13131591796875,-0.00869455561041832,-0.07999927550554276,-0.04560649394989014
1761430169620258800,9.1512587890625,-0.006279745604842901,-0.1507636308670044,-0.0010140602244064212
1761430169640202800,9.17120263671875,0.001417150255292654,-0.1735420823097229,0.029952172189950943
1761430169660147000,9.19114697265625,0.005506385583430529,-0.08678248524665833,0.013261064887046814
1761430169680091000,9.2110908203125,0.014615810476243496,0.010599041357636452,-0.03921268880367279
1761430169700034800,9.231034912109376,0.0316314660012722,0.015172146260738373,-0.07000936567783356
1761430169719978800,9.250978759765625,0.04116538166999817,-0.020047573372721672,-0.06704423576593399
1761430169739922700,9.270922607421875,0.04117460548877716,-0.09656241536140442,-0.05922685191035271
1761430169759867000,9.290866943359376,0.03729184716939926,-0.14992137253284454,-0.059856802225112915
1761430169779810000,9.31081005859375,0.024416930973529816,-0.13517506420612335,-0.05691096931695938
1761430169799754000,9.33075390625,0.016416391357779503,-0.12545038759708405,-0.06350480020046234
1761430169819698000,9.350697998046876,0.006640940438956022,-0.0795239731669426,-0.06878771632909775
1761430169839641900,9.370641845703124,-0.007959256879985332,-0.04689938202500343,-0.06571868807077408
1761430169859585800,9.390585693359375,-0.0415034182369709,-0.021865736693143845,-0.04670478776097298
1761430169879530000,9.410530029296876,-0.0756097137928009,-0.03172259032726288,-0.028172431513667107
1761430169899474000,9.430473876953124,-0.09101991355419159,-0.026014482602477074,-0.027550147846341133
1761430169919416800,9.450416748046875,-0.08717753738164902,-0.007059174589812756,-0.0394466295838356
1761430169939360800,9.47036083984375,-0.08801431208848953,0.03052384778857231,-0.04993278160691261
1761430169959304700,9.4903046875,-0.09372636675834656,0.04057662934064865,-0.03144535794854164
1761430169979248600,9.51024853515625,-0.07536140084266663,0.04129098355770111,0.013704732060432434
1761430169999192800,9.53019287109375,-0.05174674466252327,0.01809447631239891,0.02785949781537056
1761430170019137000,9.550136962890624,-0.03572225198149681,-0.0052617331966757774,-0.005905567202717066
1761430170039081000,9.5700810546875,-0.04756968840956688,-0.026198269799351692,-0.07760085165500641
1761430170059025000,9.59002490234375,-0.05407950282096863,0.03277905285358429,-0.11229846626520157
1761430170078967800,9.6099677734375,-0.0450340136885643,0.06155109405517578,-0.07764198631048203
1761430170098911700,9.629911865234375,-0.009691188111901283,0.01683264970779419,-0.008582576178014278
1761430170118856000,9.64985595703125,0.021038761362433434,-0.09011270850896835,0.0427493192255497
1761430170138799900,9.6697998046875,0.014711589552462101,-0.11875558644533157,0.05637023225426674
1761430170158743600,9.68974365234375,-0.0011666582431644201,-0.07348231226205826,0.006690298672765493
1761430170178687700,9.709687744140625,-0.03587209805846214,-0.033561453223228455,-0.08405517041683197
1761430170198631700,9.729631591796876,-0.06408269703388214,-0.030035147443413734,-0.15182353556156158
1761430170218574800,9.749574951171875,-0.08780121803283691,-0.005941971205174923,-0.154026597738266
1761430170238518800,9.769518798828125,-0.09906220436096191,-0.015788018703460693,-0.11243296414613724
1761430170258462700,9.789462646484376,-0.10560961812734604,-0.06699501723051071,-0.06420565396547318
1761430170278406700,9.80940673828125,-0.11131395399570465,-0.023672698065638542,-0.038324225693941116
1761430170298350800,9.829350830078125,-0.13071824610233307,0.04560704529285431,-0.03203662857413292
1761430170318294800,9.849294677734376,-0.14829571545124054,0.09749231487512589,-0.04228813201189041
1761430170338238700,9.86923876953125,-0.16238605976104736,0.15765966475009918,-0.05250251665711403
1761430170358181600,9.889181640625,-0.16357946395874023,0.1859317570924759,-0.08099733293056488
1761430170378125600,9.90912548828125,-0.14944301545619965,0.1524202525615692,-0.13586007058620453
1761430170398069500,9.929069580078124,-0.13566182553768158,0.10546378791332245,-0.12764890491962433
1761430170418013700,9.949013671875,-0.12618795037269592,0.0038191573694348335,0.000022188527509570122
1761430170437958000,9.9689580078125,-0.08508188277482986,-0.05956447869539261,0.20866966247558594
1761430170457901800,9.98890185546875,-0.012772155925631523,-0.12242614477872849,0.2861734926700592
1761430170477845800,10.008845703125,0.03245430812239647,-0.11699874699115753,0.17020735144615173
1761430170497788700,10.02878857421875,0.04654817655682564,-0.03858102485537529,0.006942553445696831
1761430170517732600,10.048732666015624,0.06130528450012207,-0.0038589942269027233,0.0033592707477509975
