time,seconds_elapsed,z,y,x
1761507794808797000,0.075796875,0.9547954640150069,0.48181934784203767,-0.3954338806785643
1761507794828953000,0.095953125,1.0092325721234083,0.5425757220998406,-0.4417637067096308
1761507794849108000,0.11610791015625,1.3258371001064777,0.3669074588961899,-0.5079325344702229
1761507794869264000,0.136263916015625,1.1677058087676764,0.24264833428189156,-0.25668193766828623
1761507794889419000,0.1564189453125,0.8733902694821357,0.16086816895678638,-0.33541217737086115
1761507794909575000,0.176574951171875,0.6612018092632294,0.27973157200738785,0.29517215611487624
1761507794929730000,0.19672998046875,-0.09663725045621395,0.10488894597291946,0.17593612035959957
1761507794949886200,0.21688623046875,-0.5378069002628326,0.0014879004701972007,0.009589519991725682
1761507794970041000,0.237041015625,-0.7521288653790951,-0.6023654432825744,0.10217221609381959
1761507794990197000,0.257197021484375,-1.0448112505048512,-1.5717549575783312,0.08117093825242482
1761507795010351900,0.277351806640625,-0.8244166874766349,-1.8365017264217138,-0.02118718776835594
1761507795030508000,0.297508056640625,-0.9650871409267187,-1.5584955169022083,0.07626392265427857
1761507795050663000,0.317662841796875,-0.9188146345734596,-1.7036206116735935,-0.053965102115902115
1761507795070818800,0.33781884765625,-0.6978735435783863,-1.236171588359028,-0.002525061498209834
1761507795090974200,0.35797412109375,-0.2718541166305542,-0.7615357222802936,0.018215848373947664
1761507795111130000,0.378130126953125,-0.09580138415396212,-0.30405031296685336,0.24073108421741052
1761507795131285000,0.398284912109375,-0.02854337291717529,0.058954950859025114,0.341090003811568
1761507795151441200,0.418441162109375,0.13847031305730342,0.3729746499806642,0.3297397577576339
1761507795171596000,0.438595947265625,0.07770224836170674,0.42976760050021107,0.4653105134485289
1761507795191752000,0.458751953125,0.3135200059711933,0.42458749444857236,0.6122662211805582
1761507795211906800,0.47890673828125,0.1894756931513548,0.41312348582185804,0.4140097306044772
1761507795232063000,0.49906298828125,0.3839648305505514,0.3531012710575014,0.5749334656734019
1761507795252218000,0.519218017578125,0.13198913434445858,0.3328633696708828,0.6406711354751139
1761507795272374000,0.5393740234375,0.17146540468633173,0.43433618705738336,0.4945864018913358
1761507795292529000,0.55952880859375,0.2765641940176487,-0.0006612038550898432,0.5921230488726869
1761507795312685000,0.57968505859375,0.24867431657314298,0.22121749678365885,0.6581537468042225
1761507795332840000,0.59983984375,-0.08260872510373592,0.002299509114027023,0.3847553233411163
1761507795352995800,0.619995849609375,-0.2646954770475626,0.0912969854068011,0.3608844722796231
1761507795373151000,0.64015087890625,-0.6510732139587402,-0.09973247652519494,0.1698711942974478
1761507795393307000,0.660306884765625,-0.8920984770834446,-0.3611943419463932,-0.06539017153829335
1761507795413462000,0.6804619140625,-0.6675824502110481,-0.5677825710054487,-0.027376301899179816
1761507795433618200,0.7006181640625,-0.1313391460031271,-0.3791156369537115,-0.04415251852460205
1761507795453773000,0.72077294921875,-0.1013625254124403,-0.2734343350267038,0.10725450606048106
1761507795473929000,0.740928955078125,-0.34143794046640397,-0.38456133513897656,0.1758840979114175
1761507795494083800,0.761083740234375,-0.25000819552540776,-0.13116296745231373,0.4534982759060338
1761507795514240000,0.781239990234375,-0.05737082347273826,-0.07391518583735451,0.49444085594080384
1761507795534395000,0.801394775390625,0.10524491980373858,-0.16051316324034703,0.3316448607265949
1761507795554550800,0.82155078125,-0.026263737547397612,-0.15991791902724653,0.2628620510753244
1761507795574706200,0.8417060546875,0.03563245439529419,-0.4710721091825515,-0.0026034239640459417
1761507795594862000,0.861862060546875,0.02794482250213623,-0.3866632758542895,-0.2106194390702061
1761507795615017000,0.882016845703125,-0.04828326165378093,-0.4369112982423976,-0.2615502560907043
1761507795635173000,0.902173095703125,-0.30274726754426956,-0.2450038113668561,-0.17934768236875534
1761507795655328000,0.922327880859375,-0.3391226492613554,0.05374600230539217,-0.14813045059982685
1761507795675484000,0.94248388671875,-0.44450317814350127,0.28431142887724564,-0.08322614461602643
1761507795695638800,0.962638671875,-0.3963701386153698,0.45210810018926856,0.030673315884266045
1761507795715795000,0.982794921875,-0.4220031770437956,0.47872401217520233,0.09565729950815438
1761507795735950000,1.0029501953125,-0.27959903166890143,0.3778019970718771,0.01064452720368281
1761507795756106000,1.02310595703125,-0.14092705855965615,0.3164026487354189,-0.022092187483794986
1761507795776261000,1.04326123046875,0.040109892070293425,0.2618685099933296,-0.11130840282747521
1761507795796417000,1.0634169921875,0.04994681095182895,0.04536130979247391,-0.23451566203497348
1761507795816572700,1.08357275390625,0.05094926599264145,0.029608061272930353,-0.1461249559963122
1761507795836728600,1.103728515625,0.07290040103793144,0.07824252925086767,-0.12483966444861143
1761507795856883500,1.123883544921875,0.05292787258923053,-0.030411632740776982,-0.1645057217415422
1761507795877039600,1.14403955078125,0.04795651391744613,-0.0011688793825916945,-0.15195556184593587
1761507795897194500,1.164194580078125,0.12912673065066338,0.12184899473264812,-0.03854936475530266
1761507795917350700,1.1843505859375,0.01009703112244606,0.11260368506871163,0.02364573706872761
1761507795937505800,1.204505859375,0.08052899622023105,0.15433182599060236,0.038582097981125114
1761507795957661700,1.22466162109375,0.08225918101370334,0.11383974793599917,0.034487357747089116
1761507795977816600,1.244816650390625,0.06577683276832104,0.07040080277454108,0.03043914180221036
1761507795997972700,1.26497265625,0.04953647658526897,-0.01233997861049138,0.05600415649572387
1761507796018127600,1.285127685546875,0.014434768065810203,-0.07742182398512959,0.049378381680417804
1761507796038283500,1.305283447265625,-0.00035071313381195067,-0.09347052092044614,0.07234572629723697
1761507796058438700,1.325438720703125,-0.06143325060606002,-0.07715657891137526,0.07323078376976773
1761507796078594600,1.345594482421875,-0.1487152282178402,-0.12849621419478208,0.14312845932776108
1761507796098749700,1.365749755859375,-0.18234160348773001,-0.11773385103140026,0.15388357076644896
1761507796118905600,1.385905517578125,-0.1056061543315649,-0.0676044317879714,0.19859167734719813
1761507796139060700,1.406060791015625,-0.0304600201934576,-0.13424973622020334,0.18971929264888165
1761507796159216600,1.426216552734375,-0.004970189628005027,-0.1806694324918091,0.14459138975348323
1761507796179371500,1.44637158203125,0.0037467853128910064,-0.19916290136389433,0.1550368324548006
1761507796199527700,1.466527587890625,-0.08376198679208754,-0.09724467829745262,0.15290253297300077
1761507796219682800,1.486682861328125,-0.004238368222117424,-0.09365666374284773,0.13755950922216287
1761507796239838700,1.506838623046875,-0.10236205784380435,-0.10719084797343238,0.11853783349120058
1761507796259993600,1.52699365234375,-0.09856967982351779,-0.09544206758858635,0.060074091082066294
1761507796280149800,1.547149658203125,-0.26165070252418515,-0.04965798407308757,0.12980683100246823
1761507796300304600,1.5673046875,-0.34190497345626353,0.022555695076007395,0.05713995559262111
1761507796320460500,1.58746044921875,-0.20995558660030364,0.041929545245505864,0.04208831600379199
1761507796340616700,1.60761669921875,-0.21203356191813943,0.03646110550547019,0.009169002157868818
1761507796360771600,1.627771484375,-0.19767828882932661,-0.09175468431273474,0.04533365460056811
1761507796380927500,1.647927490234375,-0.17209201215207576,-0.032736020567733795,0.05830677088228985
1761507796401083000,1.668082763671875,-0.08476736444234848,-0.011416735418885946,0.026247612963081337
1761507796421238800,1.68823876953125,0.012030045011639595,0.015895835328008978,0.05143710430851206
1761507796441393700,1.7083935546875,-0.026361352702975273,-0.07431204880098811,-0.03166598018342629
1761507796461549800,1.7285498046875,0.09492810845077038,-0.11455073661641217,0.05381912234053016
1761507796481704700,1.74870458984375,-0.00926876360476017,-0.07652020810344257,0.10021377550242468
1761507796501860600,1.768860595703125,0.15278116248250007,0.044440843079844486,0.19542579719480127
1761507796522015500,1.789015380859375,0.07083586972355842,0.11154002875941806,0.0742813705349341
1761507796542171600,1.809171630859375,0.1638981843024492,-0.04381954197688028,0.16933337936000897
1761507796562326800,1.829326904296875,-0.09804419464468955,-0.1311379608752206,0.1176785863133613
1761507796582482700,1.849482666015625,-0.02120879224538803,-0.11912837412972002,0.013593029145197942
1761507796602637600,1.869637451171875,-0.1091746604681015,-0.03312618892909959,-0.03390007764473557
1761507796622793700,1.889793701171875,-0.14303192188441752,-0.013643654220737517,0.06854763092221691
1761507796642948600,1.909948486328125,-0.1880722560942173,0.0847024642462842,0.00048715332928113636
1761507796663104500,1.9301044921875,-0.0027367314875125885,-0.03936773193348199,0.0029226094484329224
1761507796683259600,1.950259765625,-0.20385785424709318,-0.09250784076759591,0.004496772563131526
1761507796703415600,1.97041552734375,0.09885960268080234,-0.04065733335260301,-0.0036505446970695626
1761507796723570700,1.99057080078125,-0.06490589515268802,-0.09650511197652667,0.0777419227849692
1761507796743726800,2.010726806640625,0.030555881783366202,-0.0938008214538917,0.11567636137916706
1761507796763881700,2.0308818359375,-0.05634381851255894,-0.07453331773569807,0.1593101623924449
1761507796784037600,2.05103759765625,-0.017882278171181678,-0.057756059930659825,0.18504673426058144
1761507796804192500,2.071192626953125,-0.09617956981658934,-0.10556037896107881,0.16864928781967609
1761507796824349000,2.091348876953125,-0.11138941390812396,-0.09964331867070868,0.08149573149369098
1761507796844503800,2.11150390625,-0.07395955470204353,-0.10212887014243752,0.0665252399828285
1761507796864659700,2.13165966796875,0.07622516154646873,-0.10056682672379538,0.1147761520032771
1761507796884815000,2.151815185546875,-0.1738321338176727,-0.19261207321463153,0.08504970678137615
1761507796904971000,2.171970947265625,-0.09753799868822097,-0.09786069130394608,0.12941753029078246
1761507796925126000,2.1921259765625,0.04709142152070999,-0.07659034159705043,0.09369350688820705
1761507796945282000,2.212281982421875,-0.011060907718539237,-0.06947398851951583,0.19184929041489956
1761507796965437000,2.23243701171875,0.055877370044589036,-0.007865746672730892,0.1324392709984444
1761507796985592800,2.2525927734375,-0.050228550502657884,-0.1865793689216487,0.09708868401814251
1761507797005747700,2.272747802734375,-0.028463293418288228,-0.15448341808943078,0.03103310737367719
1761507797025903900,2.29290380859375,0.03588613689541816,-0.1712560362519696,-0.05591255095582455
1761507797046059000,2.31305908203125,-0.0811719702988863,-0.17531508411811664,-0.06378359485818073
1761507797066215000,2.33321484375,-0.07522679815888404,-0.24742563168630002,-0.0771054423791822
1761507797086370000,2.3533701171875,-0.06278817234635353,-0.2776699998350814,-0.10308715724796057
1761507797106526000,2.37352587890625,-0.07306406716704368,-0.29576698020286857,-0.1494899206510745
1761507797126680800,2.393680908203125,-0.10227028790712356,-0.22673710045535117,0.003924849860114045
1761507797146837000,2.4138369140625,-0.10066343723237514,-0.1228662089511752,0.1043185713395942
1761507797166992000,2.433991943359375,-0.08187456561028957,-0.10774143106089905,0.11823000965104438
1761507797187147800,2.454147705078125,-0.09034604135751724,-0.1443154132231604,0.11663829261334613
1761507797207303000,2.474302978515625,0.010392214676737784,-0.10301952623869291,0.07468558568796142
1761507797227459000,2.494458984375,0.05766892963647842,-0.07203307101833634,0.11728638125853612
1761507797247615000,2.514614990234375,-0.006973346143960953,-0.08125699996752664,0.08042865938460454
1761507797267769900,2.534769775390625,-0.022903321203589438,-0.14227039946001022,0.05067035771971568
1761507797287926000,2.554926025390625,-0.15500877540409563,-0.16112258210927247,0.030087387488782404
1761507797308081000,2.575080810546875,-0.0952232920050621,-0.1689511568430811,-0.015048168990109115
1761507797328236800,2.59523681640625,-0.0828840349137783,-0.07799175109388307,-0.08745307812867685
1761507797348392000,2.615391845703125,-0.22737083178162573,-0.09367338654878549,-0.012923705915734171
1761507797368547800,2.6355478515625,-0.12285656433999538,-0.0785547735378146,0.013378728807391597
1761507797388703000,2.655702880859375,-0.11290624821186065,-0.09703416821877471,0.060949138617236165
1761507797408859000,2.67585888671875,-0.0873679023295641,0.001073803243972361,0.03370562365171499
1761507797429014000,2.696013916015625,0.05821253499388694,-0.02463457457614131,0.04281807331675663
1761507797449170000,2.716169921875,-0.04063946890234947,-0.02319530815379694,0.01861883055111393
1761507797469324800,2.73632470703125,-0.04992050746679306,0.017614457547850907,0.03275495359706692
1761507797489481000,2.75648095703125,-0.054666825211048126,0.07125100812939926,0.025617913924530146
1761507797509635800,2.7766357421875,-0.010006430229544639,-0.01986590800276026,0.015988628177996723
1761507797529791700,2.796791748046875,-0.08207038044333458,-0.04579948201403022,-0.01624577214368619
1761507797549947000,2.81694677734375,-0.028626959547400473,-0.07889496527761221,-0.05103141871760599
1761507797570103000,2.83710302734375,0.019949732095003128,-0.09042224839888513,-0.03679252941692248
1761507797590258000,2.8572578125,0.007231704819202422,-0.08407309856787323,0.01856436955067329
1761507797610413800,2.877413818359375,-0.023701193583011627,0.02122621830422431,0.016970652352133766
1761507797630569000,2.89756884765625,0.02842003879845142,0.039947796843759716,0.05562593430047855
1761507797650724900,2.917724853515625,-0.011692191359400748,0.04443582897800952,0.05438885765303857
1761507797670879700,2.937879638671875,0.10370645819008349,-0.004233984307944774,0.08625129199032672
1761507797691036000,2.958035888671875,-0.10815993046760558,-0.04523647783640772,0.05495238242046907
1761507797711191000,2.97819091796875,-0.015346622213721274,-0.04772307048775255,0.07055153635684401
1761507797731347000,2.998346923828125,-0.0371481196552515,-0.09229721195790916,0.08158372030439787
1761507797751503000,3.018503173828125,-0.45126083571016784,0.10841204206515102,0.02476049337759614
1761507797771658000,3.038657958984375,0.013342296653985977,0.2033131163785234,0.14133764865454285
1761507797791814000,3.05881396484375,0.12541092499792575,0.054651773772388695,0.154241590423882
1761507797811969500,3.078969482421875,0.09335749813318252,-0.07489621449764818,0.15956431981660424
1761507797832125700,3.099125732421875,0.012521043398976325,-0.21623715108782052,0.1394463184826076
1761507797852280600,3.119280517578125,0.09402560665309428,-0.1403300790471956,0.07619917772184126
1761507797872436500,3.1394365234375,-0.006524433332681655,-0.06801416336633265,0.1131502495681867
1761507797892591600,3.159591552734375,0.0004939209967851639,-0.2508909331766888,0.2500823202075437
1761507797912747500,3.17974755859375,-0.07136018585860729,-0.11497989441445097,0.21483247192166743
1761507797932902700,3.199902587890625,-0.13302782974243163,-0.06882482216209172,0.3227017488796264
1761507797953058800,3.220058837890625,-0.40486850236952304,0.05705362901603803,0.3606385346945375
1761507797973213700,3.240213623046875,0.008996960926055907,-0.1444266459121369,0.38034678618386386
1761507797993369600,3.26036962890625,-0.2707031930297613,-0.06249810335859656,0.17154605044079943
1761507798013524500,3.2805244140625,-0.043747956311702724,-0.025088775483891365,-0.004199579714844003
1761507798033680600,3.3006806640625,-0.31839199592173095,0.20041282835975288,-0.10392581829549744
1761507798053835500,3.32083544921875,0.20791911233663557,0.06238675193861126,-0.2177843439972028
1761507798073991400,3.340991455078125,-0.05659048675000667,0.16121205049101262,-0.12864338584681972
1761507798094147600,3.361147705078125,-0.04932955583631992,0.21300964040867984,0.002994944032281637
1761507798114302700,3.381302734375,-0.029721184524893758,0.45950007360409945,0.0110039750581549
1761507798134458600,3.401458740234375,0.077485390740633,0.3453672062067315,0.09978297373657115
1761507798154613500,3.421613525390625,0.09690671504735945,0.18885062005557118,0.13704099264023825
1761507798174769700,3.441769775390625,0.07320961311757564,0.09253883869405835,0.0425501613618806
1761507798194924500,3.461924560546875,0.07266133158504963,0.06845094734840095,-0.02975231488209683
1761507798215080400,3.48208056640625,0.03470014198124408,-0.08960742488466203,-0.05545118052177131
1761507798235235600,3.502235595703125,0.03807458685040474,-0.14817881978619843,-0.11643992963018826
1761507798255391500,3.5223916015625,-0.05659867005646228,-0.16873492027651518,-0.10389701232612132
1761507798275546600,3.542546630859375,-0.01419569861292839,-0.20779596088100225,-0.0784293113940861
1761507798295702800,3.562702880859375,-0.10878069271445273,-0.040024825869034976,0.01348293695889297
1761507798315857700,3.582857666015625,-0.01598725820481777,-0.16042667226698248,0.10235643182061611
1761507798336013600,3.603013671875,-0.027471359771490095,-0.22999805674636736,0.1740905290255323
1761507798356168400,3.62316845703125,0.040943420284986494,0.021086371442116794,0.10079759413921274
1761507798376324600,3.64332470703125,-0.13912322400808333,0.004990684426762163,0.02093545519672334
1761507798396480500,3.66348046875,-0.360328518897295,0.02340140691883862,-0.031744817573297765
1761507798416635400,3.683635498046875,-0.2504500940740108,0.053438699055043976,-0.1157541119236499
1761507798436791600,3.70379150390625,-0.3004658786088228,0.16000276603279634,-0.1821794717285782
1761507798456946700,3.72394677734375,-0.2909609681606293,-0.0765339672007365,-0.12304616862796246
1761507798477102600,3.7441025390625,-0.12601064445674418,-0.1493808890523389,-0.12460596529059112
1761507798497257700,3.7642578125,-0.1387105515539646,-0.06677777170548214,-0.0039056291364133354
1761507798517413600,3.78441357421875,-0.06764028855264187,-0.07181605813363566,0.08853004144411533
1761507798537568500,3.804568603515625,-0.047535073634982106,-0.010706650920771062,0.1586938571250066
1761507798557724700,3.824724609375,0.08388941256403923,-0.06968319255709647,0.1547916620546952
1761507798577879600,3.844879638671875,0.12492810991704463,-0.06741857209336012,0.2106607757275924
1761507798598035500,3.865035400390625,0.03180383601784706,-0.12720896912952884,0.070328687386401
1761507798618190600,3.885190673828125,0.19305530520379544,-0.26211190856145694,0.05297346529662609
1761507798638346800,3.9053466796875,0.14119126245379446,-0.12292119054142385,0.10385722830500453
1761507798658502700,3.925502685546875,0.12729367000460623,-0.12519508115700445,0.08969218055866658
1761507798678657500,3.945657470703125,0.0020230302602052687,-0.051022486492479216,0.1364955058529973
1761507798698813700,3.965813720703125,-0.07977788559198379,0.013344826537789777,0.18679682933092115
1761507798718968600,3.985968505859375,-0.17008710207045077,-0.0995371731488034,0.18348609734773635
1761507798739124500,4.00612451171875,0.02248363448679447,-0.11210501483157276,0.10500749431867151
1761507798759278600,4.026278564453125,-0.04179389963448047,0.10258607585802673,-0.004205963789857924
1761507798779434800,4.046434814453125,-0.15734510939717292,0.062263390420423816,0.06952781933229416
1761507798799590700,4.066590576171875,-0.09582593407332897,-0.08277359680924565,0.014034918560646474
1761507798819748400,4.086748291015625,-0.10900573364198207,-0.060442531668813894,0.019836298315785823
1761507798839904500,4.106904541015625,0.024168226572871206,-0.11235851466860622,0.021475480357557534
1761507798860059400,4.127059326171875,-0.0008493103057146072,-0.06203335365736857,0.07541022843439131
1761507798880215300,4.14721533203125,-0.06921499052345752,-0.14465974228195846,0.16122111058030278
1761507798900370400,4.167370361328125,0.0032891046732664107,-0.22236622842736542,0.1552103989234194
1761507798920526600,4.187526611328125,-0.03667933309972286,-0.2122039500489831,0.14371208616830408
1761507798940681500,4.207681396484375,-0.07315875971317291,-0.12568232581783084,0.11426708823628723
1761507798960837400,4.22783740234375,-0.10821370648145676,-0.09473207442201674,0.038317784489132464
1761507798980992500,4.247992431640625,-0.04915887544453144,-0.17924250496122984,0.0021009543346241113
1761507799001148400,4.2681484375,-0.1217623393625021,-0.199155503508728,0.039736857506819066
1761507799021303300,4.28830322265625,-0.1132090305507183,-0.16232472444064913,0.03225260269865393
1761507799041459500,4.30845947265625,-0.07148527354300022,-0.07588835820700042,0.016223916504904626
1761507799061615400,4.328615478515625,0.06239362007081508,-0.03657814459743677,0.020624672214500605
1761507799081770500,4.3487705078125,0.12959201007485388,-0.11101784064937383,0.08263323849048465
1761507799101926700,4.3689267578125,0.035899580898880956,-0.15565582286966964,0.12542066094065085
1761507799122081500,4.38908154296875,-0.12067922030091285,-0.2190478428606875,0.11899819014510139
1761507799142237400,4.409237548828125,-0.010277063864469528,-0.08052636587172746,0.04988335379417985
1761507799162393600,4.4293935546875,0.17317746930122374,-0.0044458963258424775,-0.02550787767879665
1761507799182548500,4.449548583984375,-0.17766952002346514,-0.007766606280347332,0.09767418315536341
1761507799202704400,4.469704345703125,-0.23386194736659524,-0.027562563452590255,0.06635682461336255
1761507799222860500,4.489860595703125,-0.24427228222191333,-0.14099330132943577,0.021460830777697264
1761507799243015400,4.510015380859375,-0.16293021605312824,-0.1453430575041566,-0.05526736665377393
1761507799263171300,4.53017138671875,0.010959200909733771,-0.03425643506804481,-0.058552324874885375
1761507799283326500,4.550326416015625,-0.020206921726465224,-0.021153116535395384,-0.07364007695671171
1761507799303482600,4.570482666015625,-0.04937807115316391,-0.02515450679701753,-0.15363766971398143
1761507799323637500,4.590637451171875,0.004758592703938484,0.01621048163459636,-0.05214784639375284
1761507799343793400,4.61079345703125,0.03578209199905395,-0.05329337230022065,-0.11785373281771316
1761507799363948500,4.630948486328125,0.07206278117001057,-0.048893730835476885,-0.19529126582862807
1761507799384104400,4.6511044921875,0.011607435685396194,-0.03320467925909906,-0.1659055968684144
1761507799404259300,4.67125927734375,-0.054012745216488835,-0.04181370031349361,-0.1700968197468668
1761507799424415500,4.69141552734375,-0.06045943713784217,-0.0013319792561233043,-0.12492527863914146
1761507799444571400,4.7115712890625,-0.051989130434393876,0.07261959306886419,-0.12445594409434124
1761507799464726500,4.7317265625,-0.01613163511157036,0.2094052592411637,-0.04052753296047449
1761507799484882700,4.751882568359375,-0.02037175689935684,0.2987221767466515,-0.049504510544426734
1761507799505037600,4.77203759765625,-0.17259528549909592,0.21656061088852582,0.08961188186407089
1761507799525193500,4.792193359375,-0.14804302804470063,0.05046111714951694,0.06926314051412046
1761507799545348400,4.812348388671875,-0.026021745485067367,-0.01801061725858599,0.06586330547537654
1761507799565504500,4.83250439453125,0.05303776270449161,-0.03921469679623842,-0.009685125853307545
1761507799585659400,4.852659423828125,0.05594166745245456,0.148941474721767,0.1478363264914602
1761507799605815300,4.872815185546875,0.07282499771416187,0.04766041704770178,0.06561422608513384
1761507799625970400,4.892970458984375,-0.014480945295095443,0.0004468669846653938,0.08496252168826758
1761507799646126600,4.913126708984375,0.025561142235994337,-0.07052428302373737,0.05545370127242058
1761507799666282500,4.933282470703125,-0.004683773902058601,-0.10050240145176649,0.05236026530172676
1761507799686437400,4.953437255859375,-0.0009568623334169388,-0.06414780679438263,0.05293620202615857
1761507799706593500,4.973593505859375,0.00684533585011959,0.014256342758983373,0.058761401048302644
1761507799726748400,4.99374853515625,0.0224345346480608,0.06454002098236232,0.07380443720556795
1761507799746904300,5.013904296875,-0.021363690546154973,0.02672602129690349,0.14549619310609996
1761507799767059500,5.0340595703125,-0.01981236945092678,0.048468993484228846,0.17394626171663402
1761507799787215400,5.05421533203125,-0.020195231288671494,0.04654821802210062,0.1018277317713946
1761507799807370500,5.07437060546875,-0.041890930268168446,-0.014802834193222224,0.13829692925177514
1761507799827522600,5.0945224609375,-0.21955518959462642,-0.05283865993581712,0.17690825332738458
1761507799847677400,5.114677490234375,-0.10268003775179385,-0.0779167678952217,0.23263204024545847
1761507799867833300,5.134833251953125,-0.12191256148815155,-0.15011168754491955,0.31943829010426994
1761507799887989500,5.154989501953125,-0.2377987022936344,-0.2072691605279222,0.36465507685951887
1761507799908144400,5.175144287109375,-0.21543781740367413,-0.14196023753229528,0.4027997332714498
1761507799928300300,5.19530029296875,-0.17722177625596522,-0.12535283813513814,0.38803799827359614
1761507799948455700,5.21545556640625,-0.16044249089062212,-0.10385978558827191,0.31521891884356734
1761507799968611600,5.235611572265625,-0.16052490847706793,-0.150800144733116,0.246267036235705
1761507799988766500,5.255766357421875,-0.14318272853195665,-0.20072109059132634,0.1907686555713415
1761507800008922600,5.275922607421875,-0.05621931535005569,-0.1780494227191433,0.1704565929699689
1761507800029077500,5.296077392578125,-0.11323299594819546,-0.13674421991705893,0.15890614816881715
1761507800049233400,5.3162333984375,0.022281389912962912,-0.018066987088322637,0.17379830461330711
1761507800069388300,5.33638818359375,-0.03369008815586567,-0.023478344612568616,0.11592157744504511
1761507800089544400,5.35654443359375,-0.01380523799061775,-0.02075184225812554,0.05691496946401894
1761507800109700400,5.376700439453125,-0.059335401543974875,-0.0478313897004351,-0.014307123098149894
1761507800129855500,5.39685546875,-0.06885317147374152,-0.04858608052525669,-0.04527677331417799
1761507800150011600,5.41701171875,0.003070493486523628,-0.028057014172337948,-0.06315715178921819
1761507800170166500,5.43716650390625,-0.051125207081437106,-0.017046777195110916,-0.015523074759170412
1761507800190322400,5.457322509765625,-0.028044775745272636,0.005944916411675513,0.03182736302390694
1761507800210477600,5.4774775390625,-0.11003390764594077,0.012503909601084887,0.07253843585774301
1761507800230633500,5.497633544921875,-0.11522037037312984,-0.0035036607393994926,0.06982486605010926
1761507800250788400,5.517788330078125,-0.1237660804003477,0.02170234791599214,0.07740925676450133
1761507800270944500,5.537944580078125,-0.019101006311178205,-0.035593327961303295,0.0579367867924273
1761507800291099600,5.558099609375,-0.041969840723276135,-0.0340771512446925,0.004342413118481636
1761507800311255600,5.578255615234375,0.038245851764082905,-0.0006844386002048849,-0.026203312597051262
1761507800331411500,5.598411376953125,0.005320318239927292,0.023931385609693823,-0.030675854901224372
1761507800351566600,5.618566650390625,-0.005905424651503562,0.020790676431171596,-0.03366378467082977
1761507800371722500,5.638722412109375,0.04311199649572372,0.0334688831532374,-0.004533990167826414
1761507800391877400,5.65887744140625,0.07037526647448539,0.015858224997669458,0.06166625564433634
1761507800412033500,5.679033447265625,0.03396598248779774,-0.0037731983957812187,0.09152918672747909
1761507800432188400,5.6991884765625,0.04577215561568737,-0.020176910180691628,0.05735021907612681
1761507800452344300,5.71934423828125,-0.02736263870000839,-0.05113264146922156,0.05446063511446118
1761507800472499500,5.73949951171875,-0.02402735679745674,-0.0968103785334155,0.05373261310085654
1761507800492655600,5.759655517578125,0.05108078341782093,-0.11737301836237311,0.03870696646980941
1761507800512810500,5.779810546875,-0.04504091873168945,-0.1170065140043851,0.08775715737547725
1761507800532966400,5.79996630859375,-0.025991350346803662,-0.0779552002094686,0.10389018072653561
1761507800553122600,5.82012255859375,-0.042948914888501166,-0.10453222322342917,0.08698599033989012
1761507800573277400,5.84027734375,-0.029016835647821426,-0.14847378414478152,0.07370207280963659
1761507800593433300,5.860433349609375,0.09314356312155724,-0.14700689906314945,0.0027669074300676584
1761507800613588500,5.88058837890625,-0.10851882690787315,-0.08215150112183764,-0.004759469486773014
1761507800633744400,5.900744384765625,-0.36834172948300836,0.028079189471527932,0.01352021050415933
1761507800653899500,5.9208994140625,-0.2690928352236748,0.023985271221399304,0.025380744167789817
1761507800674055700,5.9410556640625,-0.3607838614493608,-0.013039916173927486,0.03075812635719776
1761507800694210600,5.96121044921875,-0.33593408235311506,-0.0801381154728122,0.05675174172632396
1761507800714366500,5.981366455078125,-0.21868366745710371,-0.10582215343611315,0.10144439500961452
1761507800734522600,6.001522705078125,-0.1670353132843971,-0.05375754661271348,0.168409779975377
1761507800754677500,6.021677490234375,-0.04686754963696003,-0.06675287472624332,0.18219883401617407
1761507800774833400,6.04183349609375,-0.03375964626073837,-0.06818964779740198,0.10629932422749698
1761507800794988300,6.06198828125,0.08147767524719238,-0.08051536955367773,0.031258550160005685
1761507800815147800,6.082147705078125,-0.04821253450512886,-0.06150723829087801,-0.011613938491418957
1761507800835303200,6.10230322265625,0.0662532181084156,-0.022016912024188786,-0.04422251502089202
1761507800855459000,6.122458984375,-0.06058803195357322,-0.09210143365748226,-0.01194981938228011
1761507800875614000,6.142614013671875,-0.09952712667882442,0.028714592165080828,-0.020883359683305024
1761507800895770000,6.16277001953125,0.03204875068962574,-0.0053570974532049145,0.04460011616162955
1761507800915926000,6.182926025390625,-0.14346914425790308,-0.04997864912850782,0.042833764076232905
1761507800936081000,6.203080810546875,0.02864975590109825,-0.006070168492849916,-0.011333952506259083
1761507800956237000,6.223237060546875,-0.03159516170322895,-0.08479059918746351,-0.010678338141739368
1761507800976392000,6.243391845703125,-0.04348725954890251,-0.1237625093369279,0.005243965068086981
1761507800996547800,6.2635478515625,-0.0008534019589424133,-0.09551391811524518,0.07394779119901358
1761507801016703000,6.283702880859375,-0.04770283141732216,-0.08305927274967544,0.102119335129112
1761507801036859100,6.303859130859375,0.02663724703490734,-0.08311189798605628,0.10369447549134492
1761507801057014000,6.324013916015625,-0.03288169438242912,-0.11708117754263803,0.06908223098926246
1761507801077170000,6.344169921875,0.022227613899111747,-0.05322883286376018,0.07707870963588356
1761507801097325000,6.364324951171875,-0.030137364110350607,-0.06457927071393933,0.07427475813105702
1761507801117481000,6.38448095703125,0.0028559739530086515,-0.1229843554381281,0.07025631626993417
1761507801137636900,6.404636962890625,0.06611877807378769,-0.07417191881109028,0.019352862180396915
1761507801157792000,6.4247919921875,-0.0006418050348758697,-0.041687772378884255,0.042243031641468407
1761507801177948000,6.444947998046875,-0.08590016786456108,-0.06817664218535646,0.0831945621676743
1761507801198103000,6.46510302734375,-0.005178863942623138,-0.10253947850363329,0.05652005186229944
1761507801218259200,6.48525927734375,-0.1257926177918911,-0.11816643376238643,0.11900756076164543
1761507801238414000,6.5054140625,-0.13890402829945087,-0.037106088878121224,0.11173501247540116
1761507801258570000,6.525570068359375,-0.14154898985028266,-0.04562746818168088,0.11623466198220848
1761507801278726000,6.545725830078125,-0.14810557188689707,-0.11374919270887039,0.10478088248856365
1761507801298881000,6.565881103515625,-0.07947568777501583,-0.09597776363417505,0.09386515539437532
1761507801319037000,6.586036865234375,-0.05740004956722259,-0.06852051458642817,0.06915704979114234
1761507801339191800,6.60619189453125,-0.07796586773395538,-0.05259672267241403,0.049815731918066736
1761507801359348000,6.626347900390625,-0.05521569126546383,-0.018539719166606662,0.05729406844209879
1761507801379503000,6.646503173828125,-0.03325695743560791,-0.040841813940880815,0.050460569160245355
1761507801399659000,6.666658935546875,-0.05002981306016445,-0.05389142952491529,0.05554883220996707
1761507801419814000,6.68681396484375,-0.05702420199215412,-0.05916991791711188,0.034935192846134305
1761507801439970000,6.706969970703125,-0.020972645401954648,-0.08463457750868983,0.027873401233740148
1761507801460126000,6.7271259765625,-0.05683481689989566,-0.04636259578950703,0.057955929884314535
1761507801480280800,6.74728076171875,-0.06507774458825588,-0.0351895055339206,0.08699351605921983
1761507801500437000,6.76743701171875,-0.051824295261502264,-0.05318504395438358,0.054713879223167894
1761507801520592000,6.787591796875,-0.009880173501372337,-0.08001678151492961,-0.0018653189478442071
1761507801540747800,6.807747802734375,-0.039589083066582674,-0.0952334115402773,-0.00822623228188604
1761507801560903200,6.827903076171875,0.010682722055912017,-0.09185947812777012,0.04953958185780793
1761507801581059000,6.84805908203125,-0.021167291191220284,-0.0798840767796617,0.08870134289041161
1761507801601214000,6.8682138671875,-0.05197217929959297,-0.051620630482141855,0.059622255661338566
1761507801621370000,6.8883701171875,-0.04544949953258037,-0.07510951475503388,0.0717505003504455
1761507801641526000,6.908526123046875,-0.07777063742280006,-0.09666210176968015,0.06436141301244497
1761507801661681000,6.928680908203125,-0.07549976988136768,-0.04182535421866923,0.01961834471616894
1761507801681837000,6.948837158203125,-0.06471241840720177,-0.016251242903247476,0.023511954621225593
1761507801701992000,6.968991943359375,-0.09641279405057429,-0.013327327413717284,0.018841222863830626
1761507801722147800,6.98914794921875,-0.08689093246757984,0.0007505900384392589,0.002399352759309113
1761507801742303000,7.009302978515625,-0.04760229365229606,-0.006534123609634116,-0.0024159385679289698
1761507801762459100,7.029459228515625,-0.0424421344101429,-0.027632331620017065,0.029267559005878865
1761507801782614000,7.049614013671875,-0.09717676416039467,-0.04448643578724004,0.05634633926320821
1761507801802770000,7.06977001953125,-0.043402503874897955,-0.07584613563362509,0.06192344527579843
1761507801822922800,7.0899228515625,-0.0342857159614563,-0.048367706800531596,0.08318615966551006
1761507801843077600,7.11007763671875,-0.025904256585240364,-0.027856450098939237,0.10914890497233717
1761507801863233800,7.13023388671875,0.006883914294838905,-0.07949881292227655,0.09787249133959412
1761507801883388700,7.150388671875,-0.047610476958751674,-0.10757273256364278,0.04992982328440994
1761507801903544600,7.170544677734375,-0.05632452929019928,-0.044616026116814464,0.015903854237683115
1761507801923700000,7.190699951171875,-0.05892682074308395,-0.04551742280279286,-0.015292992330342531
1761507801943855900,7.21085595703125,-0.02301730297207832,-0.057231405868893484,0.0033397754145786164
1761507801964011800,7.23101171875,-0.01508709449470043,-0.0300293006259948,0.02110138634815812
1761507801984167000,7.2511669921875,-0.02965980972647667,-0.022828338004928082,0.053920135029591615
1761507802004322800,7.27132275390625,-0.07538461906909942,-0.01877427684115246,0.0500807760624215
1761507802024477700,7.291477783203125,-0.007400631645321846,-0.08030390962692908,0.016380933697521687
1761507802044633900,7.3116337890625,-0.13304536539912223,-0.05299621598455123,-0.005223579867184162
1761507802064788700,7.331788818359375,-0.015825930163264272,-0.045402838246105234,0.035183687714487315
1761507802084944600,7.351944580078125,-0.0993535236775875,-0.11854817222212441,0.04637074256334454
1761507802105099800,7.372099853515625,-0.03667582596838474,-0.08364648891994729,0.056231005787849425
1761507802125256000,7.392255859375,-0.043318917244672774,-0.12512832693057133,0.08465583035927265
1761507802145411800,7.412411865234375,-0.027706922093033787,-0.1135452402351424,0.08673464592732488
1761507802165566700,7.432566650390625,-0.11283435201942921,-0.12310245625930838,0.09581026158016175
1761507802185723000,7.452722900390625,-0.07617255457639693,-0.12543591330870985,0.10964490832835436
1761507802205877800,7.472877685546875,-0.07953004831075668,-0.1345356404894963,0.0988188322789967
1761507802226033700,7.49303369140625,-0.08859598281979561,-0.11557422531209885,0.0907069105591625
1761507802246188800,7.513188720703125,-0.055655251726508134,-0.10011524703139439,0.09571805325206369
1761507802266344700,7.5333447265625,-0.13486732012927533,-0.08832878325097263,0.08034048791080713
1761507802286500600,7.55350048828125,-0.18379647847115993,-0.09575011062445118,0.07641951507478952
1761507802306656000,7.573656005859375,-0.15581424656808376,-0.07852796772927977,0.07097337849810718
1761507802326812000,7.59381201171875,-0.10294190355837345,-0.07919389342525973,0.07570511972773819
1761507802346966800,7.613966796875,-0.1021031146466732,-0.05112487828787416,0.09507518877126275
1761507802367123000,7.634123046875,-0.000384030881524086,-0.08017919640187174,0.09181271637659519
1761507802387277800,7.65427783203125,0.011971592822670936,-0.07325143839872908,0.09537015312984586
1761507802407433700,7.674433837890625,0.05151508318185806,-0.0659977272436954,0.06525127452425658
1761507802427589600,7.694589599609375,0.01940145056247711,-0.03617615336753661,0.03761851364597678
1761507802447744800,7.714744873046875,0.02273030272424221,-0.030155507121817207,0.056458640531264245
1761507802467900700,7.734900634765625,-0.027401217144727704,-0.037331312468741086,0.06025730216186493
1761507802488055800,7.755055908203125,-0.04367372203171253,-0.042496403614338485,0.08526026252582669
1761507802508212000,7.7752119140625,-0.026393501406908035,-0.06858884428201709,0.07052884960100055
1761507802528366800,7.795366943359375,-0.0764268215984106,-0.061367532992665653,0.057927178713865574
1761507802548522800,7.815522705078125,-0.07927052059173584,-0.04244052240836899,0.04143978896718472
1761507802568677600,7.835677734375,-0.061761167386174196,-0.06120279371789656,0.03638130000121891
1761507802588833800,7.855833740234375,-0.07303659463822841,-0.05521340797683224,0.042059053376689554
1761507802608989700,7.87598974609375,-0.06352233183979988,-0.005056543604051694,0.04357259974479675
1761507802629144600,7.89614453125,-0.057146951588988304,-0.05624895700307097,0.04313771545886993
1761507802649300700,7.91630078125,-0.0038929157853126524,-0.07474268617006018,0.06434018756132573
1761507802669456000,7.936455810546875,-0.03491583055853843,-0.06378769564456306,0.10399590612333268
1761507802689611800,7.95661181640625,-0.014813538250327109,-0.07402970646196044,0.08487802174258977
1761507802709767000,7.976766845703125,-0.06105272685587406,-0.09021578430766239,0.06382442005891352
1761507802729922800,7.9969228515625,-0.05994155074357986,-0.09070561365121975,0.05480849870406091
1761507802750077700,8.01707763671875,-0.032651392757892604,-0.07608215004631784,0.05357471912540495
1761507802770232600,8.037232666015624,-0.022205402067303655,-0.0793202049523592,0.05238386537302285
1761507802790388700,8.057388671875,-0.0103349315315485,-0.08414784430451691,0.028603907465375958
1761507802810544600,8.077544677734375,-0.04995499425828456,-0.06162965909414924,0.009142726072296499
1761507802830700000,8.097699951171874,-0.06983633729219436,-0.031168926514638585,0.04072411497849971
1761507802850856200,8.117856201171875,-0.0991097780495882,-0.008048254499631003,0.0223366637641564
1761507802871011300,8.13801123046875,-0.05849895071983337,-0.03560575133474776,0.008946107521653176
1761507802891167200,8.158167236328126,-0.09404664944112301,-0.010666686519852373,0.0053352235481143
1761507802911322000,8.178322021484375,-0.03254033359885215,-0.05378975924872793,0.0029801848545670507
1761507802931478300,8.198478271484374,-0.053041269835829734,-0.03054854786028154,0.005620762491226196
1761507802951634200,8.21863427734375,-0.012175006440281867,-0.03181107175952056,0.02668956174403429
1761507802971789000,8.2387890625,-0.07935410722196101,-0.03962124090366997,0.027037607996724545
1761507802991945200,8.2589453125,-0.031191257077455518,-0.043470317547256124,0.01572341963686049
1761507803012100000,8.27910009765625,-0.06264262639582156,-0.07052837467696517,-0.0005262888964265585
1761507803032256000,8.299256103515624,-0.01635141534209251,-0.0683603738549631,0.017022263808362185
1761507803052411400,8.319411376953125,-0.04673077151477337,-0.04203518844391219,0.05297408635113388
1761507803072567300,8.3395673828125,-0.044566286957263945,-0.01815669978194637,0.055074200435541565
1761507803092723200,8.35972314453125,-0.03688333123922348,-0.03162324158682022,0.02942245730664581
1761507803112878300,8.37987841796875,-0.09355798914134501,-0.027226625479513312,0.023166392586566508
1761507803133035300,8.40003515625,-0.03478139052391052,-0.02531707694758661,-0.002992459814250469
1761507803153191400,8.42019140625,-0.013407763105630873,-0.007114017273264471,-0.015084500678814946
1761507803173346300,8.44034619140625,-0.022281974434852598,-0.03340738962381146,-0.0026369609074667097
1761507803193502200,8.460502197265624,-0.04044833024442196,-0.026812414088856894,0.02611413647625595
1761507803213657000,8.480656982421875,-0.07729308303892612,0.019291185987880453,0.04018620870951563
1761507803233813200,8.500813232421875,-0.04844985039234161,-0.008048962319106795,0.045445809738151724
1761507803253969200,8.52096923828125,-0.0712725075751543,-0.030700468752672894,0.002806216527149081
1761507803274124000,8.5411240234375,-0.10279051238894461,-0.037074373999028465,0.018980558269284666
1761507803294280200,8.5612802734375,-0.10462591112256049,-0.01974353743183892,0.06666307755094021
1761507803314435300,8.581435302734375,-0.08944295503795147,-0.00687059358896222,0.07093129292204976
1761507803334591200,8.60159130859375,-0.025993103912472722,-0.023630247238650915,0.025692769259028136
1761507803354746400,8.621746337890626,-0.01986030024588108,-0.03554268918603193,0.007738704493269324
1761507803374902300,8.64190234375,-0.04774199438393116,-0.017020364112220705,0.016092947068996725
1761507803395058200,8.66205810546875,-0.04198737637996673,-0.028865942235314284,0.04426456406433135
1761507803415213300,8.68221337890625,-0.03777063546776771,-0.006470474655739963,0.034493513493239876
1761507803435369200,8.702369140625,-0.043075171616673465,0.0021691333331633356,0.023874760051630434
1761507803455524000,8.722524169921876,-0.03698036187291145,-0.02136355354883708,0.023444113549403844
1761507803475680000,8.742679931640625,-0.0481891536295414,-0.05321726115697529,0.02592504364494234
1761507803495835400,8.76283544921875,-0.039925183153152466,-0.03948278684762772,0.04486022840254009
1761507803515991300,8.7829912109375,-0.09694470897018909,-0.011444239913742058,0.04978880737852305
1761507803536147200,8.803147216796875,-0.07744388968646526,-0.013314490765030496,0.029979908526316282
1761507803556302300,8.82330224609375,-0.060574003428220745,-0.03565006311722099,0.009338358242250978
1761507803576458200,8.843458251953125,-0.037195465928316115,-0.0438820173204178,0.00854318927656859
1761507803596613000,8.863613037109374,-0.044107437273859976,-0.02669867663225159,0.03167871180083603
1761507803616769300,8.883769287109375,-0.005872691425681114,0.008374920037575066,0.02042231804281473
1761507803636924200,8.903924072265625,-0.07164192540943622,-0.058099233645410274,0.045701245803944766
1761507803657080000,8.924080078125,-0.05437339522242546,-0.02702647468135692,0.05033928086813539
1761507803677236200,8.944236328125,-0.055609659019112585,-0.07757727940832264,0.061261181974783536
1761507803697391400,8.964391357421874,-0.09513970537483692,0.004485698613268323,0.021648864163085816
1761507803717547300,8.98454736328125,-0.09420271678566933,-0.022142397000803612,0.01105626807603985
1761507803737702100,9.0047021484375,-0.10914660341739654,-0.033042141074570826,0.00993332846071571
1761507803757858300,9.0248583984375,-0.05556406631171703,0.08759887067438103,0.007077573703415691
1761507803778013200,9.04501318359375,-0.057929626399278636,-0.05433379386439919,0.019853395581059155
1761507803798169000,9.065169189453124,-0.011663549786806105,-0.005820502297428902,-0.005448182403296232
1761507803818324700,9.08532470703125,-0.025782676032185554,0.008765024466859176,0.027257972749136387
1761507803838480000,9.10547998046875,-0.01962064627110958,0.024255244985909665,0.03529854626581073
1761507803858635800,9.1256357421875,-0.03239595669209957,-0.014279698518395889,0.027513189619220793
1761507803878790700,9.145790771484375,-0.08416063072085381,-0.01749095674905693,0.010558218893408775
1761507803898946800,9.16594677734375,-0.06752747582793235,0.0054284936054260465,0.008975552811846137
1761507803919101700,9.186101806640625,-0.04512508988380432,0.018192590795946307,0.026212299621105193
1761507803939257600,9.206257568359375,-0.07887421475052833,0.061533587441686535,0.06683956662900746
1761507803959413800,9.226413818359376,-0.10288637397885322,0.04394920537169091,0.0793742366945371
1761507803979568600,9.246568603515625,-0.08895020308494567,0.026698277056741063,-0.011822978132218121
1761507803999724500,9.266724609375,-0.028877719438076016,0.0248536561203422,-0.03364182856734842
1761507804019880000,9.2868798828125,0.040948096460103986,-0.008116269101388752,-0.008090111746825277
1761507804040035800,9.307035888671875,0.022820319095253942,-0.016949860725854523,0.03257054607402533
1761507804060190700,9.327190673828126,0.02325754146873951,-0.006789413544954732,0.057057154413685196
1761507804080347000,9.347346923828125,-0.05227905329167842,0.010265898583061062,0.07107154164295643
1761507804100502800,9.367502685546874,-0.07825929772257804,-0.005980791442655026,0.0508017838133499
1761507804120657700,9.38765771484375,-0.10649170499444008,-0.008740310150710865,0.03242558464538306
1761507804140813800,9.407813720703125,-0.12181319276690482,-0.00999777656563092,0.007685220740363001
1761507804160968700,9.42796875,-0.11544658034443854,0.008848761794134043,0.008115757644735277
1761507804181124600,9.44812451171875,-0.07977262489497661,0.033385474619525485,0.003468443295545876
1761507804201279700,9.46827978515625,-0.09016425504982471,0.04441922033650335,0.01797350011859089
1761507804221436000,9.488435791015625,-0.02804886739850044,-0.008201209721772466,0.022587752448394893
1761507804241591800,9.508591796875,-0.02945873419642448,-0.02461689050568966,0.018205555308796466
1761507804261746700,9.52874658203125,-0.008407178339362144,-0.018683842628321144,0.010434190654940903
1761507804281902800,9.54890283203125,-0.01006605146229267,-0.0054673643110902045,0.03242302736211568
1761507804302057700,9.5690576171875,-0.04058101671338081,-0.002972421673219651,0.06261486160606146
1761507804322213600,9.589213623046875,-0.06943535527586936,0.019168224045203533,0.07794106208626181
1761507804342368800,9.60936865234375,-0.09588906243741512,0.028011222818831446,0.05099533362407237
1761507804362524700,9.629524658203126,-0.10275544107556342,0.002259658877539914,-0.006196005095914006
1761507804382680600,9.6496806640625,-0.06981529450416564,0.028176608264283275,-0.031978425399772824
1761507804402836000,9.6698359375,-0.0671463675558567,0.03984575210823677,-0.03772949973978102
1761507804422992000,9.689991943359376,-0.05950257480442524,0.033167030112852804,-0.01439100198931992
1761507804443146800,9.710146728515625,-0.04483750511407852,0.001296748112537898,0.009207863730378449
1761507804463302700,9.730302734375,-0.009817045137286186,0.006090740352598368,0.03493639842253178
1761507804483457800,9.750457763671875,0.00824701934158802,-0.0029870878069225,0.07826543520241976
1761507804503613700,9.77061376953125,0.002817395508289337,-0.020498604999284725,0.07173639875985681
1761507804523769600,9.79076953125,-0.054793081939220424,-0.036878486100747246,0.0369563964754343
1761507804543924700,9.8109248046875,-0.09387772261500359,-0.0010139365576964337,0.035367337185703215
1761507804564080600,9.83108056640625,-0.07548048065900802,-0.024374626732012256,0.025331571263819932
1761507804584235800,9.85123583984375,-0.05416530542969703,-0.037304292031074875,0.0075719330916181205
1761507804604392000,9.871391845703124,-0.01687748504281044,-0.018402951319218847,0.04158811139669269
1761507804624546800,9.891546875,-0.059953241181373594,-0.008939305033997516,0.10433814368974417
1761507804644702700,9.91170263671875,-0.06833177794814109,-0.03208379003696609,0.1098753926159814
1761507804664859000,9.93185888671875,-0.07365092714428902,-0.03540835874925833,0.07905337070971727
1761507804685013800,9.952013671875,-0.04735796350240707,-0.024842207711143417,0.026393976330943404
1761507804705169700,9.972169677734374,-0.04338905987143516,-0.05049403303842991,0.004056033925153315
1761507804725324500,9.992324462890625,-0.011583470287919043,-0.058841909805452446,-0.010041465010307728
1761507804745480700,10.012480712890625,-0.03836158709824085,-0.022977724446938373,0.013630064086802302
1761507804765635800,10.0326357421875,-0.04582359354197979,-0.001904190795152681,0.026301220013573764
1761507804785791700,10.052791748046875,-0.06400690048635005,-0.03816610562533606,0.03188139476608485
1761507804805948000,10.072947998046875,-0.06894961758553982,-0.05915496694315225,0.01896762572247535
1761507804826102800,10.093102783203125,-0.0457359152585268,-0.041948446308798154,0.017677439781464636
1761507804846258700,10.1132587890625,-0.02505436175763607,-0.06689908283047843,0.04274827774986625
1761507804866413600,10.13341357421875,-0.03379647113978863,-0.06452219763130415,0.04423515530675649
1761507804886569700,10.15356982421875,-0.016518588602542877,-0.01983163355711149,0.012471980092860758
1761507804906724600,10.173724609375,-0.056765843316912645,-0.009427456731232815,0.007672142063081264
1761507804926880500,10.193880615234375,-0.09576748188436031,-0.030803045494446995,-0.008089856018498539
1761507804947036700,10.21403662109375,-0.062030631977319714,-0.04441959936241619,-0.013757928250171244
1761507804967191800,10.23419189453125,-0.04616904597878456,-0.04417232833676971,0.00736778882164508
1761507804987347700,10.25434765625,-0.02825637266933918,-0.04820053354008123,0.0346482656635344
1761507805007502600,10.274502685546874,-0.00835807850062847,-0.019063985069305636,0.040486908689141274
1761507805027658800,10.29465869140625,-0.04983867440223694,-0.04152748551694676,0.00969853332415223
1761507805047813600,10.314813720703125,-0.041346740388870235,-0.06918411132800392,-0.004317096014134585
1761507805067969500,10.334969482421876,-0.05818447794318199,-0.05758261675962712,0.004878017832525074
1761507805088125700,10.355125732421875,-0.04687164129018783,-0.0390164160114713,0.013094276709668338
1761507805108280600,10.375280517578124,-0.03450257358253002,0.01303678236028063,0.008801584484428167
1761507805128436500,10.3954365234375,-0.08507599200010299,0.022233593832037876,0.012875775120779871
1761507805148591900,10.415591796875,0.007004325804114342,-0.01653757414751453,-0.056275064125284546
1761507805168747800,10.435747802734374,-0.063878305670619,0.0015283786110579967,0.00019661855064332485
1761507805188902700,10.455902587890625,-0.03278524827063083,-0.06276684186395723,-0.008236607545427977
1761507805209058800,10.476058837890625,-0.07296469844579696,-0.0453089905167697,0.007592135629430413
1761507805229214700,10.496214599609376,-0.1652104359447956,0.03384010935211554,-0.03289006035197526
1761507805249369600,10.51636962890625,0.06515899313092231,0.0030752198939910155,0.06707962246257812
1761507805269525500,10.536525390625,0.036221652460098265,-0.038590541582484726,0.013985489928349852
1761507805289680600,10.5566806640625,-0.18677052584588527,-0.09249836968635208,0.022001659656129775
1761507805309836500,10.57683642578125,-0.18535539835095405,0.04698245842063334,-0.008634813082776964
1761507805329991700,10.59699169921875,0.12508885343670845,0.10294152909903787,-0.04369180567767471
