time,seconds_elapsed,z,y,x
1761507728508260600,0.075260498046875,-0.04773381107747555,-0.006493197944201529,0.23405710461251436
1761507728528415700,0.095415771484375,-0.09231821821331977,-0.04069127215482294,0.2212104094557464
1761507728548571600,0.115571533203125,-0.08509528122246265,-0.028771446052007377,0.09728351247049867
1761507728568727800,0.135727783203125,-0.1568359908312559,-0.018566387977823614,0.04028466411530971
1761507728588882700,0.155882568359375,-0.11384674393236636,0.03978237714897841,-0.00430989908836782
1761507728609038600,0.17603857421875,-0.2391314122021198,0.03836063725017011,0.038423400288075206
1761507728629193700,0.19619384765625,-0.1621779363811016,0.0403804526399821,0.03167999044246971
1761507728649349600,0.216349609375,-0.25482056424319743,0.0822629804059863,0.01639561981000006
1761507728669505500,0.236505615234375,-0.061763505473732945,0.023963936172425745,0.007094926697015762
1761507728689660700,0.25666064453125,-0.1485837107926607,0.09003500264696776,0.04721592468321323
1761507728709816600,0.276816650390625,0.04856733929216862,0.05498736240230501,0.04738090598657727
1761507728729971700,0.2969716796875,0.01760112314224243,0.057526598556339736,0.09167765528745948
1761507728750127900,0.3171279296875,0.16123451805114744,0.09463277876600623,0.11032090789377688
1761507728770283800,0.33728369140625,0.06907353622615336,0.059790159574151035,0.09093187842145561
1761507728790438700,0.357438720703125,0.051310500520467754,0.08018756237141787,0.005092062442004681
1761507728810594800,0.3775947265625,-0.04552081120312214,0.08242883849218487,-0.06610621085315943
1761507728830749700,0.397749755859375,-0.02813128498494625,0.07240180386602878,-0.06791676740646362
1761507728850905600,0.417905517578125,-0.13680501019358635,0.06698518564477562,0.01200388765707612
1761507728871061800,0.438061767578125,-0.07524900999069213,0.04366214119177311,0.03332286227867007
1761507728891216600,0.458216552734375,-0.21710545835494993,0.035357619509287175,0.03615180209428072
1761507728911372500,0.47837255859375,-0.16750526888370512,0.04345127492006868,-0.01853840399235487
1761507728931527700,0.498527587890625,-0.20037819543778895,-0.0001930383540689945,-0.00018748539611697197
1761507728951683800,0.518683837890625,-0.12282207754850387,0.031363581437058745,0.014922478517517447
1761507728971839700,0.53883984375,-0.026737200278043747,-0.04647880604770034,0.03079743545427918
1761507728991994600,0.55899462890625,-0.05227320807278156,0.00021320435926318166,0.09757949974238872
1761507729012150800,0.57915087890625,0.05836567972898483,-0.03763835085760802,0.06456219628155231
1761507729032305700,0.5993056640625,-0.04399871620237827,0.003407726084254682,0.027795550224557517
1761507729052461600,0.619461669921875,-0.032388357907533645,-0.00664510057028383,0.006393646559864282
1761507729072617700,0.63961767578125,-0.11523264533281326,0.011464483550749718,0.013028554529696703
1761507729092772600,0.659772705078125,0.025547698232531547,-0.05462086717747151,0.017559768218547104
1761507729112928500,0.679928466796875,-0.21564590719640253,-0.011336984713561832,0.10756313361823558
1761507729133083600,0.700083740234375,-0.030195816299319264,-0.022408450358733532,0.05764284534715116
1761507729153239800,0.72023974609375,-0.09397533777058124,-0.053629298856854433,0.07608714131526649
1761507729173395700,0.740395751953125,-0.08068038738965988,-0.015297083983570336,0.09544183012656866
1761507729193550600,0.760550537109375,0.027543255963921546,-0.07744761601351201,0.049298064719513056
1761507729213706800,0.780706787109375,0.008300795355439186,-0.0821157174224034,0.08617452782653272
1761507729233861600,0.800861572265625,0.07508709742724895,-0.031387875628098846,0.11080620719268917
1761507729254017500,0.821017578125,-0.030707272952795028,-0.04701872161068022,0.05588935274332761
1761507729274173700,0.841173583984375,-0.0464636450111866,-0.09044230480622499,-0.00006612403877079486
1761507729294328600,0.86132861328125,-0.13726444439888,-0.09623341889567673,0.040626974746957416
1761507729314484500,0.881484375,-0.23989596683382985,-0.04775806873589754,0.10015987162441015
1761507729334639900,0.901639892578125,-0.1966337482124567,-0.07113985763881354,0.12099858844839036
1761507729354795800,0.921795654296875,-0.20742168420851229,-0.08553129801955074,0.0787828832052648
1761507729374951700,0.94195166015625,-0.0775076025724411,-0.06938183499034493,0.06892557912282646
1761507729395106800,0.96210693359375,-0.058713470253348346,-0.05757489467747509,0.08019158095940947
1761507729415262700,0.9822626953125,0.09970131420195102,-0.051681233529001475,0.04354914580397307
1761507729435417600,1.00241748046875,0.0042728550136089324,0.015609218672662973,0.013086349131539464
1761507729455573800,1.02257373046875,0.15021101973354817,0.04542750689648092,-0.029671280968561767
1761507729475726000,1.04272607421875,0.0016670564293861387,-0.06584602554701269,-0.01604037663154304
1761507729495881000,1.062880859375,0.08565992936789989,-0.005807955626398325,0.04718545647971332
1761507729516037000,1.083037109375,0.021985621836781502,0.011558189716190099,0.09951587463244795
1761507729536192300,1.103192138671875,-0.005533668729662895,0.06828202052228152,0.038583559285849334
1761507729556348200,1.12334814453125,-0.06583996113240718,-0.0508085423476994,0.0024000468790531158
1761507729576504300,1.14350439453125,-0.12789338946342468,0.02083162949606776,0.014311360881850123
1761507729596659200,1.1636591796875,-0.05451426499783992,-0.015347425931319594,-0.003320741920545697
1761507729616815000,1.183815185546875,-0.08215279802978039,-0.04513736484348774,0.03448956797048449
1761507729636970000,1.203969970703125,-0.017635025411844252,-0.03435162080451846,0.069981079525128
1761507729657126100,1.224126220703125,-0.02668517782986164,0.00183671390786767,0.08031140794679523
1761507729677282000,1.244281982421875,-0.03472235381305218,0.022582272555679083,0.07812493075318634
1761507729697437000,1.26443701171875,-0.014513093999028205,-0.004099252012372017,0.02538008658066392
1761507729717593000,1.284593017578125,-0.02198912896811962,0.009643734396994114,0.016988251940906047
1761507729737748200,1.304748291015625,0.008187982630729675,0.02650850608870387,0.001607873588055372
1761507729757904100,1.324904052734375,-0.06392389837801456,0.009880246566608547,0.002003156515955925
1761507729778060300,1.345060302734375,-0.004493219766020774,0.04401274472773075,-0.04384067609645426
1761507729798215200,1.365215087890625,-0.18912907167077064,0.003795592890679836,-0.04698927632048726
1761507729818371000,1.38537109375,-0.09789747965037822,0.057925827006995674,-0.058093657854571934
1761507729838526200,1.405526123046875,-0.13883856184780596,-0.030699966429173945,-0.032595132526010276
1761507729858682000,1.42568212890625,-0.0032668928414583205,0.020195304353907702,0.01046893317475915
1761507729878838000,1.445838134765625,-0.006239771172404289,-0.03021379034742713,0.06457045265324414
1761507729898993200,1.4659931640625,0.07575929760038852,0.0028217794224619864,0.06602554683238268
1761507729919149000,1.486149169921875,-0.059598436394333834,-0.05217003995925188,0.051908831739798184
1761507729939304200,1.50630419921875,-0.0644236645936966,0.01574132061973214,0.035537104262039064
1761507729959460400,1.52646044921875,-0.07497545374631881,-0.0618172084223479,0.011400368805974722
1761507729979615200,1.546615234375,-0.07948504012525082,-0.03340257645137608,0.04394282129667699
1761507729999771100,1.566771240234375,-0.09685878425240516,-0.0012456161469221114,0.08659443373903632
1761507730019927300,1.58692724609375,-0.09197393482029438,-0.05164309347569942,0.07710545151233672
1761507730040082200,1.607082275390625,-0.04846913961470127,-0.057812831619195634,0.020214958902448416
1761507730060238000,1.627238037109375,-0.03774433198273182,-0.013746603138558565,0.028346754366531966
1761507730080393000,1.64739306640625,-0.038001521614193914,-0.04519165231399238,0.02633731424026191
1761507730100549000,1.667549072265625,-0.013108487898111343,-0.044469402454048394,0.08939378213398158
1761507730120705000,1.687705078125,0.02452712301313877,-0.07003668216988444,0.15085640496499836
1761507730140860200,1.707860107421875,0.021140987706184385,-0.06669621263556182,0.14182181544229389
1761507730161016300,1.728016357421875,-0.009046645286679268,-0.04871401775386184,0.08347520573996008
1761507730181171200,1.748171142578125,-0.10102817889153957,-0.04268967943042516,0.03856587749868631
1761507730201327000,1.7683271484375,-0.10591595093309879,-0.05143997211903333,0.026652663799747824
1761507730221483300,1.788483154296875,-0.10314473265409468,-0.024903920436277985,0.032752076653391124
1761507730241638100,1.80863818359375,-0.10110825839042663,-0.06317092458624392,0.032379443948715926
1761507730261794000,1.8287939453125,-0.11164251188635825,-0.0027770269652828573,0.09801898713819682
1761507730281949000,1.848948974609375,-0.12194237210452556,-0.04440298615433275,0.10634214045591651
1761507730302105000,1.86910498046875,-0.11712006651461124,-0.008567921859025955,0.08417268648482859
1761507730322261000,1.889260986328125,-0.03804536075592041,-0.06456106377039104,0.04944273388721049
1761507730342416100,1.909416015625,0.010537760627269745,-0.017343750847689805,0.029357173518091438
1761507730362572300,1.929572265625,-0.007893383598327636,-0.03845817934051156,0.06657821227908134
1761507730382727200,1.94972705078125,-0.004934533792734146,-0.02954513383824378,0.06821940361484885
1761507730402883000,1.969883056640625,-0.037353286838531494,-0.057930503182113166,0.060818333578109736
1761507730423039200,1.990039306640625,-0.135199913084507,0.051816733009554444,0.05412168548367917
1761507730443194000,2.010194091796875,-0.08032850521206855,-0.05908617602325975,-0.00984312942661345
1761507730463351000,2.03035107421875,-0.13792320056855678,-0.010687288633175194,0.03701842886097729
1761507730483506000,2.050505859375,0.0032417584002017974,0.019345847917720673,-0.00535568181425333
1761507730503661800,2.070661865234375,-0.004720598781108856,-0.07258337097801268,-0.014846344541385769
1761507730523818000,2.09081787109375,-0.04455459651947021,0.053184258503094314,0.06638393181599676
1761507730543972900,2.110972900390625,0.06853460704386234,0.005034961959905922,0.010797580607235431
1761507730564128800,2.131128662109375,-0.08335515955686569,-0.03583886368758976,0.0215096748881042
1761507730584284000,2.151283935546875,-0.03833236100375652,-0.025196035250648854,0.04520648455694318
1761507730604440000,2.171440185546875,-0.0419581502854824,0.015192637228406965,0.04413417915031314
1761507730624596000,2.191595947265625,-0.10475801306962966,-0.04679181751962751,0.0835246709048748
1761507730644750800,2.211750732421875,-0.13487374987006187,-0.030303697120584547,0.11655644128248095
1761507730664907000,2.231906982421875,-0.12888473858833313,-0.0040021483134478324,0.08131547042280435
1761507730685062000,2.252061767578125,-0.09335691361129284,0.009720343297161161,0.0646850189436227
1761507730705217800,2.2722177734375,-0.0310351897329092,0.015925737275928258,0.045043768275901674
1761507730725374000,2.2923740234375,-0.002810381245613098,0.021882782516814768,0.07788798019215463
1761507730745528800,2.31252880859375,0.06161912856698036,-0.006347834656760096,0.11438026628717779
1761507730765684700,2.332684814453125,0.02703764452934265,-0.04551021674387157,0.08569295485466719
1761507730785839900,2.35283984375,0.09264145881831645,-0.03269325913824141,-0.00040953064896166323
1761507730805996000,2.37299609375,-0.008372107025980948,-0.06343644365463405,0.015952040760964153
1761507730826152000,2.39315185546875,-0.01508709449470043,-0.09658204967025667,0.04032835712656378
1761507730846306800,2.413306884765625,-0.023221885633468626,-0.08190207467172295,0.09826572844088077
1761507730866463000,2.433462890625,-0.13205810792744158,-0.13809333297107368,0.1353999657012522
1761507730886617900,2.453617919921875,-0.13937515294253824,-0.08434139411523937,0.138272963854298
1761507730906773800,2.473773681640625,-0.1949742905676365,-0.12343586206529289,0.08466689974255859
1761507730926930000,2.493929931640625,-0.12917524596750735,-0.04745678423438221,0.052324134542420506
1761507730947084800,2.514084716796875,-0.21079086838066577,-0.09048844550289213,0.04100121488682926
1761507730967240700,2.53424072265625,-0.12918109118640422,-0.020646555252745745,-0.030722397456690666
1761507730987396000,2.55439599609375,-0.09878478387892245,-0.07238748307973146,-0.0326074805509299
1761507731007552000,2.574552001953125,-0.06537994240522384,-0.01950681063309312,0.04001366515420377
1761507731027708000,2.5947080078125,-0.010858078622817992,-0.006574592617340385,0.06058693597503006
1761507731047863000,2.614863037109375,-0.026892683100700376,0.02729896234665066,0.07326236621811985
1761507731068019000,2.63501904296875,0.010956862822175025,0.05985836597215384,0.03806545369587838
1761507731088173800,2.655173828125,-0.029624738413095472,0.04142309356071055,0.01788870791196823
1761507731108330000,2.675330078125,0.016519173124432563,0.02753923737592995,0.0292570010792464
1761507731128486000,2.69548583984375,-0.003384381741285324,-0.0057211541257798666,0.04157404633872211
1761507731148640800,2.715640869140625,0.008965396744012833,-0.017737097546830772,0.05362644931264221
1761507731168797000,2.735796875,-0.028611761978268622,0.009973185547068714,0.0600525368373841
1761507731188952000,2.7559521484375,-0.09871230316460132,-0.018420294038020073,0.07331636142767965
1761507731209108000,2.77610791015625,-0.038349896660447115,0.015789287947304546,0.07137874442860484
1761507731229264100,2.79626416015625,-0.07804244010150432,-0.0093709088049829,0.04192446721158921
1761507731249419000,2.8164189453125,0.03229308083951473,0.05573394298590719,0.06442220328897237
1761507731269575000,2.836574951171875,0.0013180968612432479,-0.003062821636721492,0.07685118449032306
1761507731289729800,2.856729736328125,0.05375497106313705,-0.05262870697956532,0.038318259413167834
1761507731309886000,2.876885986328125,-0.05755611691176891,-0.06283171922713518,0.01931611036658287
1761507731330041900,2.897041748046875,-0.051422144201397894,0.020576558756455778,0.009325535293295979
1761507731350196700,2.91719677734375,-0.09727379479408263,-0.0110883437147364,0.03079714319333434
1761507731370353000,2.937352783203125,-0.09604220717251301,0.05424092794917523,0.05803177159950137
1761507731390508000,2.957508056640625,-0.07303425655066967,0.012280439576134086,0.07850238576345145
1761507731410664000,2.977663818359375,-0.044244215396046636,0.05808098103608936,0.05484130499511957
1761507731430820000,2.997820068359375,0.03844517372846603,0.05394928805883974,0.0007795330051332712
1761507731450975000,3.01797509765625,0.038705870491266246,0.04583838925231248,0.018835121916607023
1761507731471130000,3.038130126953125,-0.05233633643686771,0.013823248571343719,0.10525390682779252
1761507731491286000,3.0582861328125,-0.05478899028599262,-0.0056882017042487855,0.07207052608504891
1761507731511441000,3.07844091796875,-0.07746259438693523,-0.06486326158735901,0.007928235716000199
1761507731531597000,3.09859716796875,-0.09054945497512817,-0.09732117759976536,-0.0021055939771234987
1761507731551752200,3.118752197265625,-0.04957680859565734,-0.053023514983430504,-0.0281775352794677
1761507731571908000,3.138908203125,-0.11501403414607048,-0.0951524552585557,0.07775149433091283
1761507731592064300,3.159064208984375,-0.15868249548077581,-0.14127802742179482,0.11301387330479919
1761507731612219100,3.17921923828125,-0.12000877369344234,-0.18865498788561672,0.13233560969457028
1761507731632375000,3.199375,-0.12040157240331172,-0.0698419633153826,0.13476013342775403
1761507731652530000,3.219530029296875,-0.2434188802629709,-0.06685728494878858,0.083549001628533
1761507731672686000,3.23968603515625,-0.07896890729665756,-0.030791590235382315,-0.04072261714115739
1761507731692842000,3.259842041015625,-0.0015887304961681365,-0.02259151530805975,-0.07069470768719911
1761507731712996900,3.279996826171875,-0.04808569325506687,0.06645418404061347,-0.019069442129135132
1761507731733153000,3.300153076171875,-0.002951251021027565,0.09077182902153581,-0.05600844907835126
1761507731753308200,3.32030810546875,0.038432898768782614,0.019550868970528244,-0.06175722186341882
1761507731773464000,3.340464111328125,0.07249824997782707,0.007964585671015083,-0.05169460446722805
1761507731793620200,3.3606201171875,0.049663902357220645,0.03211798000093549,-0.033647344992682335
1761507731813775000,3.380775146484375,0.04551671954989433,-0.021248320538178087,-0.020445114396512507
1761507731833931000,3.400930908203125,-0.024213234758377073,-0.09578483487796038,0.03679046532399952
1761507731854086100,3.421086181640625,0.007332827106118202,-0.0574365456527099,0.10670213287472724
1761507731874242000,3.441241943359375,-0.10503858357667922,-0.06247088655810803,0.13900325089022517
1761507731894398000,3.46139794921875,-0.0895154357522726,-0.07403079330734909,0.11993680443577467
1761507731914553000,3.481552978515625,-0.14153613036870955,-0.09235792916920035,0.09357304058000444
1761507731934709000,3.501708984375,-0.13137246375083922,-0.07120554328616709,0.09549034544341266
1761507731954864000,3.521864013671875,-0.19296119717955587,-0.0668000748688355,0.12676920773908495
1761507731975020300,3.542020263671875,-0.17623685687184332,-0.035479163529723884,0.14015475901290775
1761507731995176200,3.56217626953125,-0.14737024334967136,0.0067563789250329135,0.09490845390222966
1761507732015331000,3.5823310546875,-0.08279284949898719,0.024844116540439425,0.08414053778089582
1761507732035487200,3.6024873046875,-0.08962415682375431,0.040662886310555035,0.051922348808497186
1761507732055642000,3.62264208984375,0.09923077408075331,-0.025446356749907133,-0.017225202501937747
1761507732075798000,3.642798095703125,0.017839608073234557,-0.05790697617605328,0.03812894738614559
1761507732095954200,3.6629541015625,0.09679974754154681,-0.014941146685369312,-0.0033287060312926766
1761507732116109000,3.683109130859375,0.09858955356776714,-0.06905380861237645,-0.0378306220266968
1761507732136265000,3.703264892578125,0.037409400939941405,-0.03850311446078122,0.013495587519556283
1761507732156420000,3.723420166015625,0.019201544076204297,-0.06284954714477062,0.018173004746064543
1761507732176576300,3.743576171875,0.014165887996554374,-0.041813554183021184,0.03590126139931381
1761507732196732200,3.763732177734375,-0.020093524479866027,-0.05756393489204347,0.04631466499455273
1761507732216887000,3.783886962890625,-0.0571253242790699,-0.12801011117827146,0.0451816423766315
1761507732237043200,3.804043212890625,-0.11203355703055858,-0.08123186552627011,0.03895750716477632
1761507732257198000,3.824197998046875,-0.12071955231130123,-0.09213555512279271,0.03778546771071851
1761507732277354000,3.84435400390625,-0.10179507161080836,-0.12712291654758154,0.06572722147293389
1761507732297510100,3.86451025390625,-0.1616162108451128,-0.09705036130174993,0.12469547020494937
1761507732317665000,3.8846650390625,-0.20029051715433596,-0.05822283719219267,0.10990699333064258
1761507732337821000,3.904821044921875,-0.14312953703999517,-0.01960917502902448,0.07296447925008832
1761507732357976000,3.92497607421875,-0.17986147710978984,-0.026969018006231634,0.059583019629493354
1761507732378132200,3.94513232421875,-0.04203939882814884,-0.01323120096232742,-0.0011708704102784395
1761507732398288100,3.9652880859375,0.019686697244644166,-0.04535078839845955,0.022502850643917917
1761507732418443000,3.985443115234375,0.08287643612921237,-0.027736330850608646,0.05437982496321201
1761507732438599200,4.00559912109375,0.07181962006390094,-0.03936320188883692,0.09000877222716808
1761507732458753000,4.0257529296875,0.09957447295188904,-0.08441520827012136,0.05647285171970725
1761507732478909200,4.0459091796875,0.03658464055359363,-0.05729501829016953,0.03553198969550431
1761507732499064300,4.066064208984375,-0.02406710428595543,-0.011223587466962635,0.0296066912997514
1761507732519220500,4.086220458984375,-0.0013455693900585174,-0.05884232079740613,-0.003294584565982222
1761507732539376400,4.10637646484375,-0.04319090695083141,-0.08619105883622541,0.0005295037668198347
1761507732559531300,4.12653125,-0.04420037625432014,-0.06749287943858653,0.005679799202084541
1761507732579687400,4.1466875,-0.0518704724907875,-0.09226520938444882,0.026895459579676387
1761507732599842300,4.16684228515625,-0.08313888645768165,-0.09780101527227088,0.05002038764469325
1761507732619998200,4.186998291015625,-0.046693362113833424,-0.10555292630698532,0.032108298857137556
1761507732640154400,4.207154296875,-0.009230769681930541,-0.1338278758126311,0.032888854775577785
1761507732660309200,4.227309326171875,-0.0379237802028656,-0.13119191955216228,0.023527955907955766
1761507732680465200,4.247465087890625,-0.10361176564395427,-0.12508677107747643,0.013777180939912795
1761507732700620300,4.267620361328125,-0.10967910285890102,-0.14235992264067754,0.03162562990672886
1761507732720776200,4.287776123046875,-0.11047639071643352,-0.13952078109146096,0.02439217152185738
1761507732740932400,4.307932373046875,-0.1322808107674122,-0.1329119574109558,0.03964775445125997
1761507732761087200,4.328087158203125,-0.10747837794423103,-0.05396644925619475,0.0677276015099138
1761507732781243400,4.348243408203125,-0.09491992514431476,-0.03893749642320908,0.09216982271857559
1761507732801398300,4.368398193359375,-0.07471592602729797,-0.0568303599204868,0.08163732278831302
1761507732821554200,4.38855419921875,-0.034544074636697765,-0.027535949440300463,0.061198930393531914
1761507732841710300,4.40871044921875,0.0008697685718536376,-0.037131387716159224,0.01920176327191293
1761507732861865200,4.428865234375,-0.0014250643670558928,-0.028227310971636322,0.023094825187698006
1761507732882023400,4.4490234375,0.022343933755159376,0.012292678003199397,0.036230858679860825
1761507732902179300,4.469179443359375,-0.008873626807332039,0.005476823975890875,0.012850421483814715
1761507732922334200,4.489334228515625,-0.08197510337531566,0.012079628907563164,0.06898921894356608
1761507732942490400,4.509490478515625,-0.01522095000743866,-0.023460918553732335,0.06237644974030554
1761507732962645200,4.529645263671875,-0.1354430741906166,-0.014852545953309162,0.10714439674951136
1761507732982801200,4.54980126953125,-0.08574936121702194,-0.02560588556001894,0.0974220441583544
1761507733002957300,4.569957275390625,-0.09901859263479709,-0.05656822011927142,0.10649404308199882
1761507733023112200,4.5901123046875,-0.03694412151575088,-0.04788867284562438,0.09156104317046701
1761507733043268000,4.61026806640625,-0.02784019308388233,-0.035597090820968146,0.08575133397839962
1761507733063423500,4.630423583984375,-0.04755670094490051,-0.03423575760619715,0.06395348979867994
1761507733083579400,4.650579345703125,-0.03924070802032947,-0.07227381183849647,0.08055683407522737
1761507733103735300,4.6707353515625,-0.05618716664612293,-0.000005881751514971256,0.08189180900603532
1761507733123890400,4.690890380859375,-0.021471242573857307,0.0015823007553815841,0.13361907363384962
1761507733144046300,4.71104638671875,-0.06730828011929989,0.03517778769666329,0.11875796991474925
1761507733164201200,4.731201171875,-0.03920271409749985,-0.0185588622584939,0.06194127319343388
1761507733184357000,4.751357177734375,-0.08801496806144714,0.03948668213803321,0.06246968098171055
1761507733204513300,4.77151318359375,-0.08093816154301166,0.006145644881855696,0.045774493703246114
1761507733224668200,4.791668212890625,-0.0667500617146492,-0.03369662749450653,0.00579063916541636
1761507733244824000,4.811823974609375,-0.04136602961122989,-0.0012523746812716126,0.012679887222498654
1761507733264979500,4.8319794921875,-0.042619829064607616,0.01561974006667733,0.04096212498545646
1761507733285135400,4.85213525390625,-0.0534521887242794,-0.02766258976096287,0.04385463155657053
1761507733305291300,4.872291259765625,-0.033140637579560275,-0.04455266029071062,0.07487645035125315
1761507733325446400,4.8924462890625,-0.04573883786797523,-0.019432777282502502,0.12945873908400535
1761507733345602300,4.912602294921875,-0.0653904637992382,-0.04456590336477384,0.10086918893754482
1761507733365757200,4.932757080078125,-0.11399988866746424,-0.05977985737584531,0.09162073746845126
1761507733385913300,4.952913330078125,-0.10228373191058635,-0.03134215505653992,0.045548137601464984
1761507733406069200,4.9730693359375,-0.13713584958314895,-0.020882135840598493,0.044338177289813756
1761507733426224000,4.99322412109375,-0.10461538972854614,-0.003637607583682984,0.07740611495934427
1761507733446380300,5.01338037109375,-0.10891630179286002,-0.03821594981616363,0.09334412719495594
1761507733466536200,5.0335361328125,-0.03295709770619869,0.016937946525774895,0.06412431632094084
1761507733486691300,5.05369140625,-0.03583411444723606,-0.020228950895182788,0.02712020824626088
1761507733506847500,5.073847412109375,-0.014447627547383308,0.0365952350128442,0.02056874077618122
1761507733527002400,5.09400244140625,0.0005032733470201492,0.026262422373145817,0.04206431407369673
1761507733547158300,5.114158203125,-0.0009083470165729522,0.037869419667124746,0.04599208197668195
1761507733567314400,5.134314453125,-0.021900866162776946,-0.015406079049687832,0.05706533772014081
1761507733587469300,5.15446923828125,-0.004181669598817825,-0.00735995257506147,0.0448521912265569
1761507733607625200,5.174625244140625,-0.07877718411684036,-0.020436383100785313,0.03925999724268913
1761507733627780400,5.1947802734375,-0.07789572510719299,-0.019105390225350856,0.02323803305067122
1761507733647936300,5.214936279296875,-0.15170505768358705,0.0025229791389778256,0.022550562243163583
1761507733668092200,5.235092041015625,-0.12722411189973354,0.011746606694068759,0.0008932955779135227
1761507733688247300,5.255247314453125,-0.10563538042604922,0.029824389171041545,0.01347213357873261
1761507733708403500,5.275403564453125,-0.07222878538668155,0.006984378994628787,0.03567176349237561
1761507733728558300,5.295558349609375,-0.010569909331202507,-0.008904003679286688,0.045546310970559716
1761507733748714200,5.31571435546875,-0.0017190788775682448,-0.06207189556946978,0.06858041894696652
1761507733768870400,5.335870361328125,-0.021485271099209783,-0.02321105371220037,0.09609992870911956
1761507733789025300,5.356025390625,-0.0408037195533514,-0.039103802033979444,0.06733977123610675
1761507733809181200,5.37618115234375,-0.06938800900280476,-0.03393624493665993,0.04217025866620242
1761507733829336300,5.39633642578125,-0.0848269856750965,-0.003985306776501238,0.07363711781464517
1761507733849492200,5.4164921875,-0.14739596231281757,-0.010816851563286036,0.10471870397254825
1761507733869648100,5.436648193359375,-0.0893324804008007,-0.0048867308619432144,0.04109846471622586
1761507733889803500,5.456803466796875,-0.03939385275542736,-0.0037723033466376364,0.006456117336824536
1761507733909959400,5.47695947265625,0.05189852954149246,0.004838690469134599,0.026172698263078928
1761507733930114300,5.4971142578125,0.06895370923876762,-0.03282660319432616,0.03901537483185529
1761507733950270500,5.5172705078125,0.04498071297705173,-0.06430758219966665,0.08749437825344503
1761507733970426400,5.53742626953125,0.040057285100221635,-0.09427435724977404,0.07221307636089623
1761507733990581200,5.557581298828125,-0.0382113649725914,-0.09015619960753246,0.07786591449081898
1761507734010737400,5.5777373046875,-0.11433248162269592,-0.08550567038794979,0.07714629497937858
1761507734030892300,5.597892333984375,-0.12916121744215486,-0.08366835369188338,0.054909109534323215
1761507734051048200,5.618048095703125,-0.08953530949652194,-0.03506683813547715,0.05304755344614386
1761507734071204400,5.638204345703125,-0.18036007428169248,-0.04995183418681845,0.10551803765669464
1761507734091359500,5.658359375,-0.1419002875059843,-0.06049112918404862,0.0670328972440213
1761507734111515400,5.678515380859375,-0.12966390626728533,-0.06598183555481955,0.02913169419914484
1761507734131670300,5.698670166015625,-0.080204586571455,-0.025881332367379217,-0.008626447113230825
1761507734151826400,5.718826416015625,-0.039030280140042305,0.0026162286466918884,-0.016486732159554957
1761507734171982300,5.738982421875,0.023155250138044356,0.03020922377016395,-0.02036627700664103
1761507734192137200,5.75913720703125,0.02749941682219505,0.05660033229058608,-0.027741189688816666
1761507734212293400,5.77929345703125,0.050047933238744735,0.02045432061627507,-0.04310184042789042
1761507734232449300,5.79944921875,0.017027122646570206,-0.038242454230599104,-0.06612579233646393
1761507734252604200,5.819604248046875,0.02749824777841568,-0.09153225546739995,-0.05581935624703765
1761507734272760300,5.83976025390625,-0.07779986351728439,-0.09406055010231211,0.05895765427276492
1761507734292915500,5.85991552734375,-0.11976736615300178,-0.10884608610086142,0.09950893343500793
1761507734313071400,5.8800712890625,-0.1560609148055315,-0.12954714801982045,0.06434373122528195
1761507734333227500,5.9002275390625,-0.18118892632126807,-0.07852847005277871,0.07714300704374909
1761507734353382400,5.92038232421875,-0.23287410537302491,-0.09685558764832093,0.11245477811731397
1761507734373538300,5.940538330078125,-0.17390519905388355,-0.10944363186890259,0.07941760091222823
1761507734393693200,5.960693115234375,-0.185030988702178,-0.10388163209389895,0.07805150019079446
1761507734413849300,5.980849365234375,-0.10306056150197983,-0.04517906682705507,0.09444383206516503
1761507734434005200,6.001005126953125,-0.060221536728739734,0.003678578914888203,0.0678187869247049
1761507734454160100,6.02116015625,-0.014412556234002113,0.036996582355350256,0.05258811924085021
1761507734474316300,6.04131640625,0.016253800186514854,0.00919544264022261,0.036538390259072184
1761507734494471400,6.061471435546875,-0.0014735796838998795,0.05736983709204942,0.03138414930105209
1761507734514627300,6.08162744140625,-0.023836802661418913,0.05403908523414284,0.006870762552320957
1761507734534783500,6.101783447265625,0.03433481580018997,0.021287593102641403,-0.04890058983452618
1761507734554938400,6.1219384765625,0.0680915394514799,-0.03362129723597318,-0.06798742148987949
1761507734575094300,6.14209423828125,-0.009675590839982031,0.03252436884474009,-0.06165909525118768
1761507734595249200,6.162249267578125,0.040341947260499,0.02956171964686364,-0.03157842976413667
1761507734615405300,6.1824052734375,0.09390519514381886,-0.01435629600211978,-0.02987754413038492
1761507734635561200,6.202561279296875,0.030454174974560735,-0.012922792600281535,0.052803442491963504
1761507734655716000,6.222716064453125,0.032983401191234586,-0.05454126260261982,0.08937829230390489
1761507734675872300,6.242872314453125,-0.03672200319766998,-0.0398734894985333,0.004052636391669511
1761507734696027400,6.26302734375,-0.053744449669122694,0.01248071138858795,-0.0625206805165857
1761507734716183300,6.283183349609375,-0.07929214790165424,-0.0620349245599471,-0.048774260041117665
1761507734736339500,6.30333935546875,-0.06543138033151626,-0.07329305361732841,-0.02358187805227935
1761507734756494300,6.323494384765625,-0.11400807197391986,-0.05651298280069604,0.009799947872012852
1761507734776650200,6.343650146484375,-0.22033085014224052,0.04646393727213144,0.08375175765901803
1761507734796805400,6.363805419921875,-0.20408347969651222,-0.07644886903343721,0.039652869017794724
1761507734816961300,6.383961181640625,0.014890695139765738,-0.07684455382013693,0.009612681671604513
1761507734837117200,6.4041171875,-0.0759779087871313,-0.04885907051404938,0.07102028637975454
1761507734857272300,6.424272216796875,-0.06547580399513245,-0.10661324901487677,0.06968070833906531
1761507734877428200,6.44442822265625,-0.004516600641608238,-0.084092077262979,0.04275616879537701
1761507734897583400,6.464583251953125,0.013876549661159514,-0.0283618423378095,0.06923216085396706
1761507734917739300,6.4847392578125,0.04517126711308956,-0.039575419867411255,0.0954656493935734
1761507734937895400,6.5048955078125,-0.10107727873027324,-0.03182250418569892,0.07106171436868608
1761507734958050300,6.52505029296875,-0.003805237501859665,-0.03512543645491823,0.003986658483371138
1761507734978206500,6.54520654296875,-0.08040975375473498,-0.04571659863670356,0.07305098848976195
1761507734998362400,6.5653623046875,-0.11697218247652053,-0.09908006789791397,0.06013334698863327
1761507735018517200,6.585517333984375,-0.010958031865954398,-0.09805406758473253,0.044699850209057326
1761507735038673200,6.605673095703125,-0.10770926409065723,-0.13388775277370588,0.06688859340250491
1761507735058828300,6.625828369140625,-0.0746446143567562,-0.07096644643382169,0.08635346459001302
1761507735078984200,6.645984130859375,-0.18941431835293768,-0.08162456377143971,0.1399513453952968
1761507735099140000,6.66614013671875,-0.07269581837654113,-0.144924539831141,0.1155516481541097
1761507735119295200,6.686295166015625,0.030150808113813397,-0.13090596048394218,0.11928389348499477
1761507735139451400,6.706451416015625,0.01919920598864555,-0.10019304324164986,0.11634404064081609
1761507735159606300,6.726606201171875,-0.0376186597764492,-0.10145910852155647,0.08716938408277929
1761507735179762400,6.746762451171875,-0.027962358158826826,-0.11510854402910917,0.008018763543665408
1761507735199918300,6.76691845703125,-0.03267302006781101,-0.05536517817217391,0.0020697920113801954
1761507735220073200,6.7870732421875,-0.059974868491291994,-0.06667742573670112,-0.017745061657577752
1761507735240229400,6.8072294921875,-0.1283288582712412,-0.0637085842600558,-0.005280570751428603
1761507735260384300,6.82738427734375,-0.05112286899387836,-0.07936221746318042,0.01647971789687872
1761507735280540200,6.8475400390625,-0.14519173026680945,-0.06507815558020956,0.04073467290513217
1761507735300696300,6.8676962890625,-0.06343523807823657,-0.05358088400471024,-0.0028237521838396784
1761507735320851200,6.887851318359375,-0.06408873355090618,-0.09520434984257445,0.020683380131796002
1761507735341007400,6.90800732421875,-0.11431436144411564,0.010920206906483508,0.024038754974305628
1761507735361162200,6.928162353515625,0.013445757028460502,-0.08183143885461613,0.012612228813767433
1761507735381318400,6.948318359375,0.019619477227330206,-0.0055469666026532645,0.03198671830408275
1761507735401474300,6.968474365234375,0.06576689589619636,-0.028758431306807324,0.03199738582856953
1761507735421629200,6.988629150390625,0.06206394972503185,-0.02562148042137269,0.023145313265919683
1761507735441785300,7.008785400390625,-0.06302782632112502,-0.0025308930173749103,0.06309015096761286
1761507735461940200,7.028940185546875,-0.11943594224154948,0.02753794046798721,0.037559476935118435
1761507735482097200,7.04909716796875,-0.1472550925374031,0.0033318569696042686,0.049261751297116275
1761507735502253300,7.06925341796875,-0.15234920080602168,0.02481951182214543,0.03580854161456227
1761507735522408200,7.089408203125,-0.15622341189086436,0.004796819522208534,0.013094313242286442
1761507735542564000,7.109564208984375,-0.13208207332491875,-0.021272774559422395,0.02565466573834419
1761507735562719200,7.12971923828125,-0.045432548397779465,0.0016787560003343968,0.03278619811870157
1761507735582875100,7.149875244140625,-0.03129471745193004,0.029822964398935434,0.04514737478084862
1761507735603031000,7.170031005859375,0.039029111096262926,0.014514043847098946,0.033772286546602845
1761507735623186200,7.190186279296875,0.05585632725656032,0.025539186132512985,0.03926438115686178
1761507735643342300,7.21034228515625,0.0960901379674673,-0.05559806904601864,0.050452203190699214
1761507735663497200,7.230497314453125,0.09143792824745178,-0.03573696508253924,0.0511434003252536
1761507735683653000,7.250653076171875,0.015252514189481734,0.012697240216098724,0.0631033027101308
1761507735703809300,7.270809326171875,-0.11322773525118827,0.016906450842390768,0.07404423731081188
1761507735723964200,7.290964111328125,0.017542670953273772,0.040982838979922234,0.025850261375680566
1761507735744120000,7.3111201171875,-0.17882395075559615,-0.09696041799597442,0.02638071499057114
1761507735764276200,7.331276123046875,-0.13944354200363157,-0.04695368898387532,0.09201222100406885
1761507735784431000,7.35143115234375,-0.17348317424952983,-0.03555931609384715,0.1282460022933781
1761507735804587000,7.3715869140625,-0.1344675071567297,-0.06605700141657143,0.10447291251793503
1761507735824742100,7.3917421875,-0.15548516074419022,-0.029497522703697904,0.08478300040289759
1761507735844898300,7.411898193359375,-0.05132336000204086,-0.06383760376747231,0.07762414162419735
1761507735865054200,7.43205419921875,-0.020571663385629654,-0.10051802827916108,0.09547909339703618
1761507735885209000,7.452208984375,0.019169395372271535,-0.09173165963017381,0.11584105955474078
1761507735905365200,7.472365234375,-0.012943068203330039,-0.0524228000107687,0.11238470855578779
1761507735925520100,7.49252001953125,-0.0339238969117403,-0.03865409463825635,0.06790317727252841
1761507735945676000,7.512676025390625,-0.06495733307898044,-0.05390090973931364,0.007903685796633362
1761507735965832200,7.532832275390625,-0.05951017358899116,-0.015106420249678194,-0.03118161246627569
1761507735985987000,7.552987060546875,-0.08229951302409172,-0.0015848489054944366,0.006587269435822963
1761507736006143000,7.57314306640625,-0.050427872467041016,-0.059900606811838224,0.030165348095819354
1761507736026298400,7.59329833984375,-0.04247019146084785,-0.05226308853756636,0.04062704781219363
1761507736046454300,7.613454345703125,-0.07071078203916549,-0.04158973709819838,0.0661526803433895
1761507736066610200,7.633610107421875,-0.10045359387397766,-0.06933263468691148,0.031479499434307216
1761507736086765300,7.653765380859375,-0.0804091692328453,-0.07164616319313645,0.03204699712395668
1761507736106921200,7.673921142578125,-0.05331541060209274,-0.07659887196337804,0.05287234300971031
1761507736127076000,7.694076171875,-0.0746446143567562,-0.039025786628015334,0.09486636832617222
1761507736147232300,7.714232177734375,-0.04354688078165054,-0.052555367748718704,0.09213906225413084
1761507736167388200,7.73438818359375,-0.05892506717741489,-0.03300427958248183,0.04415310304649174
1761507736187543000,7.75454296875,-0.08717501010596751,0.0025142113106325268,0.01917692109160125
1761507736207699200,7.77469921875,-0.07341419577896595,-0.021555340660735965,0.013873261725530028
1761507736227854300,7.794854248046875,-0.024137831434607505,-0.02385048412689939,0.02304733278416097
1761507736248010200,7.81501025390625,-0.02285655945241451,-0.02433309827838093,0.0724511229004711
1761507736268166400,7.83516650390625,0.021681670454144476,-0.013990038239303976,0.08828509023971855
1761507736288321300,7.8553212890625,0.036188919234275814,-0.03415319388927892,0.06641447308473289
1761507736308477200,7.875477294921875,0.003236497703194618,-0.030967312128469347,0.08719502998068929
1761507736328633300,7.89563330078125,0.11661445508003235,-0.06363496190141886,0.0940898309957236
1761507736348788200,7.915788330078125,0.07262684479355812,-0.036779140212386846,0.08090973916612565
1761507736368944000,7.935944091796875,-0.06609305911064148,0.013093765253014861,0.08256868535429239
1761507736389099000,7.95609912109375,-0.09738368490934371,-0.03816092256014235,-0.008860182803869247
1761507736409255200,7.976255126953125,-0.14688333661556244,-0.043437492989888415,0.007396393861621618
1761507736429411000,7.9964111328125,-0.20587620833218095,-0.01943473177757114,0.033750951497629286
1761507736449564200,8.016564208984375,-0.1314648182094097,-0.02677442701589316,0.041950405370444054
1761507736469719800,8.0367197265625,-0.10986088916659355,-0.048198862172802906,0.0029955285541713238
1761507736489875000,8.056875,-0.04058218575716018,-0.0573138599879574,0.004549553063139319
1761507736510030800,8.07703076171875,-0.03793839325010776,-0.03759460304742679,0.059629708315432066
1761507736530186000,8.09718603515625,0.007243979778885841,-0.036025527099799365,0.06059592299908399
1761507736550342000,8.117341796875,-0.023838556227087974,-0.042877621484268456,0.03097030780315399
1761507736570497800,8.137497802734375,-0.02768763287067413,-0.06483655624352395,0.016445011909678578
1761507736590652700,8.157652587890626,-0.05367313799858093,-0.04820318215489387,0.019213965166360137
1761507736610808800,8.177808837890625,-0.03698445352613926,-0.024908797540795058,0.03716908937804401
1761507736630963700,8.197963623046874,-0.09244681302905082,-0.017637820157129315,0.05668802884034812
1761507736651119600,8.21811962890625,-0.06857026287913322,-0.038513964648358524,0.028594372452050446
1761507736671275800,8.23827587890625,-0.08906827650666237,-0.03231677224235609,0.060197863592207426
1761507736691431000,8.258430908203126,-0.0761263773471117,-0.045082730313111094,0.05222615406066179
1761507736711586800,8.2785869140625,-0.044968438017368315,-0.02331182893924415,0.035270854541286825
1761507736731742000,8.298741943359374,-0.060386371901631354,-0.07306890773894265,0.04856543959602713
1761507736751897900,8.31889794921875,-0.07185995207428932,-0.022869053607806562,0.05018186181671917
1761507736772053800,8.3390537109375,-0.14683832843005656,-0.02456153673939407,0.08218721175603567
1761507736792209000,8.359208984375,-0.005309212324023246,-0.05925234463671222,0.06408939113803208
1761507736812364800,8.37936474609375,0.024911153894662856,-0.039649690680019556,0.054182037368789314
1761507736832520700,8.399520751953125,-0.021103578305244446,-0.0510390814342536,0.05619600753970444
1761507736852675800,8.41967578125,-0.042733226311206816,-0.051534098409581924,0.048205520242452615
1761507736872831700,8.439831787109375,-0.02534019296169281,-0.05320016845827922,0.0485935697119683
1761507736892987000,8.45998681640625,-0.033494273322820664,-0.03784731743317097,0.06863207606896758
1761507736913143000,8.48014306640625,-0.05136193844676017,-0.03384147932529449,0.06115735627412796
1761507736933299000,8.500298828125,-0.0450824197858572,-0.035404125532135365,0.04950915018692612
1761507736953453800,8.520453857421876,-0.05631693050563335,-0.035413368284516036,0.06178805539309978
1761507736973610000,8.54060986328125,-0.050528410232067104,-0.03501326305102557,0.03874415667504072
1761507736993764900,8.560764892578124,-0.07522738268077372,-0.02469190338710323,0.016255846013128756
1761507737013920800,8.580920654296875,-0.11232757154107093,-0.02385386339407414,0.0423381625790149
1761507737034077000,8.601076904296875,-0.12264321385025978,-0.04490684402324259,0.032014921485260125
1761507737054231800,8.621231689453126,-0.09302548969984054,-0.008782843251340091,0.027772534675151107
1761507737074387700,8.6413876953125,-0.0427905094563961,-0.04888610465144738,0.01142075400687754
1761507737094542800,8.66154296875,-0.04254267217516899,-0.02593063313551247,0.01866195730678737
1761507737114699000,8.681698974609375,-0.014426000237464903,-0.033888094945997,0.06782938138395547
1761507737134855000,8.70185498046875,-0.011973930910229682,-0.053022510336432606,0.08130056511461735
1761507737155009800,8.722009765625,0.013770166677236555,-0.021090024703927335,0.051007060594484205
1761507737175166000,8.742166015625,-0.0309393281430006,-0.015620580316893756,0.016496230640262365
1761507737195320800,8.76232080078125,-0.06475625754892826,-0.015363262821268289,-0.02863105120062828
1761507737215476700,8.782476806640625,-0.08394552666544913,-0.028810207159817216,-0.019201544076204297
1761507737235633000,8.8026328125,-0.10308920307457446,-0.0034942170576192436,0.023344416034594178
1761507737255787800,8.822787841796876,-0.08161562241315841,-0.01541780602009967,0.032837416849285365
1761507737275943700,8.842943603515625,-0.05599895059764385,-0.007216470717452466,0.02055478531606495
1761507737296098800,8.863098876953124,-0.017409399962425232,0.0010641586327925323,0.015303440659120678
1761507737316255000,8.8832548828125,-0.06117839906215668,-0.015251929667592048,0.011877192537486552
1761507737336411000,8.903410888671875,-0.02931026563644409,-0.011228190576843917,0.021071941057965157
1761507737356565800,8.923565673828126,-0.007635024923086166,-0.014910788079723715,0.042659357357397676
1761507737376722000,8.943721923828125,-0.03401917397975921,-0.024587767159193752,0.05048391350321471
1761507737396876800,8.963876708984374,-0.03604395780563354,-0.019872282944619655,0.034352278391644356
1761507737417032700,8.98403271484375,-0.08483692254722118,-0.01079217377975583,0.021641484574228525
1761507737437188900,9.00418896484375,-0.09710720605552196,0.02736957989744842,0.02391279050707817
1761507737457343700,9.02434375,-0.10052607458829879,0.01249886809978634,-0.010039090390130878
1761507737477499100,9.0444990234375,-0.10274141255021095,0.006736176387220621,0.008830883644148706
1761507737497655000,9.064655029296874,-0.048428807604312896,-0.005458046210184693,0.010305340110883117
1761507737517810200,9.08481005859375,0.0017453823626041411,-0.006421886273659766,0.014194383438676595
1761507737537966000,9.104966064453125,0.015844050341844558,0.013574388376809656,-0.001567030121013522
1761507737558121000,9.125120849609376,-0.018202596166729926,0.0033369624029844997,-0.004902019762620329
1761507737578277000,9.145277099609375,-0.03804594527781009,0.015483035009726882,-0.004533405645936728
1761507737598433000,9.16543310546875,-0.07611117977797985,0.02651822376511991,0.015888547070696948
1761507737618588000,9.185587890625,-0.11684358766078948,-0.05592584882881492,-0.02166881097257137
1761507737638744000,9.205744140625,-0.09745032040476799,-0.0031533859970048067,-0.014210384725406765
1761507737658899000,9.22589892578125,-0.11926467732787131,-0.0152880604268983,0.05613580178506672
1761507737679054800,9.246054931640625,-0.08283727316260338,-0.053610301895439624,0.06058949325829744
1761507737699211000,9.2662109375,-0.0761830759704113,-0.04601780093982816,0.05766162311285734
1761507737719366100,9.2863662109375,-0.022526889106631278,-0.055424548243172465,0.04432268745973706
1761507737739522000,9.30652197265625,0.00008592471778392792,-0.05292608249094337,0.08947853780798613
1761507737759677000,9.326677001953126,0.06942191127240657,-0.07933496413007378,0.09666245796270669
1761507737779833000,9.3468330078125,0.06278817234635353,-0.08335263880621642,0.10400324917957186
1761507737799989000,9.366989013671875,-0.04987140762805938,-0.06255728619992733,0.06678695965893566
1761507737820143900,9.387143798828125,-0.1089829372882843,-0.0683048534085974,0.020536519007012248
1761507737840300000,9.407300048828125,-0.15264321531653402,-0.06220755944680422,0.02057663182169199
1761507737860455000,9.427454833984376,-0.15410510456264018,-0.028398922945186495,0.05635645879842341
1761507737880610800,9.44761083984375,-0.13337094409167766,-0.031030842351354657,0.09186236420460045
1761507737900767000,9.46776708984375,-0.0957458545744419,-0.022444325389713048,0.08356492985002696
1761507737920922000,9.487922119140626,-0.026128712990880012,-0.02527067138943821,0.06027604339495301
1761507737941078000,9.508078125,0.03907411928176879,-0.05114427710808813,0.03704312491081655
1761507737961234200,9.528234130859374,0.05775836148560047,-0.05844393259696662,0.013448022050783038
1761507737981389000,9.54838916015625,0.02400046879053116,-0.027586912442557513,0.0019437544789165258
1761507738001545000,9.568544921875,-0.031250293788313864,-0.006444317301176488,0.00006327449455857277
1761507738021700000,9.5887001953125,-0.06323182446062564,-0.007163681084290147,0.007070376777648925
1761507738041856000,9.60885595703125,-0.04609598074257373,-0.022683942831866442,0.005752645242586732
1761507738062012000,9.629011962890624,-0.08073299435973166,-0.020405403440631926,0.03801043557301163
1761507738082167000,9.6491669921875,-0.056495794203877445,-0.019668759729154408,0.027209201703965662
1761507738102323000,9.669322998046875,-0.08380933306515216,-0.04377053346969187,0.027779475872591136
1761507738122478000,9.68947802734375,-0.1057540383696556,-0.033131321761943396,0.05058890824764967
1761507738142634000,9.709634033203125,-0.05202595531344414,-0.021722586986422536,0.05810089131295681
1761507738162790100,9.7297900390625,-0.013396072667837142,-0.0481345373654738,0.05755246364995837
1761507738182945000,9.749945068359375,-0.008730418944358826,-0.04921634125281125,0.06291610957495868
1761507738203101000,9.770100830078125,-0.029840426990389822,-0.039908670409768816,0.05946392329446971
1761507738223256000,9.790256103515626,-0.024998247656226158,-0.05372337034847587,0.04831606794483959
1761507738243412000,9.810411865234375,-0.06744505824148654,-0.054000908648222684,0.08907587529122829
1761507738263568000,9.83056787109375,-0.06551379791796207,-0.08176032811347395,0.11314634057804941
1761507738283723000,9.850722900390625,-0.00568681346476078,-0.03328318785540759,0.0755424399793148
1761507738303879000,9.87087890625,-0.07349836693108082,-0.03140157535988837,0.031383199452981354
1761507738324034000,9.891033935546876,-0.12653671415746212,-0.008982786270231007,0.029426950818672776
1761507738344190200,9.911190185546875,-0.10024141242802143,-0.0003317527050152421,-0.029374928370490667
1761507738364346000,9.93134619140625,-0.10236381140947341,0.004349317783303558,-0.05887370231635868
1761507738384501000,9.9515009765625,-0.05541325966417789,-0.027520898001641033,-0.029582433641329405
1761507738404657200,9.9716572265625,-0.02487082188427448,-0.041835510286502536,0.053235111907497044
1761507738424812000,9.99181201171875,0.028188568130135535,-0.02832348308879882,0.12348112597912549
1761507738444968000,10.011968017578125,0.022567221117019653,-0.04447820681501179,0.12210896084308624
1761507738465124000,10.0321240234375,0.0031938276052474973,-0.07403744224384427,0.070472516303882
1761507738485279700,10.05227978515625,-0.03250526228547096,-0.03913739377632737,0.043429391881823536
1761507738505436000,10.072435791015625,-0.07249532736837863,-0.04917356155700981,0.03940912338979542
1761507738525591800,10.092591796875,-0.10895488023757934,-0.02821191247310489,0.04823394261933863
1761507738545746700,10.11274658203125,-0.07573533220291137,-0.034187187490426,0.03735460201278329
1761507738565902800,10.13290283203125,-0.06709551415145397,-0.01913432405889034,0.04053345124460757
1761507738586058000,10.15305810546875,-0.061221069160103794,-0.024724362618289888,0.035508170428499575
1761507738606214000,10.1732138671875,-0.0431651879876852,-0.025110293195955456,0.004333426094427705
1761507738626370000,10.1933701171875,-0.02659574598073959,-0.02271795469932258,0.0004301350455731153
1761507738646525000,10.21352490234375,-0.029046061742305753,-0.0187613990932703,0.03908829393759369
1761507738666680800,10.233680908203125,-0.05208265393674373,-0.004142579697445034,0.034281916569173336
1761507738686836000,10.2538359375,-0.05090542685091495,-0.032237806988321245,0.018535627513378856
1761507738706991900,10.273991943359375,-0.04189560644328594,-0.025952479641139507,0.029165085012093184
1761507738727147800,10.294147705078124,-0.07050035415887833,-0.01988601920902729,0.02016132901906967
1761507738747303000,10.314302978515625,-0.07668518027365208,-0.01564776058476418,0.00712232616059482
1761507738767458800,10.334458740234375,-0.045807226929068565,-0.018690818075090647,0.006653539605066179
1761507738787614000,10.354614013671876,-0.029003391644358632,-0.017483013187907636,0.023371450171992183
1761507738807770000,10.37477001953125,-0.005361819294095039,-0.012122582133300601,0.03301430778615176
1761507738827926000,10.394926025390625,-0.05271101496815681,-0.016474895591288802,0.03998210097216069
1761507738848081000,10.415080810546876,-0.08983867635726928,-0.049220067579858,0.013065525539219379
1761507738868237000,10.435237060546875,-0.0881301188737154,-0.03988660470843315,0.0549083788819611
1761507738888392000,10.455391845703126,-0.06593406915664672,-0.03388016736786812,0.08201689669042825
1761507738908547800,10.4755478515625,-0.07515665553212166,-0.007136720012128353,0.07843202394098044
1761507738928704000,10.4957041015625,-0.09560907645225525,-0.02497504944372922,0.028672479189559816
1761507738948859000,10.51585888671875,-0.09520750991404056,-0.013905593092553317,0.0029043431393802163
1761507738969014800,10.536014892578125,-0.06135317110717296,0.011367379851825534,0.019095599483698607
1761507738989170000,10.556169921875,-0.01751052224934101,0.04355930187180638,0.03267755011245608
1761507739009326000,10.576326171875,-0.02467968322634697,-0.01897628395296633,-0.0001239186406135559
1761507739029482000,10.59648193359375,0.017776479709148404,-0.0027618659287691116,-0.026664281172305345
1761507739049636900,10.616636962890626,0.006032850423455238,-0.017866349949687717,0.022497078490257262
1761507739069793000,10.63679296875,-0.030969138759374615,-0.01606635132301599,0.011007643161341547
1761507739089948000,10.656947998046874,-0.11590543002784251,-0.016723865383677185,0.04001432274132967
1761507739110103800,10.677103759765625,0.008541033852100371,0.0437957044435665,0.05551357823349535
1761507739130260000,10.697260009765625,-0.13776245704889298,-0.038454562611319125,0.003162263423204422
1761507739150414800,10.717414794921876,-0.16915595870018005,0.0025304683256894347,0.02126826734766364
1761507739170570800,10.73757080078125,-0.04539046282172203,0.01754226909447461,0.008079626885429025
1761507739190727000,10.757726806640624,0.2229407403796911,0.03897939020302146,-0.04049136566855013
