time,seconds_elapsed,z,y,x
1761507728508260600,0.075260498046875,0.03826430067420006,0.020419755950570107,-0.01922648586332798
1761507728528415700,0.095415771484375,0.07523483783006668,0.015362783335149288,-0.036927781999111176
1761507728548571600,0.115571533203125,0.10095537453889847,0.04537228122353554,-0.008563971146941185
1761507728568727800,0.135727783203125,0.11359206587076187,0.04975821450352669,0.0005358802154660225
1761507728588882700,0.155882568359375,0.11452551186084747,0.04429081454873085,0.007635254412889481
1761507728609038600,0.17603857421875,0.11241095513105392,0.016408516094088554,0.02383667603135109
1761507728629193700,0.19619384765625,0.10998084396123886,0.010833917185664177,0.06401767581701279
1761507728649349600,0.216349609375,0.09596407413482666,-0.005271931178867817,0.09720733016729355
1761507728669505500,0.236505615234375,0.07011411339044571,-0.006881495472043753,0.11824610829353333
1761507728689660700,0.25666064453125,0.060649748891592026,-0.020273728296160698,0.1142096072435379
1761507728709816600,0.276816650390625,0.05119261518120766,0.0052884723991155624,0.12079720199108124
1761507728729971700,0.2969716796875,0.052671462297439575,0.0027262605726718903,0.06647628545761108
1761507728750127900,0.3171279296875,0.06396646797657013,-0.0024418048560619354,0.0016053251456469297
1761507728770283800,0.33728369140625,0.08804889768362045,-0.02225785329937935,-0.08478442579507828
1761507728790438700,0.357438720703125,0.0854584351181984,-0.0028758039698004723,-0.09413490444421768
1761507728810594800,0.3775947265625,0.0719735249876976,0.02868739515542984,-0.07789268344640732
1761507728830749700,0.397749755859375,0.0639781504869461,0.06868994235992432,-0.060031335800886154
1761507728850905600,0.417905517578125,0.06075920909643173,0.05264725536108017,-0.07584196329116821
1761507728871061800,0.438061767578125,0.06369774043560028,0.037759747356176376,-0.06900788843631744
1761507728891216600,0.458216552734375,0.05919485166668892,0.00030532851815223694,-0.07147065550088882
1761507728911372500,0.47837255859375,0.045189302414655685,0.008279112167656422,-0.013537528924643993
1761507728931527700,0.498527587890625,0.030303848907351494,-0.005202638916671276,0.01681136153638363
1761507728951683800,0.518683837890625,0.025071274489164352,-0.003165747970342636,0.04785150662064552
1761507728971839700,0.53883984375,0.019221093505620956,-0.017497332766652107,0.030282825231552124
1761507728991994600,0.55899462890625,0.04018469899892807,-0.04398037865757942,-0.011326686479151249
1761507729012150800,0.57915087890625,0.04218178987503052,-0.0371255986392498,-0.04187396541237831
1761507729032305700,0.5993056640625,0.04304813593626022,-0.017145277932286263,-0.030813133344054222
1761507729052461600,0.619461669921875,0.025829214602708817,-0.005386226810514927,-0.018245568498969078
1761507729072617700,0.63961767578125,0.016856724396348,-0.00267578661441803,-0.010740297846496105
1761507729092772600,0.659772705078125,0.0009044199250638485,-0.005151440389454365,-0.010904768481850624
1761507729112928500,0.679928466796875,0.007927961647510529,-0.03910785913467407,-0.024196945130825043
1761507729133083600,0.700083740234375,0.004306326154619455,0.0004393644630908966,0.029251132160425186
1761507729153239800,0.72023974609375,0.0011507344897836447,-0.006163010839372873,0.028040887787938118
1761507729173395700,0.740395751953125,0.018441857770085335,-0.011197785846889019,0.018876174464821815
1761507729193550600,0.760550537109375,0.015077497810125351,-0.017629455775022507,-0.006278607062995434
1761507729213706800,0.780706787109375,0.02845614217221737,-0.04748997464776039,-0.0733908861875534
1761507729233861600,0.800861572265625,0.030457492917776108,-0.06812606006860733,-0.14051035046577454
1761507729254017500,0.821017578125,0.02943778969347477,-0.09049595892429352,-0.1586693823337555
1761507729274173700,0.841173583984375,0.02931234799325466,-0.04016810283064842,-0.09825228154659271
1761507729294328600,0.86132861328125,0.011645486578345299,0.000215957872569561,-0.023009449243545532
1761507729314484500,0.881484375,0.009397211484611034,-0.0019921930506825447,0.029799655079841614
1761507729334639900,0.901639892578125,0.007107698358595371,-0.012672469019889832,0.0976468026638031
1761507729354795800,0.921795654296875,0.0026463826652616262,-0.017303574830293655,0.16059736907482147
1761507729374951700,0.94195166015625,0.006061590276658535,-0.015134800225496292,0.18794870376586914
1761507729395106800,0.96210693359375,0.02248796820640564,-0.03628349304199219,0.1675901710987091
1761507729415262700,0.9822626953125,0.025884825736284256,-0.038419269025325775,0.13725546002388
1761507729435417600,1.00241748046875,0.03530631586909294,-0.04033727943897247,0.08475223928689957
1761507729455573800,1.02257373046875,0.04072079062461853,0.0012797517701983452,0.10166414082050323
1761507729475726000,1.04272607421875,0.029051361605525017,0.015411946922540665,0.066757932305336
1761507729495881000,1.062880859375,0.04097672551870346,0.008913340978324413,0.020997649058699608
1761507729516037000,1.083037109375,0.04316902905702591,-0.02169019915163517,-0.05231127515435219
1761507729536192300,1.103192138671875,0.040787357836961746,0.0008893469348549843,-0.051534879952669144
1761507729556348200,1.12334814453125,0.015276441350579262,0.01547282189130783,-0.03432393819093704
1761507729576504300,1.14350439453125,0.007337266579270363,0.016145210713148117,-0.009680505841970444
1761507729596659200,1.1636591796875,0.0034282749984413385,0.022251691669225693,0.019547468051314354
1761507729616815000,1.183815185546875,0.006406226195394993,0.004184381105005741,0.01683923602104187
1761507729636970000,1.203969970703125,0.010610565543174744,0.0046803271397948265,0.00845898687839508
1761507729657126100,1.224126220703125,0.016354724764823914,0.00772289652377367,0.0010438584722578526
1761507729677282000,1.244281982421875,0.013085701502859592,0.01619679480791092,0.004144197329878807
1761507729697437000,1.26443701171875,-0.0039020825643092394,0.032266709953546524,0.0006835812237113714
1761507729717593000,1.284593017578125,-0.01668763905763626,0.029080595821142197,-0.016807707026600838
1761507729737748200,1.304748291015625,-0.021549776196479797,0.03334398567676544,-0.03562232479453087
1761507729757904100,1.324904052734375,-0.027994364500045776,0.02366054803133011,-0.05365882068872452
1761507729778060300,1.345060302734375,-0.03496250510215759,0.03792477771639824,-0.029696783050894737
1761507729798215200,1.365215087890625,-0.041049182415008545,0.013566712848842144,-0.026888424530625343
1761507729818371000,1.38537109375,-0.05540253967046738,0.01913432776927948,0.018235966563224792
1761507729838526200,1.405526123046875,-0.06419311463832855,0.01001496147364378,0.03394476696848869
1761507729858682000,1.42568212890625,-0.05868356302380562,0.02145049162209034,0.040320344269275665
1761507729878838000,1.445838134765625,-0.044734444469213486,0.00727351289242506,-0.009062563069164753
1761507729898993200,1.4659931640625,-0.03156300261616707,0.008641461841762066,-0.035323988646268845
1761507729919149000,1.486149169921875,-0.018369175493717194,-0.006778878625482321,-0.058738432824611664
1761507729939304200,1.50630419921875,-0.0083564892411232,0.00991571880877018,-0.045537661761045456
1761507729959460400,1.52646044921875,-0.01159730739891529,0.026617413386702538,-0.007496073376387358
1761507729979615200,1.546615234375,-0.009339462965726852,0.02195746824145317,-0.0013113438617438078
1761507729999771100,1.566771240234375,-0.00039548578206449747,-0.009815896861255169,-0.0229681134223938
1761507730019927300,1.58692724609375,-0.002690340392291546,-0.020122582092881203,-0.023077456280589104
1761507730040082200,1.607082275390625,-0.021221676841378212,-0.004522929899394512,-0.000489621888846159
1761507730060238000,1.627238037109375,-0.03387593850493431,0.0073827821761369705,0.032083574682474136
1761507730080393000,1.64739306640625,-0.055181778967380524,0.013175799511373043,0.04352343827486038
1761507730100549000,1.667549072265625,-0.04585190862417221,0.014198344200849533,0.021405627951025963
1761507730120705000,1.687705078125,-0.021862423047423363,0.017199315130710602,-0.013997320085763931
1761507730140860200,1.707860107421875,0.0016727300826460123,0.01857031136751175,-0.04919099435210228
1761507730161016300,1.728016357421875,0.011805262416601181,0.012303771451115608,-0.07101457566022873
1761507730181171200,1.748171142578125,0.020059436559677124,0.014273795299232006,-0.06560668349266052
1761507730201327000,1.7683271484375,0.019136929884552956,0.023180868476629257,-0.03614029288291931
1761507730221483300,1.788483154296875,0.02196813002228737,0.03677011653780937,-0.0015263098757714033
1761507730241638100,1.80863818359375,0.016634110361337662,0.01936737820506096,0.0031495955772697926
1761507730261794000,1.8287939453125,0.02513250708580017,-0.0038097742944955826,0.004436677321791649
1761507730281949000,1.848948974609375,0.03421283885836601,-0.014442024752497673,0.013526853173971176
1761507730302105000,1.86910498046875,0.04381190985441208,-0.007144078146666288,0.019683105871081352
1761507730322261000,1.889260986328125,0.03686664253473282,-0.003055926412343979,0.03106047585606575
1761507730342416100,1.909416015625,0.03178348019719124,0.007966124452650547,0.03456882759928703
1761507730362572300,1.929572265625,0.036056000739336014,-0.005163620226085186,0.004420899786055088
1761507730382727200,1.94972705078125,0.05017102137207985,0.006387840956449509,0.0023087465669959784
1761507730402883000,1.969883056640625,0.04524947330355644,0.00019488763064146042,-0.0174566600471735
1761507730423039200,1.990039306640625,0.048412539064884186,0.0047231633216142654,-0.003679185174405575
1761507730443194000,2.010194091796875,0.03806029632687569,0.015451377257704735,0.025272652506828308
1761507730463351000,2.03035107421875,0.035258665680885315,-0.014778010547161102,0.02306889370083809
1761507730483506000,2.050505859375,0.03000025451183319,0.010356453247368336,0.05177780240774155
1761507730503661800,2.070661865234375,0.013832995668053627,0.0029370468109846115,0.02499205991625786
1761507730523818000,2.09081787109375,0.02187200076878071,-0.01814698427915573,-0.023668760433793068
1761507730543972900,2.110972900390625,0.013000762090086937,-0.004932182841002941,-0.027857087552547455
1761507730564128800,2.131128662109375,0.004752147011458874,-0.0015214961022138596,-0.035623833537101746
1761507730584284000,2.151283935546875,-0.0006895138649269938,-0.001169196330010891,-0.021819831803441048
1761507730604440000,2.171440185546875,0.002919613616541028,0.007303289137780666,-0.0070197246968746185
1761507730624596000,2.191595947265625,0.020039724186062813,-0.010121932253241539,-0.007207219488918781
1761507730644750800,2.211750732421875,0.034185394644737244,-0.035881441086530685,-0.00858975574374199
1761507730664907000,2.231906982421875,0.0398494154214859,-0.037283755838871,0.0138731449842453
1761507730685062000,2.252061767578125,0.04485216736793518,-0.029352489858865738,0.04573727026581764
1761507730705217800,2.2722177734375,0.04535151645541191,-0.012208140455186367,0.05353063344955444
1761507730725374000,2.2923740234375,0.05075638368725777,-0.008514982648193836,0.027633793652057648
1761507730745528800,2.31252880859375,0.05619005113840103,-0.015464612282812595,-0.026654202491044998
1761507730765684700,2.332684814453125,0.04875662177801132,-0.004667037166655064,-0.06107782572507858
1761507730785839900,2.35283984375,0.024304814636707306,0.02272128127515316,-0.062100011855363846
1761507730805996000,2.37299609375,0.007182799279689789,0.020937424153089523,-0.0715816393494606
1761507730826152000,2.39315185546875,-0.01048220694065094,0.01712140440940857,-0.07625185698270798
1761507730846306800,2.413306884765625,-0.0023784961085766554,0.028098836541175842,-0.06907276809215546
1761507730866463000,2.433462890625,0.0018860527779906988,0.014318985864520073,-0.06549810618162155
1761507730886617900,2.453617919921875,0.014495862647891045,0.008977960795164108,-0.03872654587030411
1761507730906773800,2.473773681640625,0.01930657960474491,0.008089600130915642,-0.008809950202703476
1761507730926930000,2.493929931640625,0.030507037416100502,0.02541745826601982,0.03549306467175484
1761507730947084800,2.514084716796875,0.03278830647468567,-0.0009011263027787209,0.040133826434612274
1761507730967240700,2.53424072265625,0.03207538276910782,-0.008257163688540459,0.06992416828870773
1761507730987396000,2.55439599609375,0.020718587562441826,-0.014959526248276234,0.09936659038066864
1761507731007552000,2.574552001953125,0.014904648065567017,-0.03612470626831055,0.09285745769739151
1761507731027708000,2.5947080078125,0.006854437291622162,-0.05587420240044594,0.07053227722644806
1761507731047863000,2.614863037109375,0.002405348001047969,-0.052079327404499054,0.0531768836081028
1761507731068019000,2.63501904296875,0.0025765958707779646,-0.039961881935596466,0.044767070561647415
1761507731088173800,2.655173828125,0.004203270189464092,-0.0335545688867569,0.024556931108236313
1761507731108330000,2.675330078125,0.004018436186015606,-0.02328852191567421,0.012679644860327244
1761507731128486000,2.69548583984375,0.003267701482400298,-0.014421622268855572,-0.001789188478142023
1761507731148640800,2.715640869140625,-0.005196373909711838,-0.015975546091794968,-0.009454871527850628
1761507731168797000,2.735796875,-0.017645036801695824,-0.010961869731545448,-0.011606115847826004
1761507731188952000,2.7559521484375,-0.01764184981584549,-0.013754937797784805,-0.011495999060571194
1761507731209108000,2.77610791015625,-0.0179305300116539,0.00443949643522501,0.01415039598941803
1761507731229264100,2.79626416015625,-0.016626913100481033,0.011661764234304428,0.015228193253278732
1761507731249419000,2.8164189453125,-0.004717529751360416,0.035785142332315445,0.014361415058374405
1761507731269575000,2.836574951171875,-0.004186758305877447,0.02107478491961956,-0.04182760417461395
1761507731289729800,2.856729736328125,0.00764858815819025,0.01745765656232834,-0.06438794732093811
1761507731309886000,2.876885986328125,-0.002768897218629718,0.010874282568693161,-0.07171937823295593
1761507731330041900,2.897041748046875,-0.011179709807038307,0.02057350054383278,-0.04464653506875038
1761507731350196700,2.91719677734375,-0.024437708780169487,0.022106468677520752,-0.03265158832073212
1761507731370353000,2.937352783203125,-0.022342871874570847,0.024909913539886475,-0.018098128959536552
1761507731390508000,2.957508056640625,-0.019619768485426903,0.03170477971434593,-0.015000096522271633
1761507731410664000,2.977663818359375,-0.015106765553355217,0.04230824485421181,-0.022651270031929016
1761507731430820000,2.997820068359375,-0.022773761302232742,0.06669752299785614,-0.03397415950894356
1761507731450975000,3.01797509765625,-0.025257956236600876,0.07117904722690582,-0.05898738279938698
1761507731471130000,3.038130126953125,-0.002696995623409748,0.03805356100201607,-0.10192196816205978
1761507731491286000,3.0582861328125,0.02908436954021454,0.037446584552526474,-0.11508625745773315
1761507731511441000,3.07844091796875,0.05037953704595566,0.03458505868911743,-0.1133517250418663
1761507731531597000,3.09859716796875,0.06596461683511734,0.00011002644896507263,-0.10813374817371368
1761507731551752200,3.118752197265625,0.06641284376382828,-0.0018076663836836815,-0.07880161702632904
1761507731571908000,3.138908203125,0.08638683706521988,-0.012680585496127605,-0.054412610828876495
1761507731592064300,3.159064208984375,0.10757201164960861,-0.028099941089749336,-0.03878861293196678
1761507731612219100,3.17921923828125,0.12746740877628326,-0.040167875587940216,-0.021844875067472458
1761507731632375000,3.199375,0.15023131668567657,-0.06129766255617142,-0.0043766675516963005
1761507731652530000,3.219530029296875,0.1505064070224762,-0.05324023962020874,0.030088325962424278
1761507731672686000,3.23968603515625,0.13366031646728516,-0.03394991531968117,0.09043224900960922
1761507731692842000,3.259842041015625,0.11083517968654633,-0.01321483962237835,0.11420179903507233
1761507731712996900,3.279996826171875,0.10227631032466888,-0.025435592979192734,0.07728984206914902
1761507731733153000,3.300153076171875,0.08101949840784073,-0.03603745251893997,0.03426670655608177
1761507731753308200,3.32030810546875,0.05122671648859978,-0.0267341248691082,0.0022426610812544823
1761507731773464000,3.340464111328125,0.021337253972887993,-0.018665838986635208,-0.024386724457144737
1761507731793620200,3.3606201171875,-0.0018514370312914252,-0.023909572511911392,-0.05057602375745773
1761507731813775000,3.380775146484375,-0.020813126116991043,-0.019218791276216507,-0.060546357184648514
1761507731833931000,3.400930908203125,-0.03287619352340698,-0.029232367873191833,-0.09091447293758392
1761507731854086100,3.421086181640625,-0.030923277139663696,-0.025070570409297943,-0.10002170503139496
1761507731874242000,3.441241943359375,-0.021495705470442772,-0.026515450328588486,-0.0920489951968193
1761507731894398000,3.46139794921875,-0.020749475806951523,-0.006573834922164679,-0.062098179012537
1761507731914553000,3.481552978515625,-0.005669074133038521,-0.013950841501355171,-0.060852162539958954
1761507731934709000,3.501708984375,0.007837144657969475,-0.025811679661273956,-0.054342564195394516
1761507731954864000,3.521864013671875,0.029489198699593544,-0.042974960058927536,-0.037619300186634064
1761507731975020300,3.542020263671875,0.045079853385686874,-0.05229593813419342,0.002911968855187297
1761507731995176200,3.56217626953125,0.0454830601811409,-0.04024644196033478,0.056587617844343185
1761507732015331000,3.5823310546875,0.05013507232069969,-0.041433148086071014,0.0964687243103981
1761507732035487200,3.6024873046875,0.05563317984342575,-0.05000923573970795,0.08842233568429947
1761507732055642000,3.62264208984375,0.04533817619085312,-0.044602397829294205,0.06400176882743835
1761507732075798000,3.642798095703125,0.04297730326652527,-0.052293386310338974,0.020858487114310265
1761507732095954200,3.6629541015625,0.028387969359755516,-0.05364656448364258,0.001481689978390932
1761507732116109000,3.683109130859375,0.01226357463747263,-0.011477387510240078,-0.02182096242904663
1761507732136265000,3.703264892578125,0.001401637913659215,0.006183796562254429,-0.04112881422042847
1761507732156420000,3.723420166015625,-0.012385827489197254,0.02321554161608219,-0.06798842549324036
1761507732176576300,3.743576171875,-0.023079752922058105,0.032799314707517624,-0.09447485208511353
1761507732196732200,3.763732177734375,-0.030944056808948517,0.033758942037820816,-0.1031058058142662
1761507732216887000,3.783886962890625,-0.03750528395175934,0.026842016726732254,-0.1078936979174614
1761507732237043200,3.804043212890625,-0.04759335517883301,0.013809231109917164,-0.08890905976295471
1761507732257198000,3.824197998046875,-0.06556089967489243,0.01682315580546856,-0.057403698563575745
1761507732277354000,3.84435400390625,-0.0683063268661499,0.01641712337732315,-0.03475842624902725
1761507732297510100,3.86451025390625,-0.05152710899710655,-0.015578113496303558,-0.028376542031764984
1761507732317665000,3.8846650390625,-0.046534471213817596,-0.022808797657489777,-0.013308457098901272
1761507732337821000,3.904821044921875,-0.034122008830308914,-0.01711360178887844,0.03342486172914505
1761507732357976000,3.92497607421875,-0.019067971035838127,-0.020498940721154213,0.055654510855674744
1761507732378132200,3.94513232421875,-0.010746665298938751,-0.01369063463062048,0.07599367946386337
1761507732398288100,3.9652880859375,-0.0029313466511666775,-0.0033953217789530754,0.058899037539958954
1761507732418443000,3.985443115234375,0.020339099690318108,-0.008265846408903599,0.01702466420829296
1761507732438599200,4.00559912109375,0.04601969197392464,-0.024678828194737434,-0.043776605278253555
1761507732458753000,4.0257529296875,0.048159822821617126,-0.01675400882959366,-0.08312446624040604
1761507732478909200,4.0459091796875,0.054743412882089615,-0.0036468198522925377,-0.09940366446971893
1761507732499064300,4.066064208984375,0.04703167825937271,0.0040063755586743355,-0.09623292088508606
1761507732519220500,4.086220458984375,0.02869795449078083,0.031883224844932556,-0.08214573562145233
1761507732539376400,4.10637646484375,0.012490760535001755,0.037942782044410706,-0.07700644433498383
1761507732559531300,4.12653125,0.0011310381814837456,0.040538888424634933,-0.07002297043800354
1761507732579687400,4.1466875,-0.007067221216857433,0.03490813449025154,-0.06807270646095276
1761507732599842300,4.16684228515625,-0.020088758319616318,0.03207356110215187,-0.05791020020842552
1761507732619998200,4.186998291015625,-0.03868294507265091,0.04126880317926407,-0.049377214163541794
1761507732640154400,4.207154296875,-0.04819200560450554,0.0501842200756073,-0.04548587277531624
1761507732660309200,4.227309326171875,-0.045349106192588806,0.03782021254301071,-0.048276983201503754
1761507732680465200,4.247465087890625,-0.04086381196975708,0.007519709877669811,-0.05815868824720383
1761507732700620300,4.267620361328125,-0.022032326087355614,-0.02161543443799019,-0.05893053859472275
1761507732720776200,4.287776123046875,-0.019396083429455757,-0.01910068653523922,-0.03133190795779228
1761507732740932400,4.307932373046875,-0.014031412079930305,-0.010159430094063282,0.000256628030911088
1761507732761087200,4.328087158203125,-0.0065175555646419525,-0.005688690580427647,0.025702686980366707
1761507732781243400,4.348243408203125,0.0029904635157436132,-0.013916833326220512,0.03395021706819534
1761507732801398300,4.368398193359375,0.007780158892273903,-0.019869796931743622,0.02833281084895134
1761507732821554200,4.38855419921875,0.01240873709321022,-0.007186160888522863,0.022804273292422295
1761507732841710300,4.40871044921875,0.007299467921257019,0.00042148958891630173,0.019826246425509453
1761507732861865200,4.428865234375,-0.001801618025638163,-0.0073919580318033695,0.0018677519401535392
1761507732882023400,4.4490234375,-0.004511380568146706,-0.014868677593767643,-0.017682310193777084
1761507732902179300,4.469179443359375,-0.013656675815582275,-0.002076183445751667,-0.02331329882144928
1761507732922334200,4.489334228515625,-0.017049552872776985,-0.0034295059740543365,-0.028477292507886887
1761507732942490400,4.509490478515625,-0.022725816816091537,-0.0008671572431921959,-0.020657135173678398
1761507732962645200,4.529645263671875,-0.008853928185999393,-0.012200312688946724,-0.015545705333352089
1761507732982801200,4.54980126953125,-0.004516982473433018,-0.019970398396253586,0.007980852387845516
1761507733002957300,4.569957275390625,0.0025414531119167805,-0.011254164390265942,0.027924031019210815
1761507733023112200,4.5901123046875,0.011532822623848915,0.001510697416961193,0.03694141283631325
1761507733043268000,4.61026806640625,0.021296238526701927,-0.007508896291255951,0.02082129940390587
1761507733063423500,4.630423583984375,0.020899701863527298,-0.014496286399662495,0.014437839388847351
1761507733083579400,4.650579345703125,0.002592578763142228,-0.008476512506604195,0.015094614587724209
1761507733103735300,4.6707353515625,-0.010804163292050362,0.014045528136193752,0.028819942846894264
1761507733123890400,4.690890380859375,-0.01302044652402401,0.006994809024035931,0.020290104672312737
1761507733144046300,4.71104638671875,-0.01811615377664566,0.009905142709612846,0.014093154110014439
1761507733164201200,4.731201171875,-0.0288833100348711,0.023699931800365448,0.008649071678519249
1761507733184357000,4.751357177734375,-0.02869209460914135,0.02164309099316597,-0.004820429719984531
1761507733204513300,4.77151318359375,-0.024743691086769104,0.00226699560880661,-0.015307691879570484
1761507733224668200,4.791668212890625,-0.028610359877347946,0.0013596611097455025,-0.018334051594138145
1761507733244824000,4.811823974609375,-0.03439392149448395,-0.0035858331248164177,-0.019671281799674034
1761507733264979500,4.8319794921875,-0.041633449494838715,-0.0030578654259443283,-0.012662801891565323
1761507733285135400,4.85213525390625,-0.054334890097379684,0.013236667029559612,0.010826963931322098
1761507733305291300,4.872291259765625,-0.05564141646027565,0.026048224419355392,0.019549623131752014
1761507733325446400,4.8924462890625,-0.038834720849990845,0.016516271978616714,-0.0015618253964930773
1761507733345602300,4.912602294921875,-0.02465127408504486,0.00039862655103206635,-0.024228280410170555
1761507733365757200,4.932757080078125,-0.012148811481893063,-0.01660197786986828,-0.025144480168819427
1761507733385913300,4.952913330078125,-0.004979036748409271,0.004551027901470661,0.013868238776922226
1761507733406069200,4.9730693359375,-0.0027331970632076263,0.011301768943667412,0.04568642005324364
1761507733426224000,4.99322412109375,0.0063322181813418865,0.009321637451648712,0.05848027020692825
1761507733446380300,5.01338037109375,0.0055697401985526085,-0.0014201514422893524,0.05063430592417717
1761507733466536200,5.0335361328125,-0.0006388998590409756,-0.00135845597833395,0.053041715174913406
1761507733486691300,5.05369140625,-0.020166274160146713,0.0029397550970315933,0.04591818526387215
1761507733506847500,5.073847412109375,-0.037209950387477875,0.013061626814305782,0.04267013818025589
1761507733527002400,5.09400244140625,-0.053078122437000275,0.031598009169101715,0.03198915347456932
1761507733547158300,5.114158203125,-0.051262129098176956,0.04221599921584129,0.012603511102497578
1761507733567314400,5.134314453125,-0.04557786509394646,0.03447975218296051,-0.008964058943092823
1761507733587469300,5.15446923828125,-0.04522155970335007,0.03330538421869278,-0.021370572969317436
1761507733607625200,5.174625244140625,-0.03888670355081558,0.0195736326277256,-0.03330284729599953
1761507733627780400,5.1947802734375,-0.0432305634021759,0.007255869917571545,-0.023947956040501595
1761507733647936300,5.214936279296875,-0.03297099471092224,-0.001391388475894928,-0.01377264503389597
1761507733668092200,5.235092041015625,-0.03710528090596199,-0.0008256686851382256,0.028455952182412148
1761507733688247300,5.255247314453125,-0.04160415753722191,0.00786285288631916,0.05249842256307602
1761507733708403500,5.275403564453125,-0.037279464304447174,0.0003063911572098732,0.04728709161281586
1761507733728558300,5.295558349609375,-0.026210561394691467,0.003986986353993416,0.027428634464740753
1761507733748714200,5.31571435546875,-0.012769064866006374,-0.011728312820196152,-0.006333743687719107
1761507733768870400,5.335870361328125,0.00028123194351792336,-0.02981731668114662,-0.036464594304561615
1761507733789025300,5.356025390625,-0.0012218646006658673,-0.03158217668533325,-0.03783521056175232
1761507733809181200,5.37618115234375,-0.0018242895603179932,-0.030256692320108414,-0.019989140331745148
1761507733829336300,5.39633642578125,-0.005062944255769253,-0.007437081076204777,0.008333914913237095
1761507733849492200,5.4164921875,0.00263999798335135,-0.002694247290492058,0.028045358136296272
1761507733869648100,5.436648193359375,-0.0022000290919095278,0.0055601391941308975,0.04554096236824989
1761507733889803500,5.456803466796875,-0.019569944590330124,0.019693445414304733,0.05475780740380287
1761507733909959400,5.47695947265625,-0.03442908078432083,0.028918515890836716,0.04035218805074692
1761507733930114300,5.4971142578125,-0.03282079100608826,0.04260136932134628,0.0003322537522763014
1761507733950270500,5.5172705078125,-0.024350890889763832,0.027139659970998764,-0.052651092410087585
1761507733970426400,5.53742626953125,-0.006492253392934799,0.008914406411349773,-0.08849368989467621
1761507733990581200,5.557581298828125,0.012925922870635986,0.005810864269733429,-0.10345486551523209
1761507734010737400,5.5777373046875,0.026218827813863754,0.004592652432620525,-0.08505670726299286
1761507734030892300,5.597892333984375,0.025433989241719246,0.031205520033836365,-0.043599218130111694
1761507734051048200,5.618048095703125,0.030714772641658783,0.05766801908612251,0.005275112576782703
1761507734071204400,5.638204345703125,0.054714385420084,0.030450165271759033,0.013400385156273842
1761507734091359500,5.658359375,0.0731450542807579,0.012209600768983364,0.02394089475274086
1761507734111515400,5.678515380859375,0.07799947261810303,-0.017068328335881233,0.026962168514728546
1761507734131670300,5.698670166015625,0.07522977888584137,-0.017607497051358223,0.03612189367413521
1761507734151826400,5.718826416015625,0.06304367631673813,0.0010821297764778137,0.053306084126234055
1761507734171982300,5.738982421875,0.04982108622789383,0.01396277453750372,0.046634066849946976
1761507734192137200,5.75913720703125,0.03324344754219055,0.013898618519306183,0.014124232344329357
1761507734212293400,5.77929345703125,0.021269861608743668,0.010143737308681011,-0.023935090750455856
1761507734232449300,5.79944921875,0.013156287372112274,0.013040812686085701,-0.050722673535346985
1761507734252604200,5.819604248046875,-0.0009571238188073039,0.02480408549308777,-0.0633435770869255
1761507734272760300,5.83976025390625,0.000993366353213787,-0.010543422773480415,-0.08408945053815842
1761507734292915500,5.85991552734375,0.0010935035534203053,-0.028133414685726166,-0.07284535467624664
1761507734313071400,5.8800712890625,-0.016134772449731827,-0.01137954369187355,-0.026379290968179703
1761507734333227500,5.9002275390625,-0.01566336490213871,0.012187851592898369,0.028703514486551285
1761507734353382400,5.92038232421875,-0.011203937232494354,-0.021756576374173164,0.049776557832956314
1761507734373538300,5.940538330078125,-0.00217152526602149,-0.04509403929114342,0.07091116905212402
1761507734393693200,5.960693115234375,0.009434527717530727,-0.054594479501247406,0.0970621332526207
1761507734413849300,5.980849365234375,0.023331694304943085,-0.03757557272911072,0.1328979879617691
1761507734434005200,6.001005126953125,0.030970679596066475,-0.01911769062280655,0.15375514328479767
1761507734454160100,6.02116015625,0.036984656006097794,-0.026877613738179207,0.13904911279678345
1761507734474316300,6.04131640625,0.03259124234318733,-0.02857101336121559,0.10455924272537231
1761507734494471400,6.061471435546875,0.03588609769940376,-0.0395786389708519,0.06253653764724731
1761507734514627300,6.08162744140625,0.024039575830101967,-0.04116497188806534,0.03588813915848732
1761507734534783500,6.101783447265625,-0.013281981460750103,-0.03498305007815361,0.017642315477132797
1761507734554938400,6.1219384765625,-0.030982952564954758,-0.021989285945892334,0.013970164582133293
1761507734575094300,6.14209423828125,-0.06610976904630661,-0.026114843785762787,0.002548270160332322
1761507734595249200,6.162249267578125,-0.10586223006248474,-0.004548000171780586,-0.0030942081939429045
1761507734615405300,6.1824052734375,-0.12673209607601166,0.03131530433893204,-0.016067806631326675
1761507734635561200,6.202561279296875,-0.12466815859079361,0.017752356827259064,-0.0841003805398941
1761507734655716000,6.222716064453125,-0.11052650958299637,-0.006010254379361868,-0.1340864896774292
1761507734675872300,6.242872314453125,-0.11653780937194824,-0.002041064202785492,-0.14308759570121765
1761507734696027400,6.26302734375,-0.1286168098449707,0.0035955654457211494,-0.13054350018501282
1761507734716183300,6.283183349609375,-0.12715131044387817,-0.005526700522750616,-0.12239812314510345
1761507734736339500,6.30333935546875,-0.11384906619787216,-0.002513378858566284,-0.10264259576797485
1761507734756494300,6.323494384765625,-0.11563895642757416,0.0005155075341463089,-0.08262816816568375
1761507734776650200,6.343650146484375,-0.11167192459106445,-0.047388311475515366,-0.07425612956285477
1761507734796805400,6.363805419921875,-0.10821114480495453,-0.06084167957305908,-0.06454192847013474
1761507734816961300,6.383961181640625,-0.0979185700416565,-0.021296881139278412,-0.023480651900172234
1761507734837117200,6.4041171875,-0.1002965047955513,-0.040109530091285706,-0.023692671209573746
1761507734857272300,6.424272216796875,-0.08337823301553726,-0.050031378865242004,-0.031332843005657196
1761507734877428200,6.44442822265625,-0.07696963846683502,-0.028373653069138527,-0.017361432313919067
1761507734897583400,6.464583251953125,-0.06918146461248398,-0.011285459622740746,-0.024898864328861237
1761507734917739300,6.4847392578125,-0.04899042844772339,0.006214115768671036,-0.049701280891895294
1761507734937895400,6.5048955078125,-0.06585332751274109,-0.031614694744348526,-0.07656306773424149
1761507734958050300,6.52505029296875,-0.060269732028245926,0.0077884625643491745,-0.06615827232599258
1761507734978206500,6.54520654296875,-0.049585919827222824,0.025893334299325943,-0.05933992937207222
1761507734998362400,6.5653623046875,-0.053216591477394104,0.012906890362501144,-0.06480391323566437
1761507735018517200,6.585517333984375,-0.029806088656187057,0.017306996509432793,-0.04187227040529251
1761507735038673200,6.605673095703125,-0.022709570825099945,-0.013955528847873211,-0.0383160263299942
1761507735058828300,6.625828369140625,-0.010670214891433716,0.0075362855568528175,-0.0003703043330460787
1761507735078984200,6.645984130859375,0.017342783510684967,-0.014309599064290524,0.004206507466733456
1761507735099140000,6.66614013671875,0.04320073127746582,-0.009955154731869698,0.0028932138811796904
1761507735119295200,6.686295166015625,0.06148599460721016,-0.00010711699724197388,-0.008960168808698654
1761507735139451400,6.706451416015625,0.08846087753772736,0.008060386404395103,-0.02969762310385704
1761507735159606300,6.726606201171875,0.09924084693193436,-0.005710784811526537,-0.059422798454761505
1761507735179762400,6.746762451171875,0.09241914749145508,-0.008001499809324741,-0.06775619834661484
1761507735199918300,6.76691845703125,0.08155106008052826,-0.0031792502850294113,-0.05047636479139328
1761507735220073200,6.7870732421875,0.07085660099983215,0.018420174717903137,-0.027464739978313446
1761507735240229400,6.8072294921875,0.06346578896045685,0.007704266346991062,-0.017608599737286568
1761507735260384300,6.82738427734375,0.06490148603916168,0.01410501729696989,0.0010473690927028656
1761507735280540200,6.8475400390625,0.06577370315790176,-0.006360105238854885,0.007604684680700302
1761507735300696300,6.8676962890625,0.06529805809259415,0.017580833286046982,0.037083983421325684
1761507735320851200,6.887851318359375,0.056387096643447876,-0.003588426858186722,0.03881889954209328
1761507735341007400,6.90800732421875,0.06480138003826141,0.0052149128168821335,0.04819343984127045
1761507735361162200,6.928162353515625,0.05403952673077583,0.01627429388463497,0.057074256241321564
1761507735381318400,6.948318359375,0.04870497062802315,0.012445234693586826,0.021483467891812325
1761507735401474300,6.968474365234375,0.04889325052499771,0.004881752654910088,-0.023424288257956505
1761507735421629200,6.988629150390625,0.042931489646434784,0.007322513498365879,-0.05542180687189102
1761507735441785300,7.008785400390625,0.037511687725782394,-0.011827543377876282,-0.0705719143152237
1761507735461940200,7.028940185546875,0.028326181694865227,-0.009499488398432732,-0.03975917771458626
1761507735482097200,7.04909716796875,0.0278952494263649,0.0005094073712825775,0.007919535972177982
1761507735502253300,7.06925341796875,0.028131775557994843,0.008921396918594837,0.05016078054904938
1761507735522408200,7.089408203125,0.017981411889195442,-0.001834062859416008,0.07386999577283859
1761507735542564000,7.109564208984375,0.006070415489375591,-0.026858173310756683,0.07863263785839081
1761507735562719200,7.12971923828125,0.0030794262420386076,-0.02429010346531868,0.07922827452421188
1761507735582875100,7.149875244140625,-0.0063758837059140205,-0.012189717963337898,0.07225219160318375
1761507735603031000,7.170031005859375,-0.011236418038606644,-0.0029366053640842438,0.046883437782526016
1761507735623186200,7.190186279296875,-0.00888272188603878,0.003124416805803776,0.01009567640721798
1761507735643342300,7.21034228515625,-0.012677722610533237,0.00027227774262428284,-0.035884130746126175
1761507735663497200,7.230497314453125,-0.015646055340766907,0.01085741724818945,-0.07714325934648514
1761507735683653000,7.250653076171875,-0.025696570053696632,0.01596793532371521,-0.09656471759080887
1761507735703809300,7.270809326171875,-0.03903261199593544,0.030356381088495255,-0.09040192514657974
1761507735723964200,7.290964111328125,-0.04843437299132347,0.07156164944171906,-0.027928944677114487
1761507735744120000,7.3111201171875,-0.05239182338118553,0.06563746929168701,-0.017280658707022667
1761507735764276200,7.331276123046875,-0.04585935175418854,0.03173233941197395,-0.014493724331259727
1761507735784431000,7.35143115234375,-0.04345189034938812,-0.014546867460012436,-0.022775137796998024
1761507735804587000,7.3715869140625,-0.0391540490090847,0.0016526281833648682,0.011719301342964172
1761507735824742100,7.3917421875,-0.0471310131251812,0.013140625320374966,0.05164165422320366
1761507735844898300,7.411898193359375,-0.0434982031583786,0.02985357493162155,0.0733979269862175
1761507735865054200,7.43205419921875,-0.026545321568846703,0.01634325459599495,0.06141163408756256
1761507735885209000,7.452208984375,-0.008967137895524502,0.006271008402109146,0.03143390640616417
1761507735905365200,7.472365234375,-0.000021563260816037655,0.0026301294565200806,-0.008235982619225979
1761507735925520100,7.49252001953125,0.0013084071688354015,0.0023485440760850906,-0.028277955949306488
1761507735945676000,7.512676025390625,-0.01680932752788067,0.0030230525881052017,-0.016394108533859253
1761507735965832200,7.532832275390625,-0.03548181802034378,0.013874940574169159,0.009043622761964798
1761507735985987000,7.552987060546875,-0.041341036558151245,0.01238022930920124,0.021407129243016243
1761507736006143000,7.57314306640625,-0.04207073524594307,0.006326233968138695,0.012701112776994705
1761507736026298400,7.59329833984375,-0.04487134516239166,-0.003704233095049858,-0.0015540714375674725
1761507736046454300,7.613454345703125,-0.03867441788315773,-0.02371910586953163,-0.009092689491808414
1761507736066610200,7.633610107421875,-0.0387287475168705,-0.012453893199563026,0.017086200416088104
1761507736086765300,7.653765380859375,-0.03658651188015938,0.004158427938818932,0.05642388015985489
1761507736106921200,7.673921142578125,-0.022322066128253937,0.003973331302404404,0.06799818575382233
1761507736127076000,7.694076171875,-0.007998025044798851,-0.03017478808760643,0.03539417311549187
1761507736147232300,7.714232177734375,0.004510034807026386,-0.02927786484360695,0.025446033105254173
1761507736167388200,7.73438818359375,0.0037982158828526735,-0.027910485863685608,0.03068387322127819
1761507736187543000,7.75454296875,-0.00020134623628109694,-0.024091077968478203,0.047735683619976044
1761507736207699200,7.77469921875,-0.00966140627861023,-0.018067466095089912,0.06436523050069809
1761507736227854300,7.794854248046875,-0.013801287859678268,-0.013252590782940388,0.06941454112529755
1761507736248010200,7.81501025390625,-0.009693107567727566,-0.017956050112843513,0.04524175450205803
1761507736268166400,7.83516650390625,-0.00587385892868042,-0.018869344145059586,0.020581800490617752
1761507736288321300,7.8553212890625,0.00035101710818707943,-0.0025626616552472115,0.005958601366728544
1761507736308477200,7.875477294921875,0.013493429869413376,-0.0016875825822353363,-0.023573152720928192
1761507736328633300,7.89563330078125,0.03853008896112442,0.045385971665382385,-0.05657070875167847
1761507736348788200,7.915788330078125,0.042771149426698685,0.01763225346803665,-0.09125357866287231
1761507736368944000,7.935944091796875,0.04187021777033806,0.00009889062494039536,-0.10824792087078094
1761507736389099000,7.95609912109375,0.03126045688986778,0.03734082728624344,-0.052282221615314484
1761507736409255200,7.976255126953125,0.02695971541106701,0.06363535672426224,-0.0012416425161063671
1761507736429411000,7.9964111328125,0.02027810923755169,0.022199014201760292,0.012564200907945633
1761507736449564200,8.016564208984375,0.017437869682908058,0.0008049933239817619,0.017376461997628212
1761507736469719800,8.0367197265625,0.00007298612035810947,0.0018482096493244171,0.036311399191617966
1761507736489875000,8.056875,-0.012975718826055527,0.00239365641027689,0.04530351981520653
1761507736510030800,8.07703076171875,-0.010518152266740799,-0.008853219449520111,0.02832583710551262
1761507736530186000,8.09718603515625,-0.011224429123103619,-0.014581703580915928,0.010618309490382671
1761507736550342000,8.117341796875,-0.013290508650243282,-0.011555020697414875,-0.0030351844616234303
1761507736570497800,8.137497802734375,-0.01726580038666725,-0.01136896200478077,-0.0011175873223692179
1761507736590652700,8.157652587890626,-0.017509769648313522,-0.004306213930249214,0.0009307225700467825
1761507736610808800,8.177808837890625,-0.015901461243629456,-0.007492771837860346,-0.002640398684889078
1761507736630963700,8.197963623046874,-0.012555204331874847,-0.014758205972611904,-0.004863791633397341
1761507736651119600,8.21811962890625,-0.017305485904216766,-0.0060171387158334255,0.014123231172561646
1761507736671275800,8.23827587890625,-0.014968820847570896,-0.004370521754026413,0.023180795833468437
1761507736691431000,8.258430908203126,-0.018016275018453598,-0.010469733737409115,0.022470248863101006
1761507736711586800,8.2785869140625,-0.02189144492149353,-0.020822610706090927,0.022520113736391068
1761507736731742000,8.298741943359374,-0.027530431747436523,-0.024828216060996056,0.02061767876148224
1761507736751897900,8.31889794921875,-0.028887033462524414,-0.001933729276061058,0.046872276812791824
1761507736772053800,8.3390537109375,-0.02938290871679783,-0.006181140895932913,0.04197144880890846
1761507736792209000,8.359208984375,-0.02732083573937416,-0.006702103652060032,0.029086202383041382
1761507736812364800,8.37936474609375,-0.026288582012057304,-0.003715359605848789,0.01206599734723568
1761507736832520700,8.399520751953125,-0.027230819687247276,0.0023355595767498016,0.0065811434760689735
1761507736852675800,8.41967578125,-0.03144979849457741,0.007849595509469509,0.0036963908933103085
1761507736872831700,8.439831787109375,-0.02714240923523903,0.009510582312941551,0.00533220125362277
1761507736892987000,8.45998681640625,-0.0248720645904541,0.010903948917984962,-0.0009185043163597584
1761507736913143000,8.48014306640625,-0.02654745802283287,0.009034102782607079,-0.0019374454859644175
1761507736933299000,8.500298828125,-0.022401975467801094,0.010062948800623417,0.0010047338437289
1761507736953453800,8.520453857421876,-0.016189878806471825,0.007160618901252747,-0.011549520306289196
1761507736973610000,8.54060986328125,-0.011299533769488335,0.002817380242049694,-0.009164934046566486
1761507736993764900,8.560764892578124,-0.008644354529678822,0.0006527882069349289,-0.0010192198678851128
1761507737013920800,8.580920654296875,-0.0014753795694559813,-0.007828490808606148,0.010666287504136562
1761507737034077000,8.601076904296875,-0.0006122707854956388,-0.007194160483777523,0.02878354676067829
1761507737054231800,8.621231689453126,-0.002376851160079241,-0.0074048773385584354,0.04499455541372299
1761507737074387700,8.6413876953125,-0.011273151263594627,0.003068712539970875,0.06761375814676285
1761507737094542800,8.66154296875,-0.02135455049574375,0.006905608810484409,0.06169358640909195
1761507737114699000,8.681698974609375,-0.01688789576292038,-0.0014436682686209679,0.04129776358604431
1761507737134855000,8.70185498046875,-0.008374826982617378,-0.0028009098023176193,0.01475495845079422
1761507737155009800,8.722009765625,-0.0028429320082068443,0.00700599979609251,-0.003579219803214073
1761507737175166000,8.742166015625,-0.002893779193982482,0.005422333255410194,-0.015431624837219715
1761507737195320800,8.76232080078125,-0.013324327766895294,-0.0002617407590150833,-0.01267188135534525
1761507737215476700,8.782476806640625,-0.023315977305173874,0.012828042730689049,0.011700069531798363
1761507737235633000,8.8026328125,-0.028512069955468178,0.010658817365765572,0.03260798379778862
1761507737255787800,8.822787841796876,-0.026946382597088814,0.002729530446231365,0.035662952810525894
1761507737275943700,8.842943603515625,-0.026584751904010773,-0.001164151355624199,0.03120785392820835
1761507737296098800,8.863098876953124,-0.022636616602540016,-0.00038726627826690674,0.028069866821169853
1761507737316255000,8.8832548828125,-0.023280836641788483,0.011359483934938908,0.02933703176677227
1761507737336411000,8.903410888671875,-0.020315924659371376,0.013270619325339794,0.030266281217336655
1761507737356565800,8.923565673828126,-0.014064135029911995,0.01234147697687149,0.02050255984067917
1761507737376722000,8.943721923828125,-0.00762674817815423,0.0032044127583503723,-0.0015808078460395336
1761507737396876800,8.963876708984374,-0.0022426408249884844,0.0023867571726441383,-0.01079180184751749
1761507737417032700,8.98403271484375,-0.009022247977554798,0.006212574429810047,-0.008689535781741142
1761507737437188900,9.00418896484375,-0.017085514962673187,0.004725188948214054,0.00957223679870367
1761507737457343700,9.02434375,-0.022699451074004173,0.01784421131014824,0.03464393690228462
1761507737477499100,9.0444990234375,-0.021719394251704216,0.018038365989923477,0.043402332812547684
1761507737497655000,9.064655029296874,-0.016161123290657997,0.018280092626810074,0.03281457722187042
1761507737517810200,9.08481005859375,-0.01579628325998783,0.01502432581037283,0.007084375713020563
1761507737537966000,9.104966064453125,-0.01717313565313816,0.012772009707987309,-0.018768027424812317
1761507737558121000,9.125120849609376,-0.01780189760029316,0.00647380668669939,-0.031760670244693756
1761507737578277000,9.145277099609375,-0.023271769285202026,0.008285529911518097,-0.03799103572964668
1761507737598433000,9.16543310546875,-0.02580656297504902,0.008357538841664791,-0.026661481708288193
1761507737618588000,9.185587890625,-0.04109684005379677,0.01173245906829834,-0.006354814395308495
1761507737638744000,9.205744140625,-0.05017366632819176,0.010829437524080276,0.012686118483543396
1761507737658899000,9.22589892578125,-0.052266139537096024,-0.012634586542844772,0.014466876164078712
1761507737679054800,9.246054931640625,-0.052822187542915344,-0.006437295116484165,0.022747701033949852
1761507737699211000,9.2662109375,-0.06289959698915482,0.0006052637472748756,0.04739513620734215
1761507737719366100,9.2863662109375,-0.07101903855800629,0.009209227748215199,0.05237347260117531
1761507737739522000,9.30652197265625,-0.062137674540281296,0.006432873196899891,0.033982422202825546
1761507737759677000,9.326677001953126,-0.044416461139917374,-0.0018441658467054367,-0.006472139619290829
1761507737779833000,9.3468330078125,-0.02579590678215027,0.007742228917777538,-0.030520183965563774
1761507737799989000,9.366989013671875,-0.012207644060254097,0.0014376556500792503,-0.03813466802239418
1761507737820143900,9.387143798828125,-0.015336344949901104,-0.0039007244631648064,-0.018991844728589058
1761507737840300000,9.407300048828125,-0.01994202844798565,-0.015028035268187523,0.0023074960336089134
1761507737860455000,9.427454833984376,-0.02248561382293701,-0.024843381717801094,0.03058653697371483
1761507737880610800,9.44761083984375,-0.024875249713659286,-0.017179446294903755,0.07081732153892517
1761507737900767000,9.46776708984375,-0.02041313797235489,-0.002040717750787735,0.08755043894052505
1761507737920922000,9.487922119140626,-0.01037166453897953,-0.0048960186541080475,0.0757884830236435
1761507737941078000,9.508078125,-0.0102920550853014,-0.011738820001482964,0.04351472109556198
1761507737961234200,9.528234130859374,-0.011824964545667171,-0.01430155523121357,0.010788106359541416
1761507737981389000,9.54838916015625,-0.01335015706717968,-0.008714468218386173,-0.003655797801911831
1761507738001545000,9.568544921875,-0.020512722432613373,0.004288399592041969,-0.008445871993899345
1761507738021700000,9.5887001953125,-0.024090945720672607,0.008058903738856316,-0.0034588363487273455
1761507738041856000,9.60885595703125,-0.02510722354054451,0.011648116633296013,-0.005010951776057482
1761507738062012000,9.629011962890624,-0.023021962493658066,0.0038329092785716057,-0.011152798309922218
1761507738082167000,9.6491669921875,-0.03042634390294552,0.005358126014471054,-0.000927687855437398
1761507738102323000,9.669322998046875,-0.036943379789590836,0.007564998231828213,0.015826435759663582
1761507738122478000,9.68947802734375,-0.04104412719607353,0.001001466065645218,0.022033344954252243
1761507738142634000,9.709634033203125,-0.041551440954208374,0.006944708526134491,0.03094651736319065
1761507738162790100,9.7297900390625,-0.03598358854651451,0.01445708703249693,0.022472234442830086
1761507738182945000,9.749945068359375,-0.031325969845056534,0.006154734641313553,0.002449063118547201
1761507738203101000,9.770100830078125,-0.022142058238387108,0.0027856091037392616,-0.0034061463084071875
1761507738223256000,9.790256103515626,-0.018527334555983543,0.00917103886604309,0.005075795575976372
1761507738243412000,9.810411865234375,-0.0035281453747302294,0.013749012723565102,0.004803620744496584
1761507738263568000,9.83056787109375,0.008738881908357143,0.005383576266467571,-0.007721403613686562
1761507738283723000,9.850722900390625,0.01937422901391983,0.006551157683134079,-0.004163880832493305
1761507738303879000,9.87087890625,0.020422713831067085,-0.0056492360308766365,-0.010659031569957733
1761507738324034000,9.891033935546876,0.02611708641052246,-0.026009447872638702,-0.010712327435612679
1761507738344190200,9.911190185546875,0.0065095508471131325,-0.021909868344664574,0.01685982197523117
1761507738364346000,9.93134619140625,-0.012211937457323074,-0.01152198389172554,0.0556815043091774
1761507738384501000,9.9515009765625,-0.02213539555668831,-0.0108425198122859,0.0740150660276413
1761507738404657200,9.9716572265625,-0.017719335854053497,-0.018449241295456886,0.04801054298877716
1761507738424812000,9.99181201171875,0.00010332209058105946,-0.024052809923887253,0.003150604199618101
1761507738444968000,10.011968017578125,0.018823225051164627,-0.025605525821447372,-0.0307164266705513
1761507738465124000,10.0321240234375,0.02750592865049839,-0.014374750666320324,-0.04286392033100128
1761507738485279700,10.05227978515625,0.03296729549765587,0.0022748559713363647,-0.025841129943728447
1761507738505436000,10.072435791015625,0.03731834515929222,0.004728636704385281,-0.012124649249017239
1761507738525591800,10.092591796875,0.037407565861940384,-0.00996711477637291,-0.011693814769387245
1761507738545746700,10.11274658203125,0.03380297124385834,-0.006268234457820654,0.007971611805260181
1761507738565902800,10.13290283203125,0.025708002969622612,-0.001870899461209774,0.01918514259159565
1761507738586058000,10.15305810546875,0.019692737609148026,-0.010311244055628777,0.01703602820634842
1761507738606214000,10.1732138671875,0.008600698783993721,-0.013851857744157314,0.012074688449501991
1761507738626370000,10.1933701171875,0.0031601174268871546,-0.010429292917251587,0.008732049725949764
1761507738646525000,10.21352490234375,0.001884727505967021,-0.008684576489031315,0.0025439606979489326
1761507738666680800,10.233680908203125,0.003318035276606679,-0.006444389466196299,0.0012918226420879364
1761507738686836000,10.2538359375,-0.001078317640349269,-0.009606119245290756,-0.0011520632542669773
1761507738706991900,10.273991943359375,0.003342272248119116,-0.02091395854949951,-0.007621276192367077
1761507738727147800,10.294147705078124,-0.00006631901487708092,-0.0229793693870306,-0.01034233346581459
1761507738747303000,10.314302978515625,-0.005607808940112591,-0.01714840903878212,-0.008383538573980331
1761507738767458800,10.334458740234375,-0.010879545472562313,-0.01254583802074194,0.00006655068136751652
1761507738787614000,10.354614013671876,-0.009307478554546833,-0.016526585444808006,-0.010939543135464191
1761507738807770000,10.37477001953125,-0.00680277356877923,-0.022677235305309296,-0.030678126960992813
1761507738827926000,10.394926025390625,-0.004415527451783419,-0.025335732847452164,-0.03665649890899658
1761507738848081000,10.415080810546876,-0.008253676816821098,-0.012163965962827206,-0.014753843657672405
1761507738868237000,10.435237060546875,-0.0027033695951104164,-0.010305522009730339,0.007754749618470669
1761507738888392000,10.455391845703126,0.0035678292624652386,-0.008608912117779255,0.00937705859541893
1761507738908547800,10.4755478515625,0.012980771251022816,-0.013656361028552055,0.004005478695034981
1761507738928704000,10.4957041015625,0.01294669508934021,-0.016246993094682693,0.015625471249222755
1761507738948859000,10.51585888671875,0.009182052686810493,-0.019001008942723274,0.04117635637521744
1761507738969014800,10.536014892578125,0.0046602655202150345,-0.013345851562917233,0.04087443649768829
1761507738989170000,10.556169921875,0.005875459872186184,-0.019152140244841576,0.020553264766931534
1761507739009326000,10.576326171875,-0.0032791397534310818,-0.023101679980754852,0.008597560226917267
1761507739029482000,10.59648193359375,-0.005278383381664753,-0.0010668952018022537,0.01959334686398506
1761507739049636900,10.616636962890626,-0.004316967912018299,0.016902219504117966,0.015455902554094791
1761507739069793000,10.63679296875,-0.0033206860534846783,0.01684098318219185,0.0017521867994219065
1761507739089948000,10.656947998046874,-0.00480647012591362,0.0011408254504203796,-0.003424369264394045
1761507739110103800,10.677103759765625,-0.005757461301982403,0.008186847902834415,0.04028943553566933
1761507739130260000,10.697260009765625,-0.0061801159754395485,0.004711107350885868,0.07255781441926956
1761507739150414800,10.717414794921876,-0.004012599587440491,-0.027222570031881332,0.054535578936338425
1761507739170570800,10.73757080078125,-0.011189267970621586,-0.02435285598039627,0.03146116062998772
1761507739190727000,10.757726806640624,-0.014838062226772308,-0.006754462607204914,0.030429435893893242
