time,seconds_elapsed,z,y,x
1761507656551398100,0.084398193359375,0.054953825458884234,0.031798940647020935,-0.010605053709819913
1761507656571554300,0.10455419921875,-0.09776303961575031,-0.010939181035012006,0.017234993243589996
1761507656591710200,0.124710205078125,-0.13553776673674583,0.01397109607681632,0.00876001036502421
1761507656611865000,0.144864990234375,-0.15347674353122712,-0.037124665714427824,0.03806165430359542
1761507656632021000,0.16502099609375,-0.18684183751642702,-0.012031287120655178,0.033357714396342636
1761507656652177200,0.18517724609375,-0.09221884949207305,-0.03462583463601768,0.038269744096323846
1761507656672333000,0.2053330078125,-0.09374912779927254,-0.04755333994403481,0.045642391756176945
1761507656692489200,0.2254892578125,-0.018375614646077156,-0.0030372488040477036,0.036859219711273906
1761507656712645000,0.24564501953125,-0.03909750015735626,-0.06332958574667573,0.057942632011324165
1761507656732800000,0.265800048828125,-0.006930091524124145,-0.029923429098725318,0.046365591464191676
1761507656752956200,0.2859560546875,0.006674655458331108,-0.030099954709410667,0.03204465903639793
1761507656773112000,0.306112060546875,-0.00286824891269207,-0.060863195633143186,0.03889832432344555
1761507656793268000,0.32626806640625,-0.006748305216431617,0.02677300224378705,0.022254648036509752
1761507656813424000,0.346424072265625,-0.03159749979078769,-0.09784151167944073,0.04692958202250302
1761507656833580000,0.366580078125,-0.11967968786954879,-0.08568506380915641,0.06871544350348413
1761507656853735000,0.38673486328125,-0.05562485658824443,0.03252623200826347,0.041651860815286636
1761507656873891000,0.40689111328125,-0.17489830174446105,-0.11627777047157287,0.04873297818265855
1761507656894047000,0.427046875,-0.0995890859991312,-0.01318199152573943,0.009556202244013547
1761507656914203100,0.447203125,-0.08264496546089649,-0.06241809692494571,0.02016593212895095
1761507656934359000,0.467359130859375,-0.08620002759397029,-0.06865633372738957,0.02425100948549807
1761507656954514000,0.487513916015625,-0.019538813206553457,-0.06525653522126376,0.030521541122347114
1761507656974670000,0.507670166015625,-0.03987374522686005,-0.06512048775143921,0.0520372073598206
1761507656994826000,0.527825927734375,-0.0008154080361127853,-0.027418825866654513,0.06457067184895277
1761507657014982000,0.54798193359375,0.017384850043058394,-0.030645094436779617,0.05811148577220738
1761507657035138000,0.568137939453125,-0.018363924208283422,-0.028274638978391883,0.04611073992028832
1761507657055294000,0.5882939453125,0.04452069424986839,-0.061040817222371695,0.01791274637468159
1761507657075449000,0.608448974609375,0.017246902877092362,-0.08906381952725351,0.01585595997534692
1761507657095605200,0.628605224609375,-0.010450082343816756,-0.0962339303523302,0.02535202952995896
1761507657115761200,0.64876123046875,-0.023364508974552153,-0.049586453206837175,0.028877427177131175
1761507657135917300,0.668917236328125,-0.10368249279260634,-0.043024902734160424,0.04711955163665116
1761507657156073200,0.6890732421875,-0.06363397552073001,-0.0315151552695781,0.0354009837269783
1761507657176228000,0.70922802734375,-0.14056523950994013,-0.06381364293657243,0.03692052144445479
1761507657196384000,0.729384033203125,-0.05149111778438091,0.029329700989276168,-0.023761472402885554
1761507657216540200,0.7495400390625,-0.08322598021924495,-0.09608692309707402,0.004282864950969815
1761507657236696000,0.769696044921875,-0.08505027303695678,-0.038073637002333995,0.0166389270465821
1761507657256852200,0.789852294921875,0.007861234894394874,-0.0051170507527887816,-0.018103811967372894
1761507657277008100,0.810008056640625,-0.0009995324313640593,-0.10271328243426978,0.017028072494640945
1761507657297163000,0.8301630859375,-0.03712532330155372,0.034536914243549106,-0.02554630999304354
1761507657317319200,0.850319091796875,-0.03910159181058406,-0.028303134420514107,-0.004214256694167852
1761507657337475000,0.87047509765625,-0.018691256466507912,-0.12005210137851535,0.017673092399910093
1761507657357631000,0.890630859375,-0.08449380819797515,-0.047299657443910834,0.010093377860635518
1761507657377787100,0.910787109375,-0.07740063506662845,0.029133082438632843,-0.0011466127518564462
1761507657397940000,0.93093994140625,-0.21235154182612895,-0.046440483331307764,0.006552855709567666
1761507657418094800,0.9510947265625,-0.17472002256810665,0.006642579819634556,-0.02815342375151813
1761507657438250800,0.971250732421875,-0.12239946822226047,-0.02774608505964279,-0.037498029071465135
1761507657458407000,0.991406982421875,-0.0018657938718795776,-0.07251980422250925,-0.009569938508421182
1761507657478562800,1.011562744140625,0.1132224745541811,-0.09777056533508002,0.028540669503435492
1761507657498718700,1.03171875,0.061729018682241434,-0.0634117841374129,0.06022818566523492
1761507657518873900,1.051873779296875,0.03988602018654346,0.05994038169980049,0.04419190068691969
1761507657539029800,1.07202978515625,-0.07751110970377921,-0.028796836221590637,0.05987425766102969
1761507657559185700,1.092185546875,-0.08833996223211288,0.011217778780683875,0.01083908166140318
1761507657579341800,1.112341796875,-0.0878945565521717,-0.06798522953279316,-0.00011719663888216018
1761507657599497700,1.132497802734375,-0.054634091985225675,-0.08842859036363661,-0.009527049214765429
1761507657619653600,1.152653564453125,-0.01135141509771347,-0.07565897903107106,0.020276041439920664
1761507657639808800,1.172808837890625,-0.03888999488651752,-0.07342924721762538,0.06857325855381786
1761507657659964700,1.192964599609375,-0.044427170747518535,-0.006851984786614775,0.08944207825511694
1761507657680120800,1.213120849609375,-0.07471008080840111,-0.05403985241912305,0.09554814004525541
1761507657700276700,1.23327685546875,-0.026035189488530158,-0.04419233907833695,0.07303440268114209
1761507657720432600,1.2534326171875,-0.06266951440274715,-0.03917304961159825,0.05258782697990536
1761507657740588800,1.2735888671875,-0.09351356547772884,-0.06616758565157652,0.04875460549257695
1761507657760744000,1.293743896484375,-0.023615268865227697,-0.046018458526954055,0.043934930251166224
1761507657780899800,1.31389990234375,-0.10549334160685539,-0.05590228529013693,0.0387494173720479
1761507657801056000,1.334055908203125,-0.012400631889700888,0.05331548366732895,-0.0007528641939163207
1761507657821212000,1.3542119140625,-0.0939770913362503,-0.04780892214030027,0.012421747742965816
1761507657841367800,1.374367919921875,-0.02925415153503418,-0.00534501428976655,-0.01553892991542816
1761507657861523000,1.39452294921875,-0.008863689935207366,-0.027593305650725958,0.007716931052878498
1761507657881678800,1.414678955078125,-0.037467853128910066,-0.035402371966466305,0.01730360150039196
1761507657901834800,1.434834716796875,-0.028609423890709876,-0.010382204739376902,0.017331366290152073
1761507657921991000,1.454990966796875,-0.0639309126406908,-0.002269844628125429,0.005345087355002761
1761507657942146800,1.475146728515625,-0.057142859935760494,-0.044459100255742665,0.019679025394842026
1761507657962303000,1.495302978515625,-0.07660626981854439,-0.02934131836183369,0.0074067691251635545
1761507657982457900,1.515457763671875,-0.05519289491176605,-0.013828545800969004,0.029403569943085312
1761507658002613800,1.53561376953125,-0.07591068876981735,-0.03160502551011741,0.018436770248785615
1761507658022770000,1.55577001953125,-0.04369359577596187,-0.04513999519199133,0.026589608500897883
1761507658042925800,1.57592578125,-0.07466039644777775,-0.017467779086157677,0.024163404267281294
1761507658063081700,1.596081787109375,-0.09117956957221031,0.009058262659236788,0.020729630426317452
1761507658083236900,1.61623681640625,-0.09730769706368446,-0.010237462506443262,-0.0009982172571122647
1761507658103392800,1.636392822265625,-0.034082302343845364,-0.04671608540229499,-0.0054579731449484825
1761507658123548700,1.656548583984375,0.004085808008909226,-0.060061962252855296,0.03359700304493308
1761507658143704800,1.676704833984375,0.03674772216081619,-0.021464155245944857,0.057323331069201226
1761507658163860700,1.69686083984375,0.02998597294092178,-0.05233049121797084,0.07501695480048656
1761507658184016600,1.7170166015625,-0.017090251010656355,-0.028634193005785343,0.05992817980535328
1761507658204171800,1.737171875,-0.07610767264664173,-0.01222308336570859,0.06600589228384196
1761507658224327700,1.75732763671875,-0.08537292912006378,-0.018967004667967555,0.03371609937995672
1761507658244483600,1.777483642578125,-0.10433949539661407,-0.05424501960240304,0.002387844984605908
1761507658264639700,1.7976396484375,-0.058200844556093215,-0.044685383292287585,-0.006086480306833982
1761507658284795600,1.817795654296875,-0.011074936243891715,-0.011620806623622774,0.004474442000314593
1761507658304951800,1.837951904296875,-0.03533960892856121,-0.037119258886948225,0.034647681141644716
1761507658325107000,1.85810693359375,-0.003723404437303543,0.009335033774003385,0.038126828494295474
1761507658345262800,1.878262939453125,-0.04665770627856254,-0.020178499349579215,0.03807677880749106
1761507658365419000,1.8984189453125,-0.005785013142228126,0.008217427920922636,0.02865435901097953
1761507658385575000,1.918574951171875,-0.07591828755438328,-0.06076024671532213,0.037707799364626406
1761507658405729800,1.938729736328125,-0.05373918897211551,-0.04738492457456887,0.03028415216989815
1761507658425884700,1.958884765625,-0.12069383334815502,-0.0171742760322988,0.01802906623072922
1761507658446040600,1.97904052734375,-0.11429331865608691,0.0027808628901839255,-0.0015616963587701319
1761507658466196700,1.99919677734375,-0.08418518064022064,0.023731150329858064,-0.021068068600445983
1761507658486352600,2.0193525390625,-0.032550270470976826,0.020929683043062686,-0.029003391644358632
1761507658506508800,2.0395087890625,0.027112463331222532,0.0080801383420825,-0.029422932230681178
1761507658526664700,2.059664794921875,-0.02402209610044956,-0.027433219718188045,0.004481602393463254
1761507658546819600,2.079819580078125,0.037949499166011806,-0.002675356689095497,-0.00011003624573349952
1761507658566975700,2.099975830078125,-0.059411389389634126,-0.05835515833497047,0.040584743040427564
1761507658587131600,2.120131591796875,-0.029977205112576483,-0.021571341947466134,0.04691884143278002
1761507658607287600,2.14028759765625,-0.08496025666594505,-0.06958360464014113,0.06314619200378656
1761507658627443700,2.160443603515625,-0.10090718286037445,-0.0721055973984301,0.045096302180737256
1761507658647598800,2.180598876953125,-0.12239128491580485,-0.03426028925925493,0.031583179004490376
1761507658667754800,2.200754638671875,-0.07727379381656646,-0.028839360189065334,0.013413900585472583
1761507658687911000,2.220910888671875,-0.07723930702507495,-0.04148359157629311,0.025622224773466585
1761507658708066800,2.24106689453125,-0.027127076378464697,-0.008299626311659812,0.0389485932059586
1761507658728222700,2.26122265625,-0.09220832809805869,0.013901684102416038,0.043041196281835434
1761507658748379000,2.28137890625,0.03143032653033733,0.008288593460991978,0.006756634653359651
1761507658768533800,2.30153369140625,-0.045859833899140355,-0.06890051774680614,0.02071954742372036
1761507658788690000,2.32168994140625,0.0773895291507244,-0.06330130950026214,0.022887027655914424
1761507658808845800,2.341845703125,-0.08013795107603072,-0.08712167248353361,0.05895875025130808
1761507658829001700,2.362001708984375,-0.00976326912343502,-0.034807913204655046,0.04337276632376015
1761507658849158000,2.382157958984375,-0.13015490465462207,-0.08178791024014354,0.08458404376469553
1761507658869313800,2.402313720703125,-0.08215864324867725,-0.011949380990862846,0.05678484027832746
1761507658889468700,2.42246875,-0.15005904404222964,-0.0660965662419796,0.06751439715065062
1761507658909624800,2.442624755859375,-0.034299159964919085,-0.007138181316852569,0.014755670583248138
1761507658929780700,2.46278076171875,-0.06708031658232212,-0.04231748511716723,0.017522724143788217
1761507658949936600,2.4829365234375,0.008545125505328178,-0.027093027978390454,0.005583572285994887
1761507658970092800,2.5030927734375,0.001592237627506256,-0.008209609940648078,0.015223799551650881
1761507658990247700,2.52324755859375,-0.0164566292822361,0.00034559856727719307,0.011607581815868616
1761507659010403600,2.543403564453125,0.007826748102903366,-0.03063808017410338,0.0035677754841744896
1761507659030559700,2.563559814453125,-0.022327567142248154,-0.04687719424813985,0.01899213910922408
1761507659050715600,2.583715576171875,0.01796878741085529,0.009431699081510305,0.01801058072596788
1761507659070871800,2.603871826171875,-0.10035656324028969,-0.011945508533343672,0.024906550784781573
1761507659091027700,2.62402783203125,-0.11255845768749713,-0.029257293340191243,0.00803410724326968
1761507659111182600,2.6441826171875,-0.11742284885346889,-0.01177848140336573,0.008661810687556863
1761507659131338800,2.6643388671875,-0.12010989598035812,0.011853446335718035,0.006724339818954468
1761507659151494700,2.68449462890625,-0.09435995317399501,0.001976560769975185,-0.013582900476828216
1761507659171650600,2.704650634765625,-0.07189502338767051,-0.045189460356906054,-0.010441095319762825
1761507659191806700,2.724806640625,0.0036328035444021223,-0.038216625669598575,0.005252586765959859
1761507659211962600,2.744962646484375,0.011111176601052283,0.004200374299287796,0.02778612480908632
1761507659232117800,2.76511767578125,0.007519874110817909,-0.015965411699190735,0.039826910410448904
1761507659252274000,2.78527392578125,0.0077197805970907205,-0.034397798033803696,0.0181024967931211
1761507659272429800,2.805429931640625,-0.02803542339503765,-0.013707695900276302,0.0081591218624264
1761507659292585700,2.825585693359375,-0.036648937961459155,-0.058133551473543044,0.02704560864008963
1761507659312741600,2.84574169921875,-0.016537293303012846,-0.06368219857662916,0.05020940741077065
1761507659332896800,2.865896728515625,-0.05010696994960308,-0.03824387900270521,0.04084302865043282
1761507659353053000,2.886052978515625,-0.11053718099296092,-0.045990985998138785,0.05673398687392473
1761507659373208800,2.906208740234375,-0.12531214079856873,-0.031455680167302484,0.05579531778432428
1761507659393365500,2.926365478515625,-0.13211129941940306,-0.055531698412075635,0.038895255583524704
1761507659413521400,2.946521484375,-0.08010989402532577,-0.04163352144099772,0.025805107059702275
1761507659433677300,2.96667724609375,-0.03188450003862381,-0.048807870049774646,0.009133592917770147
1761507659453832400,2.98683251953125,0.007379588857293128,-0.06883285933807493,0.023925065466761587
1761507659473988600,3.006988525390625,0.009987725529074669,-0.0705880324423313,0.050651963546499604
1761507659494144500,3.02714453125,-0.01775017622411251,-0.00005932897180318832,0.046607656591758126
1761507659514300700,3.04730078125,-0.056629649716615674,-0.0217209795512259,0.04771547170318663
1761507659534456600,3.06745654296875,-0.07687047371268271,-0.017368191169202327,0.03793452079258859
1761507659554612500,3.087612548828125,-0.04924655372798443,-0.04236081280224025,0.022013605822250246
1761507659574767600,3.107767578125,-0.09674187987446785,-0.01274864160977304,-0.0019227847561240196
1761507659594923500,3.127923583984375,-0.04081599451303482,-0.005762582114711403,-0.012653145346045494
1761507659615079400,3.148079345703125,-0.08709493060708046,-0.0864593361172825,0.009404080422222613
1761507659635235600,3.168235595703125,-0.05649170255064964,0.03679382632486522,0.00001315174251794815
1761507659655391500,3.1883916015625,-0.05587386291325092,-0.0012752806328237055,0.029896248830854892
1761507659675547600,3.208547607421875,-0.054558688661456106,-0.0347002150464803,0.030613895580917594
1761507659695702500,3.22870263671875,0.014960837766528129,0.014145648926123976,-0.0009239099118858575
1761507659715858400,3.2488583984375,-0.039086394241452216,0.010775661036372184,-0.0012150018129497766
1761507659736014600,3.2690146484375,-0.01277180328965187,0.0007154547929763794,-0.022705972000584006
1761507659756170500,3.28917041015625,-0.03931552682220935,-0.036023426474258304,-0.018476736932992933
1761507659776326400,3.309326416015625,-0.04638824168741703,-0.013302476100251077,-0.019308584647253154
1761507659796481300,3.329481201171875,-0.06792553523480892,0.011236483481153844,-0.007660086299106478
1761507659816637400,3.349637451171875,-0.10532850643396377,0.0209905463848263,0.0002728986572474241
1761507659836793300,3.36979345703125,-0.07356734051406383,0.008054200183227658,-0.016428645296767352
1761507659856949500,3.389949462890625,-0.09091361211240291,-0.04669555407091975,-0.014860080805793404
1761507659877105400,3.41010546875,-0.05171323610246181,-0.034471886183321476,-0.0016531009692698716
1761507659897261300,3.43026123046875,-0.04328384593129158,-0.0002075783360749483,0.014092968890815972
1761507659917416400,3.45041650390625,0.01120762271285057,-0.023377149260416626,0.05449029960036277
1761507659937572400,3.470572265625,-0.021996143230795857,-0.05682363791875541,0.07332783266976475
1761507659957728500,3.490728515625,0.011838906353712082,-0.048074295078217984,0.06038286477029323
1761507659977884400,3.510884521484375,-0.06519640253186225,-0.059772404721751805,0.06024791327901184
1761507659998040300,3.531040283203125,-0.07308218734562397,-0.03229066968671977,0.0550824933398515
1761507660018196500,3.551196533203125,-0.10817921968996524,-0.032257790330424904,0.03777465405575931
1761507660038351600,3.5713515625,-0.09305588483810424,-0.006061711191758513,0.02036715378947556
1761507660058507500,3.591507568359375,-0.10583177978098392,-0.05560739399679005,0.04270027388967573
1761507660078663700,3.61166357421875,-0.02175648925602436,-0.0092217095926404,0.021710750418156385
1761507660098819600,3.631819580078125,0.0012467851907014846,0.003379413305222988,0.01642499203495681
1761507660118975500,3.6519755859375,-0.004669745376706123,-0.045098713333532214,0.02215498705431819
1761507660139131600,3.672131591796875,0.01824117461144924,-0.0616815262787044,0.040079789192974564
1761507660159286500,3.69228662109375,-0.02200608010292053,-0.05133753465786576,0.06995652960576117
1761507660179442400,3.7124423828125,-0.0643102673470974,-0.011073913330584764,0.06423099156580865
1761507660199598600,3.7325986328125,-0.1260182432413101,-0.00480615817271173,0.05899323704279959
1761507660219754500,3.75275439453125,-0.09846855753660201,-0.0300968129042536,0.03193637635633349
1761507660239910700,3.77291064453125,-0.11327157439291477,-0.04392506644427776,0.006713526163995265
1761507660260066600,3.793066650390625,-0.050344285836815834,-0.040298108118772505,-0.027107567960396407
1761507660280221400,3.813221435546875,-0.03221767751574516,-0.030875980583205818,-0.02878558417521417
1761507660300377300,3.83337744140625,-0.028289105895161627,-0.011646598652005196,0.004951631058007479
1761507660320533500,3.853533447265625,-0.05913724862337112,0.0024756693985313175,0.011706804406642913
1761507660340689400,3.873689453125,-0.04189560644328594,0.006130465579032898,0.021267098303884267
1761507660360845600,3.893845458984375,-0.07446399709284306,-0.034227848294377326,0.01359473704509437
1761507660381000400,3.91400048828125,-0.03401508232653141,-0.027575185472145675,-0.0017163754638284444
1761507660401156600,3.934156494140625,-0.06148059687912464,-0.03710705699250102,0.008806625985726714
1761507660421312800,3.954312744140625,-0.045126843449473375,-0.03770027364529669,-0.00037950083687901493
1761507660441468700,3.97446875,-0.07726853311955928,-0.057056789087504146,0.015166224145516752
1761507660461624600,3.99462451171875,-0.05318681578636169,-0.003659618486091494,0.015690394150093198
1761507660481780700,4.01478076171875,-0.07061375140547752,-0.0194297268088907,0.03248210060559213
1761507660501935600,4.034935546875,-0.040544776356220245,0.006460282055288553,0.004103635926544666
1761507660522091500,4.055091552734375,-0.07409399473667144,-0.02569916246719658,0.017478958067297934
1761507660542247000,4.075246826171875,-0.016118191108107565,0.021641265378519892,0.006779942463710904
1761507660562402800,4.09540283203125,-0.027512860825657844,-0.026723902405053377,0.03320259689986706
1761507660582558700,4.115558837890625,-0.009549918633699417,-0.005685571355745196,0.03870053672902286
1761507660602715000,4.13571484375,-0.005870937860012054,-0.028954584066569804,0.03902165844216943
1761507660622870800,4.155870849609375,-0.0653472091794014,-0.01574380483776331,0.0522707969199866
1761507660643027000,4.17602685546875,-0.031902035695314405,-0.01003675230257213,0.04739186577200889
1761507660663181800,4.196181884765625,-0.07105389638841152,-0.07287102881297469,0.05161182155460119
1761507660683337700,4.216337646484375,-0.010341361272335052,-0.030417423160746693,0.028107027326524255
1761507660703494000,4.236493896484375,-0.08269464982151985,-0.006984013668447733,0.01843647798784077
1761507660723649800,4.25664990234375,-0.05006079272031784,-0.03152706490308046,0.01932064041122794
1761507660743805700,4.2768056640625,-0.09878829101026057,-0.032061902432143685,0.03958762176185846
1761507660763960800,4.2969609375,-0.12620002954900264,-0.009455299152806402,0.027472967206686735
1761507660784116700,4.31711669921875,-0.08399871815741061,-0.037429786140844225,0.01830152649655938
1761507660804272600,4.337272705078125,-0.04787818798422813,-0.07615764926820993,-0.008175707671046256
1761507660824428800,4.3574287109375,0.016875146955251694,-0.08356975215561688,-0.012845672243461012
1761507660844584700,4.377584716796875,0.022771803778409958,-0.06072744042426347,0.0017189327470958232
1761507660864740900,4.397740966796875,0.0026063831061124802,-0.09276976137310267,0.04851641282252967
1761507660884895700,4.417895751953125,-0.03242284469902515,-0.0646991935994476,0.04328223849609494
1761507660905051600,4.4380517578125,-0.1078407815158367,-0.06146795659326017,0.06214293324537575
1761507660925207800,4.458207763671875,-0.09027765229642391,-0.044138197738304734,0.042711964327469466
1761507660945363700,4.47836376953125,-0.11686638401448726,-0.07491013342514634,0.012802417623624204
1761507660965519600,4.49851953125,-0.08831190518140793,-0.0375950597051531,0.0050059915937483304
1761507660985675800,4.51867578125,-0.10195815321803092,-0.05576799138598144,0.030200565539672968
1761507661005830700,4.53883056640625,-0.0292401230096817,0.012676087830215692,0.027314415644109247
1761507661025986600,4.558986572265625,-0.05921031385958194,-0.021989932685717938,0.05392565145492553
1761507661046142700,4.579142822265625,0.012339257091283798,0.01969955672621727,0.022699907585978507
1761507661066298600,4.599298583984375,0.020392215165495872,0.007710428246855736,0.023491496355086565
1761507661086454500,4.61945458984375,0.031441432446241376,0.024644100456312296,0.013746785801649094
1761507661106612700,4.63961279296875,0.028655601119995114,-0.004678147878870368,0.023328926204517483
1761507661126769000,4.659768798828125,-0.009386252504587174,-0.012370821273326874,0.0384341408777982
1761507661146923800,4.679923828125,-0.03226794639825821,0.005050488322600722,0.025415450154989958
1761507661167079700,4.70007958984375,-0.1044423712491989,-0.013439984874799847,-0.00038359249010682105
1761507661187235800,4.72023583984375,-0.0540361260920763,0.0010766162555664778,-0.0031590485528111456
1761507661207391700,4.740391845703125,-0.10256313337385654,-0.034099399609118695,-0.003433408514782786
1761507661227547600,4.760547607421875,-0.04310732032060623,-0.04311199649572372,-0.01600669355764985
1761507661247703800,4.780703857421875,-0.06872282309234141,-0.00596380377523601,-0.00659318771995604
1761507661267858700,4.800858642578125,-0.07378127552568912,0.013906579473242163,0.01307356271520257
1761507661288014600,4.8210146484375,-0.03621230010986328,0.00007343056239187717,0.004785846037045121
1761507661308170800,4.841170654296875,-0.0209486800044775,-0.032261662787944075,0.018183745335787534
1761507661328326700,4.86132666015625,-0.034604864913225175,-0.028168986646831033,0.0017411445789039133
1761507661348482800,4.88148291015625,-0.04470248055756092,-0.032972441405802966,-0.0017041005041450261
1761507661368638700,4.901638671875,-0.05390753127634525,-0.06988499873951078,0.024436449055001138
1761507661388793000,4.92179296875,-0.0422241077452898,-0.07895261374898255,0.03155819069370627
1761507661408949200,4.94194921875,-0.049203883630037304,-0.03381210710033774,0.04409304342232644
1761507661429105200,4.962105224609375,-0.06259528012275696,-0.044124607604369516,0.04253112786784768
1761507661449261000,4.982260986328125,-0.08704758433401584,-0.07006985378712416,0.051367199143767354
1761507661469417200,5.002417236328125,-0.08164952468276024,-0.04709317508637905,0.022952128781378266
1761507661489572000,5.022572021484375,-0.07998539086282253,-0.04331994015797972,0.011043225931376218
1761507661509728000,5.04272802734375,-0.052987493821978565,-0.06828713508881629,0.0024962737951427696
1761507661529884200,5.06288427734375,-0.015285247415304183,-0.0892791427783668,0.025853330115601418
1761507661550040000,5.0830400390625,-0.011831892091035842,-0.04554382675252855,0.055336979557573794
1761507661570196200,5.1031962890625,-0.03255377760231495,-0.02098426277451217,0.08318659805692732
1761507661590352100,5.12335205078125,-0.06095803430974483,-0.02066905934549868,0.06603504531309008
1761507661610507000,5.143507080078125,-0.067556117400527,-0.0053253597412258385,0.06147438633404672
1761507661630663200,5.1636630859375,-0.012949497944116591,-0.02321867076307535,0.03064282941445708
1761507661650819000,5.183819091796875,-0.03652677288651466,-0.04771306055039167,0.00796118813753128
1761507661670975000,5.20397509765625,-0.026841245174407957,-0.030825492504984137,-0.004886895258724689
1761507661691131100,5.224131103515625,-0.0862830297023058,-0.027358254785835742,0.018868366599082944
1761507661711287000,5.244287109375,-0.05927051961421966,-0.0005990618716925383,0.029700653193518518
1761507661731442000,5.26444189453125,-0.04607961412966251,0.005404854718223214,0.021686346629261968
1761507661751598000,5.28459814453125,-0.0455137969404459,-0.021818448576331136,0.007579495343565941
1761507661771754000,5.30475390625,-0.0533259319961071,-0.01780541354268789,0.010829217854514718
1761507661791910100,5.32491015625,-0.055878539088368415,-0.0027581396017223596,0.007295417705178261
1761507661812066000,5.345066162109375,-0.07354980485737324,-0.02018251793757081,0.0029484014768153427
1761507661832222000,5.365221923828125,-0.08025017927885054,-0.039341172720119354,0.004429360749572515
1761507661852377000,5.385377197265625,-0.10124152938127517,0.0011056231543421745,0.006209376034140586
1761507661872533000,5.405532958984375,-0.08470365155637263,0.009581994272395969,0.004142506632208824
1761507661892689000,5.42568896484375,-0.08175883027613162,0.024353300816193222,-0.017486776047572494
1761507661912845000,5.445844970703125,-0.05311491959393024,-0.00006926584392786026,-0.017529957602173088
1761507661933001000,5.4660009765625,-0.01192132394015789,0.029500089120119807,-0.02320624967291951
1761507661953157000,5.4861572265625,-0.017936054185032843,0.002541135850176215,0.011127104822546243
1761507661973312300,5.506312255859375,0.015468202766776084,-0.0017407061874866485,0.017094707990065214
1761507661993468200,5.52646826171875,-0.04731353983879089,-0.05298946658335626,0.03456920907795429
1761507662013624000,5.5466240234375,-0.01634673916697502,-0.019905673757568,0.05038045312874019
1761507662033780200,5.5667802734375,-0.060651160317659374,-0.031124329321086403,0.06126330086663365
1761507662053936000,5.58693603515625,-0.0505418542355299,-0.016602029102295635,0.060969578617066145
1761507662074091000,5.607091064453125,-0.1112310084760189,-0.05369147737286985,0.05537409669756889
1761507662094247200,5.6272470703125,-0.08775193321108818,-0.021296324398368597,0.041904228141158816
1761507662114403000,5.647403076171875,-0.11510112790763377,-0.032474355690553784,0.02263984796181321
1761507662134559200,5.667559326171875,-0.0837076262563467,-0.023921339139714837,0.024059943892806766
1761507662154715100,5.687715087890625,-0.052315293648838995,0.007519289588928222,0.019369959445670246
1761507662174871000,5.70787109375,-0.03207563869655132,0.02528890116587281,0.006657412062585353
1761507662195026200,5.728026123046875,0.013138298514485358,-0.015144450705125927,-0.006202654032409191
1761507662215182000,5.74818212890625,0.017583587485551833,-0.04644852050729096,-0.00183583712503314
1761507662235338000,5.768337890625,0.02197568496465683,-0.04796798515953123,0.03420424822308123
1761507662255494100,5.788494140625,-0.04097849159836769,-0.015922595470771194,0.0644615123860538
1761507662275650000,5.808650146484375,-0.09799334124028682,-0.009974792982265352,0.056969403064996
1761507662295805000,5.828804931640625,-0.12576456074118614,-0.05990772153921425,0.05252879026904702
1761507662315961000,5.848961181640625,-0.09791501530706882,-0.01782199935130775,0.02887954606898129
1761507662336117000,5.869116943359375,-0.11199907023906708,-0.003591302490234375,0.01879690879806876
1761507662356273200,5.889273193359375,-0.12780161952674388,-0.019615312508866188,0.0021623656656593084
1761507662376429000,5.909428955078125,-0.07319909172356129,-0.03538870876729488,0.020035291486606002
1761507662396585200,5.929585205078125,-0.02701075652241707,-0.015764116973429918,0.010344649207964539
1761507662416740000,5.949739990234375,-0.05218319170176983,-0.011219605411589145,0.030314181981980798
1761507662436896000,5.96989599609375,-0.021704466807842254,0.01795607405975461,0.019616919944062828
1761507662457052200,5.99005224609375,0.019711247164011,0.009274535758420825,0.01240508886910975
1761507662477208000,6.0102080078125,-0.003450432714819908,-0.0469693295110017,0.01872406275756657
1761507662497364200,6.0303642578125,-0.024698387926816938,-0.014313845099881291,0.01377484285235405
1761507662517520100,6.05052001953125,-0.04356909261345863,-0.0031120676059275864,0.018746712980791926
1761507662537675300,6.07067529296875,-0.044293315234780306,-0.04895904202349484,0.026972981795296072
1761507662557831200,6.0908310546875,-0.03602525310516357,0.025751696372032163,0.008727642465382815
1761507662577987000,6.110987060546875,-0.07882160778045653,-0.007530760831013322,-0.019664558478072285
1761507662598143000,6.13114306640625,-0.046535541203618046,0.041217268790304656,-0.009035539370775222
1761507662618299100,6.151299072265625,-0.0830582224369049,-0.008610738087445497,0.014460925420373678
1761507662638454300,6.171454345703125,-0.04659516243636608,0.013557035383209586,0.015536445697396992
1761507662658610200,6.191610107421875,-0.01848433571755886,-0.005565744368359446,0.014388444706052541
1761507662678766300,6.211766357421875,-0.04830898061692714,-0.015536811023578047,0.045362844162434336
1761507662698922200,6.231922119140625,-0.02558276954591274,-0.028365386001765726,0.04219210517182946
1761507662719078400,6.252078369140625,-0.07248772858381271,-0.05265796960666776,0.0391734149377793
1761507662739234300,6.272234375,-0.0676566551655531,-0.03694901688657701,0.030907471700012682
1761507662759389200,6.29238916015625,-0.060116907310485836,-0.03266045284718275,0.00968421253785491
1761507662779545300,6.31254541015625,-0.06830605898499488,-0.029266061168536542,-0.0002536094348877668
1761507662799701200,6.332701171875,-0.0899859758734703,-0.020189313004538415,0.0004263356532901525
1761507662819857200,6.352857177734375,-0.09627133975327014,0.01851882250905037,0.003357347603887319
1761507662840013300,6.373013427734375,-0.031470658540725706,0.03275390328429639,-0.0035063276205211874
1761507662860169200,6.393169189453125,-0.03299216901957989,-0.041628553004935384,-0.017099822556599975
1761507662880324000,6.413323974609375,0.016005378383398054,-0.03397336207665503,-0.023147066831588743
1761507662900480300,6.433480224609375,0.006502806022763252,-0.010885770347341894,0.023542934281378984
1761507662920636200,6.45363623046875,0.005800210711359977,-0.017091639250144362,0.05510068658366799
1761507662940792000,6.4737919921875,-0.0656955842256546,-0.022331366534531116,0.05773271558769047
1761507662960948200,6.4939482421875,-0.0988134254515171,-0.009210969002917409,0.04221848172210157
1761507662981103000,6.51410302734375,-0.10263093791306019,-0.010008402990922332,0.021802301159128547
1761507663001259000,6.534259033203125,-0.08422317456305027,-0.014846929063275456,-0.007403919580951332
1761507663021415200,6.554415283203125,-0.06669219404757022,-0.024826617416366933,0.004829100656881928
1761507663041571000,6.574571044921875,-0.04707739299535751,-0.019017565811425448,0.003087809947505593
1761507663061727200,6.594727294921875,-0.029783143845200536,0.00484254466034472,0.015866919760778544
1761507663081883100,6.614883056640625,-0.021408114209771154,0.011643676042556762,0.011230346001312137
1761507663102038300,6.635038330078125,-0.010126841738820076,-0.014063304404914378,0.020333909106999636
1761507663122194200,6.655194091796875,-0.05856032551825046,-0.01645158778093755,0.00041340310648083686
1761507663142350000,6.67535009765625,-0.01006605146229267,0.0028643764551728964,-0.006855345787480473
1761507663162506000,6.695506103515625,-0.07044540910124779,-0.034133594139665366,0.010494359876960515
1761507663182662100,6.715662109375,-0.029701310780644415,0.035246377687156195,-0.0023452479518949985
1761507663202817300,6.7358173828125,-0.0937421135365963,-0.058481853454560036,0.018471403170749544
1761507663222973200,6.75597314453125,-0.09560030862390995,0.030517960925772785,0.008941942803189157
1761507663243129300,6.77612939453125,-0.07424538590610028,-0.0189754071701318,0.008710910526290536
1761507663263285200,6.79628515625,-0.10028758965730666,-0.030444311167672274,0.013757964782789348
1761507663283441400,6.81644140625,-0.011814940956234931,-0.01976085845939815,0.02154533072337508
1761507663303597300,6.836597412109375,-0.044078211179375645,0.0013844400957226752,0.03310205913484096
1761507663323752200,6.856752197265625,0.029115035325288773,0.0034348698195070027,0.03128594962358475
1761507663343908400,6.876908447265625,0.008024316501617432,-0.042083603296056385,0.04397307030446827
1761507663364064300,6.897064208984375,0.003119593325257301,0.010658245201781392,0.031705855536088345
1761507663384220200,6.91722021484375,-0.045963878795504565,0.0249020207401365,0.033448461419716476
1761507663404376300,6.937376220703125,-0.025049101060628888,0.005234612717851996,0.013690890895947813
1761507663424531200,6.95753125,-0.050857496055960655,-0.045985944496840236,-0.012390183560922741
1761507663444687400,6.977687255859375,-0.039137247645854946,-0.03778006088323891,-0.020783917896822095
1761507663464843300,6.99784326171875,-0.06228548352122307,-0.030821546982228755,-0.02049348358288407
1761507663484999400,7.01799951171875,-0.10035247158706187,-0.0209513834182173,-0.03795088740549982
1761507663505155300,7.0381552734375,-0.0767190825432539,-0.007626695486158132,-0.01819419366456568
1761507663525311200,7.058311279296875,-0.08522036890685558,-0.01864157210588455,0.011990516718849539
1761507663545466400,7.07846630859375,-0.06345335825681686,-0.04380838126204908,0.04124612955860793
1761507663565622300,7.098622314453125,-0.04782148936092853,-0.04937624452225864,0.04188552344068885
1761507663585778200,7.118778076171875,-0.0865612621217966,-0.023776377711072563,0.04361030140668153
1761507663605934300,7.138934326171875,-0.09092822515964508,-0.003453209193795919,0.015677899994701146
1761507663626090200,7.15909033203125,-0.0827490103572607,-0.057987201805412766,0.01696552865244448
1761507663646246400,7.179246337890625,-0.05555939013659954,-0.0706095866870135,0.011487462567538022
1761507663666401300,7.1994013671875,-0.0029874913781881333,-0.0042434827886521816,0.029550577198341487
1761507663686557200,7.21955712890625,0.007307108142971992,-0.010817600481957197,0.034399843860417605
1761507663706713300,7.23971337890625,-0.0008890577942132949,-0.024584552288800476,0.04714965451397001
1761507663726869200,7.259869140625,0.004866729253530502,-0.008489449795335531,0.03875898891799152
1761507663747025200,7.280025146484375,-0.037491234004497526,0.013347484285756946,0.03377952000498771
1761507663767180300,7.30018017578125,-0.03877425955235958,-0.008862082500010728,0.024412995114177462
1761507663787336400,7.32033642578125,-0.04889233346283436,0.0014057751446962356,0.0022998744402080774
1761507663807492400,7.340492431640625,-0.10119126049876212,-0.005007452898472547,0.0020924422346055506
1761507663827648500,7.3606484375,-0.06397124465107917,-0.011963847907632589,-0.009484379116818308
1761507663847804400,7.380804443359375,-0.076575290158391,0.008912716708704829,-0.004519011794403195
1761507663867960300,7.400960205078125,-0.07180033084154129,0.018704700469970702,-0.005492313805967569
1761507663888115500,7.421115478515625,-0.06546703616678715,0.005425970571488142,-0.000654079994559288
1761507663908271400,7.441271240234375,-0.07399754862487316,-0.003104322690889239,0.0039669308695942165
1761507663928427300,7.46142724609375,-0.05781389106512069,0.00940020796470344,0.0060818771969527
1761507663948583400,7.48158349609375,-0.057466100540757174,-0.025667379089444876,0.010369199127331375
1761507663968739300,7.5017392578125,-0.027483634731173514,-0.02189231753014028,0.018966785472258923
1761507663988894200,7.521894287109375,-0.018560908085107804,-0.030291385628283023,0.011362667144089936
1761507664009050400,7.54205029296875,-0.016743045008182526,-0.034418183234706516,0.006200096749141812
1761507664029206300,7.562206298828125,-0.06472644693255424,-0.013377806358784437,-0.0005886866081506013
1761507664049362400,7.582362548828125,-0.07269464933276176,-0.008647709096968173,-0.006160056999698281
1761507664069518300,7.602518310546875,-0.09770283386111259,0.01004566626138985,-0.022419775470346213
1761507664089674200,7.62267431640625,-0.0966606313318014,-0.010679580250754953,0.005578969176113605
1761507664109829400,7.642829345703125,-0.08640168764591216,0.02343596677556634,-0.01811944792792201
1761507664129985300,7.6629853515625,-0.03676759590506554,0.013989143190160393,-0.019706644054129717
1761507664150141200,7.68314111328125,-0.042971711242198944,0.014845175497606396,-0.016485343920066953
1761507664170297300,7.70329736328125,0.033278000223636625,-0.050733431284874675,0.007838219344988465
1761507664190453200,7.723453369140625,0.015500935992598533,-0.07991086432188749,0.05390300123170018
1761507664210608000,7.743608154296875,0.018890578430891036,-0.03699241763688624,0.09550517768636345
1761507664230764300,7.763764404296875,-0.08957330341935157,-0.05079217573478818,0.10743322362825274
1761507664250920200,7.783920166015625,-0.10187807371914386,-0.05367006925866007,0.1031913482747972
1761507664271076000,7.804076171875,-0.14147709365785122,-0.057876142646372315,0.09353256243914365
1761507664291232300,7.824232177734375,-0.09604454526007175,-0.08733253875523805,0.0640551235422492
1761507664311388200,7.84438818359375,-0.07929507051110267,-0.058174248810112475,0.040019437307864426
1761507664331543300,7.864543212890625,-0.0433960741341114,-0.014533771460875868,0.04010923448316753
1761507664351699500,7.884699462890625,-0.04079378268122673,0.013637991664931176,0.017697788449749348
1761507664371855400,7.90485546875,-0.05863982049524784,-0.0021321166578680277,0.013271788701042533
1761507664392014800,7.925014892578125,-0.08372750000059605,0.01562945774309337,-0.014791180288046598
1761507664412171000,7.9451708984375,-0.04645663074851036,0.019528803269192575,-0.026594284676015375
1761507664432326000,7.965325927734375,-0.03480594044327736,0.00136800041757524,-0.02376264144666493
1761507664452481800,7.985481689453125,-0.027644378250837324,0.0012919395066797732,-0.014805793335288761
1761507664472638000,8.005637939453125,-0.051209962755441665,0.009376680958643555,0.014511924955248832
1761507664492791800,8.025791748046874,-0.03551204288601875,0.026106135832890866,0.0248830968439579
1761507664512947000,8.045947021484375,-0.04928279408514499,0.040329818431288,0.021869667306914923
1761507664533102800,8.066102783203124,-0.05445581280887127,0.013073781910911202,-0.0029208558827638624
1761507664553259000,8.086259033203126,-0.03266542128324509,-0.005498378220573068,-0.0148917911183089
1761507664573415000,8.106414794921875,-0.03038695495724678,0.01943411072306335,-0.009348039386048912
1761507664593570800,8.12657080078125,0.0014484452426433562,-0.0007342325586825609,0.004292801823094487
1761507664613727000,8.14672705078125,-0.0002548515439033508,-0.0024977350998669863,0.02007343153990805
1761507664633881900,8.1668818359375,-0.04983458274900913,-0.025656930760666725,0.022573139401152728
1761507664654037800,8.187037841796876,-0.08977320990562439,-0.05359430060870945,0.009366817151755094
1761507664674194000,8.20719384765625,-0.11961948211491107,-0.07811550533771515,0.0019876666858792305
1761507664694349800,8.227349853515625,-0.11047931332588196,-0.02727817528694868,0.01014401206932962
1761507664714506000,8.247506103515626,-0.0994189901292324,-0.029793519108742474,0.012483633998036384
1761507664734660900,8.267660888671875,-0.08638122937977313,-0.030865166928246614,0.017515563750639555
1761507664754816800,8.287816650390624,-0.05100479557216167,0.014468451139703391,0.025426848331838843
1761507664774973000,8.307972900390626,-0.05294599276781082,0.028184768737852573,0.026430837742611766
1761507664795128800,8.32812890625,-0.04749532614648342,0.017038447758182883,0.007418240367248654
1761507664815284700,8.34828466796875,0.01726619209945202,-0.03790171450152993,0.020161548214778304
1761507664835441000,8.36844091796875,0.03636486032307148,-0.05523030431270599,0.061907955445721745
1761507664855595800,8.388595703125,0.02233282783925533,-0.0764294519469142,0.09081650841347873
1761507664875751700,8.408751708984376,-0.026294132685661314,-0.057196270623430606,0.09660838968791068
1761507664895907800,8.428907958984375,-0.10156769259572028,-0.04142155919075012,0.06687522246427834
1761507664916066000,8.449066162109375,-0.13616788133382796,-0.013038199140876531,0.054741644012928005
1761507664936222000,8.469221923828124,-0.11817220591604709,-0.01578727865330875,0.008371157177910208
1761507664956377900,8.4893779296875,-0.07465630479454993,-0.060177259195595974,-0.03351772726364433
1761507664976534000,8.509533935546875,-0.04924129303097725,-0.005516571464389562,0.013848784871399402
1761507664996689000,8.52968896484375,0.029793665239214895,0.020618717397749422,0.027435996197164057
1761507665016844800,8.5498447265625,0.03130056267082691,-0.042859409974142906,0.06181355516053736
1761507665037001000,8.5700009765625,0.007169160977005958,-0.016833865096792577,0.08319565814621746
1761507665057156900,8.590156982421876,-0.057145198023319244,-0.011228884696587919,0.06415792632959783
1761507665077312800,8.610312744140625,-0.09084580757319927,-0.057674701790139074,0.028970439222827552
1761507665097468000,8.630468017578124,-0.07869827366173267,-0.05922339253686368,0.0010031856931746006
1761507665117623800,8.650623779296875,-0.11050970846414565,-0.013078311955556273,0.013966931358352303
1761507665137779700,8.67077978515625,-0.09900631767511367,0.03561944878324866,0.006055062255263328
1761507665157935900,8.690935791015624,-0.1138233630567789,-0.02079692350886762,-0.001844093496724963
1761507665178091800,8.711091796875,-0.09679097971320151,-0.008333236320316791,-0.047864817046001554
1761507665198246700,8.73124658203125,-0.05094517433941364,0.007623480615764856,-0.06407258613370359
1761507665218402800,8.75140283203125,-0.04654781616330147,-0.0057557139825075865,-0.06382160704731941
1761507665238558700,8.771558837890625,-0.029855624559521673,-0.006374868794158101,-0.05442658671438694
1761507665258715000,8.79171484375,-0.009981880310177802,0.006073620825260877,-0.03791888483203947
1761507665278870800,8.811870849609376,0.009002221623063087,0.018079408178478477,-0.03578179973810911
1761507665299026700,8.832026611328125,-0.005521393769979476,0.04130779661796987,0.007357450090721249
1761507665319181800,8.852181884765624,0.00646364305615425,0.035633988765254615,0.01113039275817573
1761507665339337700,8.872337646484375,0.006454290705919265,-0.04260375471264124,0.022949425367638467
1761507665359493600,8.89249365234375,0.02201134079992771,-0.02467171911559999,-0.021974515920877454
1761507665379649800,8.91264990234375,-0.0010258359163999556,-0.015284005306288598,-0.03214928845465183
1761507665399802000,8.932802001953124,-0.03235153302848339,-0.022541648284345864,0.002803659243881702
1761507665419957200,8.952957275390625,-0.11277297722101211,-0.012630202861875295,0.009351765713095664
1761507665440113400,8.973113525390625,-0.1338227795124054,0.013213190381601451,-0.029173268318548797
1761507665460269300,8.993269287109374,-0.13652093255519865,-0.01120228895060718,-0.027720219966024157
1761507665480425200,9.01342529296875,-0.04821253450512886,-0.0764024908747524,-0.022167188948765397
1761507665500581400,9.033581298828125,-0.025656419304013252,-0.12184424549229442,0.01707914509475231
1761507665520737300,9.0537373046875,0.027863573959469794,-0.07184475450515747,0.04857340370677411
1761507665540892200,9.07389208984375,-0.023529928669333455,-0.03301430778615176,0.06105126555114984
1761507665561048300,9.09404833984375,-0.07984393656551837,-0.028840894559025762,0.08198599009551108
1761507665581204200,9.114204345703126,-0.07758300589621067,-0.04106258968524635,0.07937624598853289
1761507665601360100,9.134360107421875,-0.0548942042261362,-0.01944222096428275,0.05373838525451719
1761507665621516300,9.154516357421874,-0.07551379840672015,-0.0319364494215697,0.048184477454423905
1761507665641671200,9.174671142578125,-0.06936462812721729,-0.030788813756406304,0.03910612185522914
1761507665661827000,9.1948271484375,-0.016658873856067655,-0.050183323121443385,0.013645005927607416
1761507665681983200,9.214983154296876,-0.0012017770051956176,-0.05775397757142782,0.006714476012066007
1761507665702139100,9.23513916015625,0.0021411036819219587,-0.0485051607761532,0.028090222322195768
1761507665722295300,9.25529541015625,-0.03500175527632236,-0.03339242038354277,0.05234525039568543
1761507665742450200,9.2754501953125,-0.034164719930291174,-0.012609890726208686,0.06396686073690652
1761507665762606000,9.295606201171875,-0.02200432653725147,-0.031551322561502455,0.07313289461955427
1761507665782762200,9.31576220703125,0.048507718059420585,-0.04716266012601554,0.0003213409088551998
1761507665802918100,9.335918212890626,-0.06478431459963321,-0.04400470755174756,0.0057286067798733705
1761507665823074000,9.356073974609375,-0.0420890831887722,-0.03060914634056389,-0.03262552766427398
1761507665843230200,9.376230224609374,-0.05289280127584934,-0.04047309935949742,-0.03268456437513232
1761507665863385000,9.396385009765625,-0.1044207439392805,-0.03288856251463294,-0.0011301000084728001
1761507665883541000,9.416541015625,-0.08366963233351707,-0.009306538331881165,0.00942863034158945
1761507665903697200,9.436697265625,-0.11347849514186381,0.01441679401770234,0.02727116102427244
1761507665923853000,9.45685302734375,-0.07501637027859688,0.02334923834018409,0.029653087724745272
1761507665944009200,9.47700927734375,-0.032359131813049315,-0.019360607095435262,-0.004844955813139677
1761507665964164400,9.497164306640625,-0.014934534281492232,-0.07261267013773322,0.009173486536741255
1761507665984320300,9.5173203125,0.015791443371772764,-0.06934585036151111,0.0032153818499296902
1761507666004476400,9.537476318359374,0.025356559574604032,-0.08952997573427855,0.02942731614485383
1761507666024632300,9.55763232421875,-0.0009644611179828644,-0.02461684712320566,0.010940057817846537
1761507666044788200,9.577788330078125,-0.009095745125412941,0.017005714532360435,0.03997852077558636
1761507666064943000,9.597943115234376,-0.14788871426582337,0.0034184301413595674,0.04206431407369673
1761507666085099300,9.618099365234375,-0.15459610294997692,0.00812631557136774,-0.006558116406574845
1761507666105255200,9.638255126953124,-0.11703823345005511,-0.014289075984805822,-0.029733021093159912
1761507666125411300,9.658411376953126,-0.04909340899288654,-0.06205298993960023,-0.017626257583498953
1761507666145567200,9.678567138671875,0.005170680636167526,-0.0843253928285092,0.0005510580115020275
1761507666165723100,9.69872314453125,0.01486322261095047,-0.08346249238885939,0.06411401412263512
1761507666185878300,9.718878173828125,-0.0006815525233745574,-0.04840206572785973,0.08889343139640986
1761507666206034200,9.7390341796875,-0.04493979644477367,-0.01045388173609972,0.10165164455212652
1761507666226190000,9.759190185546874,-0.08799392527341843,-0.02920717058815062,0.07275777769684791
1761507666246346200,9.77934619140625,-0.09078852442800998,-0.06751695443391799,0.04146349863633513
1761507666266502100,9.799502197265625,-0.06681669721007347,-0.10323263013325631,0.02415054478570819
1761507666286657000,9.819656982421876,-0.033459202009439463,-0.07367891112975776,0.030761414292827246
1761507666306813200,9.839813232421875,-0.05750292541980743,0.01208469780832529,0.046215515469014645
1761507666326969000,9.859968994140624,-0.09948679466843605,-0.0019818214669823646,0.05418722500056028
1761507666347125200,9.880125244140626,-0.09371581005156039,0.002521700497344136,0.031133243279904126
1761507666367281200,9.90028125,-0.08815466879308223,0.011045052562281488,0.004087853835523128
1761507666387436000,9.92043603515625,-0.051878655797243114,0.0063075757116079325,-0.0379325480312109
1761507666407592000,9.940592041015625,-0.027245734322071075,-0.03527428860738873,-0.04519274829253554
1761507666427748000,9.960748046875,0.015506781211495398,0.032556481016054746,-0.037164413202926516
1761507666447904000,9.980904052734376,-0.015231471401453017,0.05156403689011931,-0.019063085453584788
1761507666468060000,10.001059814453125,-0.02254033311009407,0.013439911809563635,-0.007699030070006847
1761507666488216000,10.021216064453125,-0.03130933049917221,0.028274931239336727,0.0034564971294254064
1761507666508371200,10.04137109375,-0.04176408901810646,0.016435805689916014,-0.00568147970251739
1761507666528527000,10.061527099609375,-0.07407178290486335,-0.046410234323516486,-0.005294233950600028
1761507666548683300,10.081683349609374,-0.07104980473518371,-0.021906053794547915,-0.005707783187553286
1761507666568839200,10.101839111328125,-0.04749240353703499,-0.009259776580706237,-0.0028207565091550348
1761507666588995300,10.121995361328125,-0.05388648848831653,0.00025024843402206894,0.012895575799793004
1761507666609150200,10.142150146484376,-0.01395604463815689,-0.01823335663117468,0.03819134509786963
1761507666629306000,10.16230615234375,-0.1257359191685915,-0.024918168157339094,0.037199046124890445
1761507666649462300,10.182462158203125,-0.07701309705376624,0.013296777011826634,0.024203590147197244
1761507666669618200,10.2026181640625,-0.05054945302009582,0.04174516512192786,0.005008183550834655
1761507666689774000,10.222774169921875,-0.03711947808265686,0.024267449163645503,0.005750014894083142
1761507666709929200,10.24292919921875,-0.05230418773293495,0.004051028956472873,0.014859569349139928
1761507666730085000,10.263085205078125,0.017035890474915504,-0.043633609217032784,0.013954583333432673
1761507666750241000,10.283240966796875,-0.016710896304249764,-0.11624671774618327,-0.031780016750842334
1761507666770397200,10.303397216796874,-0.059652796930074685,-0.1264076078850776,-0.001669467582181096
1761507666790553000,10.323552978515625,-0.04587678503394126,-0.08990801526643336,0.059411681650578974
1761507666810709000,10.343708984375,-0.10236498045325279,-0.005368395165354013,0.1455566911216825
1761507666830864100,10.363864013671876,-0.04172024987637996,-0.012362418771162629,0.08253281032331287
1761507666851020000,10.38402001953125,-0.10062018261253833,-0.05611695095412433,0.03722454589232802
1761507666871176000,10.404176025390624,-0.1618167018532753,-0.0450453026458621,-0.002606821497529745
1761507666891332000,10.42433203125,-0.03507248242497444,-0.038346608724817634,-0.044696270012483
1761507666911488000,10.444488037109375,0.0016565350353717804,-0.09925912339240311,-0.03205145410336554
1761507666931643100,10.46464306640625,-0.0005558803170919418,-0.09497070548348129,-0.010043182043358682
1761507666951799000,10.484799072265625,-0.009651040920615195,-0.05514401426874101,0.02506261812932789
1761507666971955000,10.504954833984375,-0.031788638448715205,-0.014588862648978828,0.05370689413771033
1761507666992111000,10.525111083984376,-0.06281155322194099,-0.0007429273217916488,0.05756539619676768
1761507667012267000,10.54526708984375,-0.10956745917797088,-0.06757328773103655,0.04194879793524742
1761507667032422100,10.565422119140624,-0.07533668827414512,-0.09662161449566482,0.036597792296111584
1761507667052578300,10.585578369140626,0.01056406411230564,-0.05375109860561788,0.009082154991477727
1761507667072734200,10.605734130859375,-0.03788578628003597,-0.05035137316472828,0.0032461423143744467
1761507667092890000,10.62589013671875,-0.21958441568911075,0.00586165857501328,0.06773673466444015
1761507667113046300,10.64604638671875,-0.08921265341341494,-0.037811844260990615,0.0627468174226582
1761507667133201200,10.666201171875,-0.14683832843005656,0.03954984703473746,0.08034925573915243
1761507667153357000,10.686357177734376,-0.27000585841536523,0.008937047432363033,0.044327875091508026
1761507667173513200,10.70651318359375,-0.37508769661188124,-0.09149930304586887,0.041764819670468564
1761507667193669000,10.726669189453125,-0.30061142455935475,-0.10288863900117576,0.01243365737646818
