time,seconds_elapsed,z,y,x
1761507656551398100,0.084398193359375,-0.006277094129472971,0.0334278866648674,-0.07360050082206726
1761507656571554300,0.10455419921875,-0.009063826873898506,0.023106763139367104,-0.08485662937164307
1761507656591710200,0.124710205078125,-0.017251454293727875,0.026067806407809258,-0.04764832928776741
1761507656611865000,0.144864990234375,-0.02177565172314644,0.019302070140838623,-0.010600768961012363
1761507656632021000,0.16502099609375,-0.02602366916835308,0.006960991770029068,0.017821447923779488
1761507656652177200,0.18517724609375,-0.020056312903761864,0.0018232539296150208,0.04130292683839798
1761507656672333000,0.2053330078125,-0.01662961021065712,-0.0076884194277226925,0.04055311530828476
1761507656692489200,0.2254892578125,-0.008257710374891758,-0.010347658768296242,0.045243874192237854
1761507656712645000,0.24564501953125,0.003213598160073161,-0.019225358963012695,0.015355832874774933
1761507656732800000,0.265800048828125,0.013353578746318817,-0.03612244501709938,-0.00039361976087093353
1761507656752956200,0.2859560546875,0.019773663952946663,-0.02759518474340439,-0.0018697753548622131
1761507656773112000,0.306112060546875,0.015069464221596718,-0.031005151569843292,-0.020022328943014145
1761507656793268000,0.32626806640625,0.017244959250092506,-0.011059094220399857,-0.008753841742873192
1761507656813424000,0.346424072265625,0.019777685403823853,-0.01650635525584221,-0.018563495948910713
1761507656833580000,0.366580078125,0.032221801578998566,-0.034590233117341995,-0.03844600170850754
1761507656853735000,0.38673486328125,0.04508650302886963,-0.019490551203489304,0.0015710170846432447
1761507656873891000,0.40689111328125,0.044224679470062256,-0.033798400312662125,0.0026315331924706697
1761507656894047000,0.427046875,0.04330535605549812,-0.01901257410645485,0.024950936436653137
1761507656914203100,0.447203125,0.0352458581328392,-0.0237138494849205,0.043725479394197464
1761507656934359000,0.467359130859375,0.029772471636533737,-0.01431822869926691,0.05267171934247017
1761507656954514000,0.487513916015625,0.0297384075820446,-0.011510351672768593,0.0541127473115921
1761507656974670000,0.507670166015625,0.031913693994283676,-0.022035008296370506,0.027649886906147003
1761507656994826000,0.527825927734375,0.0319824181497097,-0.01669156923890114,0.014878567308187485
1761507657014982000,0.54798193359375,0.029660116881132126,-0.0015204837545752525,0.013849781826138496
1761507657035138000,0.568137939453125,0.022269591689109802,0.007985825650393963,0.004962450824677944
1761507657055294000,0.5882939453125,0.013312806375324726,0.012230867519974709,-0.001567533239722252
1761507657075449000,0.608448974609375,0.006082641892135143,0.008640685118734837,-0.027364494279026985
1761507657095605200,0.628605224609375,0.00003085075877606869,-0.0046731336042284966,-0.047948338091373444
1761507657115761200,0.64876123046875,0.006966777145862579,0.0049928221851587296,-0.04359497129917145
1761507657135917300,0.668917236328125,0.017684169113636017,0.005037385039031506,-0.03604321926832199
1761507657156073200,0.6890732421875,0.0242288988083601,0.017887474969029427,-0.016490956768393517
1761507657176228000,0.70922802734375,0.02524382621049881,0.0015975907444953918,-0.022022658959031105
1761507657196384000,0.729384033203125,0.028387676924467087,0.01607077568769455,0.022203806787729263
1761507657216540200,0.7495400390625,0.017532600089907646,0.0015921443700790405,0.017693649977445602
1761507657236696000,0.769696044921875,0.018246600404381752,-0.008181177079677582,0.0026679160073399544
1761507657256852200,0.789852294921875,0.01938774809241295,-0.00811715330928564,0.006083247717469931
1761507657277008100,0.810008056640625,0.015068141743540764,-0.014818204566836357,-0.024630825966596603
1761507657297163000,0.8301630859375,0.010108806192874908,-0.0005201408639550209,-0.017871955409646034
1761507657317319200,0.850319091796875,0.007339120842516422,0.005083191208541393,0.006846722215414047
1761507657337475000,0.87047509765625,0.004402455873787403,-0.0025400230661034584,-0.011269929818809032
1761507657357631000,0.890630859375,0.010727720335125923,-0.017143452540040016,-0.03946571424603462
1761507657377787100,0.910787109375,0.011453167535364628,-0.018176451325416565,-0.0160788856446743
1761507657397940000,0.93093994140625,0.0038008512929081917,-0.030587775632739067,0.023948827758431435
1761507657418094800,0.9510947265625,-0.008825214579701424,-0.02559276670217514,0.09143657237291336
1761507657438250800,0.971250732421875,-0.027518197894096375,-0.01618196815252304,0.13104800879955292
1761507657458407000,0.991406982421875,-0.034632567316293716,-0.01897970214486122,0.11383222788572311
1761507657478562800,1.011562744140625,-0.029558733105659485,-0.02228408493101597,0.05125201493501663
1761507657498718700,1.03171875,-0.016788307577371597,-0.0479586087167263,-0.01906355284154415
1761507657518873900,1.051873779296875,-0.009795136749744415,-0.02239191345870495,-0.023880166932940483
1761507657539029800,1.07202978515625,-0.012883864343166351,-0.01353988703340292,-0.02153703197836876
1761507657559185700,1.092185546875,-0.017331356182694435,0.009147468023002148,0.0076254927553236485
1761507657579341800,1.112341796875,-0.022665660828351974,-0.008318129926919937,0.012151886709034443
1761507657599497700,1.132497802734375,-0.028199471533298492,-0.002243424765765667,0.012221619486808777
1761507657619653600,1.152653564453125,-0.026958933100104332,-0.0014002742245793343,0.01393872033804655
1761507657639808800,1.172808837890625,-0.01766023598611355,-0.008447179570794106,-0.005362239666283131
1761507657659964700,1.192964599609375,-0.002101033926010132,-0.0010374486446380615,-0.0000034244731068611145
1761507657680120800,1.213120849609375,0.007192886900156736,-0.008816564455628395,-0.005327675957232714
1761507657700276700,1.23327685546875,0.011167394928634167,0.013126455247402191,0.004531148821115494
1761507657720432600,1.2534326171875,0.014035353437066078,0.014172278344631195,0.013820254243910313
1761507657740588800,1.2735888671875,0.026353808119893074,-0.0015530288219451904,0.000463221687823534
1761507657760744000,1.293743896484375,0.030675837770104408,-0.001974147744476795,-0.0018037979025393724
1761507657780899800,1.31389990234375,0.03169742971658707,-0.007611527107656002,-0.011164276860654354
1761507657801056000,1.334055908203125,0.03138609603047371,0.01614605262875557,0.02375260926783085
1761507657821212000,1.3542119140625,0.026447558775544167,0.0013561099767684937,0.013158844783902168
1761507657841367800,1.374367919921875,0.02558467909693718,0.0018744710832834244,0.0009552713017910719
1761507657861523000,1.39452294921875,0.022638993337750435,-0.002042781561613083,-0.005696347914636135
1761507657881678800,1.414678955078125,0.019970465451478958,-0.004577120766043663,-0.01953752152621746
1761507657901834800,1.434834716796875,0.012835333123803139,-0.000270577147603035,-0.010164973326027393
1761507657921991000,1.454990966796875,0.008487200364470482,0.0072954921051859856,-0.0025111944414675236
1761507657942146800,1.475146728515625,0.004781941417604685,0.0031496649608016014,0.0024092276580631733
1761507657962303000,1.495302978515625,0.0015488667413592339,-0.00040636956691741943,-0.003770603332668543
1761507657982457900,1.515457763671875,0.0003104778006672859,0.0031359251588582993,0.0010726824402809143
1761507658002613800,1.53561376953125,-0.0021558841690421104,0.0015828236937522888,0.011303928680717945
1761507658022770000,1.55577001953125,-0.004468032158911228,-0.0034189121797680855,-0.0034056890290230513
1761507658042925800,1.57592578125,0.000025537214241921902,-0.02759142592549324,-0.012403257191181183
1761507658063081700,1.596081787109375,-0.00197290675714612,-0.03690178319811821,0.00584650132805109
1761507658083236900,1.61623681640625,-0.015986453741788864,-0.013837307691574097,0.034301113337278366
1761507658103392800,1.636392822265625,-0.030375521630048752,0.003399524837732315,0.05305447801947594
1761507658123548700,1.656548583984375,-0.022981783375144005,-0.006989339832216501,0.0228127371519804
1761507658143704800,1.676704833984375,-0.010083548724651337,-0.013809623196721077,-0.011172525584697723
1761507658163860700,1.69686083984375,0.005158775486052036,-0.008102808147668839,-0.031246503815054893
1761507658184016600,1.7170166015625,0.015793032944202423,0.0031255818903446198,-0.039805758744478226
1761507658204171800,1.737171875,0.019169699400663376,0.009698772802948952,-0.03021439164876938
1761507658224327700,1.75732763671875,0.019724693149328232,0.007870260626077652,-0.010231461375951767
1761507658244483600,1.777483642578125,0.009643291123211384,0.007839158177375793,0.00039872736670076847
1761507658264639700,1.7976396484375,0.005778244696557522,-0.001327485777437687,0.00046182749792933464
1761507658284795600,1.817795654296875,0.003596850438043475,0.0001226486638188362,-0.003063115756958723
1761507658304951800,1.837951904296875,0.002884446643292904,0.0006156126037240028,-0.015346248634159565
1761507658325107000,1.85810693359375,0.0002958525437861681,0.007160022854804993,-0.015855729579925537
1761507658345262800,1.878262939453125,-0.0029638539999723434,0.0058919088914990425,-0.02937789261341095
1761507658365419000,1.8984189453125,-0.001982461428269744,0.020190700888633728,-0.019505338743329048
1761507658385575000,1.918574951171875,0.000845528906211257,0.014011269435286522,-0.029540911316871643
1761507658405729800,1.938729736328125,0.005402194336056709,0.004328464157879353,-0.03182034566998482
1761507658425884700,1.958884765625,0.003184846369549632,-0.0049550486728549,-0.01866406574845314
1761507658446040600,1.97904052734375,-0.001994464546442032,-0.0023530125617980957,-0.0023649362847208977
1761507658466196700,1.99919677734375,-0.011590651236474514,0.008441603742539883,0.01941339112818241
1761507658486352600,2.0193525390625,-0.023857412859797478,0.008250531740486622,0.02032419852912426
1761507658506508800,2.0395087890625,-0.02835017256438732,0.010001657530665398,0.0012542996555566788
1761507658526664700,2.059664794921875,-0.03324718400835991,-0.014643599279224873,-0.03289135545492172
1761507658546819600,2.079819580078125,-0.03438037633895874,0.009443246759474277,-0.03180253878235817
1761507658566975700,2.099975830078125,-0.03314489498734474,0.005983775481581688,-0.04133107140660286
1761507658587131600,2.120131591796875,-0.022308530285954475,0.012679828330874443,-0.029680516570806503
1761507658607287600,2.14028759765625,-0.013240199536085129,-0.0021030697971582413,-0.029100460931658745
1761507658627443700,2.160443603515625,-0.0023499829694628716,-0.0018125027418136597,-0.019171977415680885
1761507658647598800,2.180598876953125,-0.0016370742814615369,-0.006208374164998531,0.003000732511281967
1761507658667754800,2.200754638671875,-0.008367929607629776,0.0015307879075407982,0.02035837061703205
1761507658687911000,2.220910888671875,-0.008031034842133522,-0.0017071813344955444,0.013212645426392555
1761507658708066800,2.24106689453125,-0.010916586965322495,-0.019627340137958527,0.006208045408129692
1761507658728222700,2.26122265625,-0.008108017034828663,-0.02451184391975403,0.0027041244320571423
1761507658748379000,2.28137890625,-0.019119102507829666,-0.0026298407465219498,0.02474311739206314
1761507658768533800,2.30153369140625,-0.029736626893281937,0.0028739022091031075,-0.000683286227285862
1761507658788690000,2.32168994140625,-0.020307719707489014,0.00956360436975956,-0.017873097211122513
1761507658808845800,2.341845703125,-0.00651759747415781,-0.005670263897627592,-0.04143080115318298
1761507658829001700,2.362001708984375,0.0036865905858576298,0.01097770594060421,-0.017189420759677887
1761507658849158000,2.382157958984375,0.011174600571393967,0.011121250689029694,-0.014395234175026417
1761507658869313800,2.402313720703125,0.017704913392663002,0.017070649191737175,0.011312536895275116
1761507658889468700,2.42246875,0.023816367611289024,-0.005232478491961956,0.013792546465992928
1761507658909624800,2.442624755859375,0.022837115451693535,0.0019503887742757797,0.03409746661782265
1761507658929780700,2.46278076171875,0.02115079015493393,0.001734376884996891,0.028240257874131203
1761507658949936600,2.4829365234375,0.019795777276158333,0.00015946850180625916,0.013527392409741879
1761507658970092800,2.5030927734375,0.018520375713706017,-0.004372547380626202,-0.005478410515934229
1761507658990247700,2.52324755859375,0.013693969696760178,-0.0076419939287006855,-0.010415169410407543
1761507659010403600,2.543403564453125,0.009966835379600525,0.0036757923662662506,-0.019270922988653183
1761507659030559700,2.563559814453125,0.009509879164397717,-0.001232522539794445,-0.043517448008060455
1761507659050715600,2.583715576171875,0.008258968591690063,-0.0023480374366045,-0.05142279341816902
1761507659070871800,2.603871826171875,0.007304495200514793,-0.005134951323270798,-0.04810579493641853
1761507659091027700,2.62402783203125,0.006627509370446205,0.002761024981737137,-0.025891419500112534
1761507659111182600,2.6441826171875,0.0008402217645198107,0.0073305219411849976,0.0020777019672095776
1761507659131338800,2.6643388671875,-0.0029137753881514072,-0.006163883488625288,0.02161005698144436
1761507659151494700,2.68449462890625,-0.008884338662028313,-0.006824490148574114,0.04224688559770584
1761507659171650600,2.704650634765625,-0.015204278752207756,-0.0022090207785367966,0.04816771298646927
1761507659191806700,2.724806640625,-0.022905346006155014,-0.004535950720310211,0.03462149202823639
1761507659211962600,2.744962646484375,-0.018438423052430153,-0.006690364796668291,0.010027766227722168
1761507659232117800,2.76511767578125,-0.013093966990709305,-0.010317630134522915,-0.012362190522253513
1761507659252274000,2.78527392578125,-0.02091381698846817,0.0026273932307958603,-0.029152490198612213
1761507659272429800,2.805429931640625,-0.021999608725309372,0.010645579546689987,-0.027768680825829506
1761507659292585700,2.825585693359375,-0.024192199110984802,0.00903571117669344,-0.043907806277275085
1761507659312741600,2.84574169921875,-0.019480261951684952,0.0005584647879004478,-0.055503424257040024
1761507659332896800,2.865896728515625,-0.011414616368710995,-0.0019343392923474312,-0.050550512969493866
1761507659353053000,2.886052978515625,-0.008146906271576881,0.00145749282091856,-0.041169941425323486
1761507659373208800,2.906208740234375,0.0005299383774399757,-0.005125841125845909,-0.012133495882153511
1761507659393365500,2.926365478515625,0.00475422665476799,-0.004204853437840939,0.011698944494128227
1761507659413521400,2.946521484375,-0.00011403847020119429,-0.0007178811356425285,0.036841779947280884
1761507659433677300,2.96667724609375,-0.0016874035354703665,0.0011846870183944702,0.04297802969813347
1761507659453832400,2.98683251953125,0.001129418844357133,0.006342346780002117,0.0216524638235569
1761507659473988600,3.006988525390625,0.008646698668599129,0.005157362669706345,0.00020868424326181412
1761507659494144500,3.02714453125,0.022454138845205307,0.003893541172146797,-0.0024774919729679823
1761507659514300700,3.04730078125,0.024194248020648956,0.008792692795395851,-0.006148659624159336
1761507659534456600,3.06745654296875,0.02588377147912979,0.014367643743753433,-0.002065064385533333
1761507659554612500,3.087612548828125,0.02324935793876648,0.006426207721233368,-0.003341154893860221
1761507659574767600,3.107767578125,0.020132651552557945,0.002438977360725403,-0.006345553323626518
1761507659594923500,3.127923583984375,0.018355807289481163,0.004835979081690311,0.020224444568157196
1761507659615079400,3.148079345703125,0.009383630007505417,-0.008066922426223755,0.005733537953346968
1761507659635235600,3.168235595703125,0.013649226166307926,0.001747163012623787,0.02456062287092209
1761507659655391500,3.1883916015625,0.014557600021362305,-0.001469266600906849,0.030184846371412277
1761507659675547600,3.208547607421875,0.011557541787624359,0.0053517185151577,0.014621265232563019
1761507659695702500,3.22870263671875,0.005494607612490654,0.008673188276588917,0.01369202695786953
1761507659715858400,3.2488583984375,0.008829420432448387,-0.007510490715503693,-0.011749915778636932
1761507659736014600,3.2690146484375,0.00502003263682127,-0.003222087398171425,-0.01320962980389595
1761507659756170500,3.28917041015625,-0.0008477226365357637,0.004321245476603508,-0.02449224703013897
1761507659776326400,3.309326416015625,-0.009592220187187195,0.005229702219367027,-0.022709611803293228
1761507659796481300,3.329481201171875,-0.00964120589196682,-0.0034272773191332817,-0.015036074444651604
1761507659816637400,3.349637451171875,-0.0130069050937891,-0.01191411167383194,-0.001640058122575283
1761507659836793300,3.36979345703125,-0.021659785881638527,-0.004946610890328884,0.016236092895269394
1761507659856949500,3.389949462890625,-0.03985317051410675,-0.007137326989322901,0.02392170950770378
1761507659877105400,3.41010546875,-0.04431050270795822,-0.008445962332189083,0.02232835814356804
1761507659897261300,3.43026123046875,-0.04699815809726715,-0.017698945477604866,0.00859743356704712
1761507659917416400,3.45041650390625,-0.03437742963433266,-0.004721418023109436,-0.001752324402332306
1761507659937572400,3.470572265625,-0.030459409579634666,-0.00851545762270689,-0.01793527789413929
1761507659957728500,3.490728515625,-0.017333999276161194,0.004156762734055519,-0.028710171580314636
1761507659977884400,3.510884521484375,-0.014657264575362206,-0.0005383780226111412,-0.034113559871912
1761507659998040300,3.531040283203125,-0.005331420339643955,-0.004966529086232185,-0.020083649083971977
1761507660018196500,3.551196533203125,-0.0033217929303646088,0.006580573506653309,-0.00514431344345212
1761507660038351600,3.5713515625,-0.0036016975063830614,0.020541759207844734,0.017194213345646858
1761507660058507500,3.591507568359375,-0.004858960397541523,-0.0038462476804852486,0.009791861288249493
1761507660078663700,3.61166357421875,-0.0035473480820655823,0.0015132669359445572,0.010397798381745815
1761507660098819600,3.631819580078125,-0.009725620970129967,0.004707293584942818,0.016224993392825127
1761507660118975500,3.6519755859375,-0.013163487426936626,0.0015948442742228508,-0.001955240499228239
1761507660139131600,3.672131591796875,-0.010474791750311852,0.006297364830970764,-0.027517151087522507
1761507660159286500,3.69228662109375,0.0022604737896472216,0.0055143991485238075,-0.03963581100106239
1761507660179442400,3.7124423828125,0.013272900134325027,0.010082489810883999,-0.03178732469677925
1761507660199598600,3.7325986328125,0.02291780896484852,0.014299733564257622,-0.01780940592288971
1761507660219754500,3.75275439453125,0.023311953991651535,0.013683349825441837,0.0066980160772800446
1761507660239910700,3.77291064453125,0.019411204382777214,0.008953153155744076,0.019020825624465942
1761507660260066600,3.793066650390625,0.012296058237552643,0.007467168383300304,0.02861643210053444
1761507660280221400,3.813221435546875,0.003907640464603901,0.0064276400953531265,0.024984214454889297
1761507660300377300,3.83337744140625,0.0038421147037297487,-0.0035129468888044357,0.00967836007475853
1761507660320533500,3.853533447265625,0.004961178172379732,-0.008305487222969532,0.00037543964572250843
1761507660340689400,3.873689453125,0.0021480750292539597,0.0032386155799031258,0.007713711820542812
1761507660360845600,3.893845458984375,-0.0027444064617156982,-0.0016860319301486015,0.00626162625849247
1761507660381000400,3.91400048828125,-0.0027923942543566227,0.002905275672674179,0.011284882202744484
1761507660401156600,3.934156494140625,0.00048730848357081413,-0.004249104298651218,0.0034873359836637974
1761507660421312800,3.954312744140625,-0.0005915188230574131,-0.0005731675773859024,0.009380850940942764
1761507660441468700,3.97446875,-0.000436249072663486,-0.006611140910536051,0.0012170153204351664
1761507660461624600,3.99462451171875,0.0005879921372979879,-0.006175477989017963,0.0057013933546841145
1761507660481780700,4.01478076171875,-0.002042153850197792,-0.01251454558223486,0.005425137933343649
1761507660501935600,4.034935546875,-0.008848902769386768,-0.0007165977731347084,0.017585137858986855
1761507660522091500,4.055091552734375,-0.012347768992185593,-0.004320514388382435,0.01405879482626915
1761507660542247000,4.075246826171875,-0.014777906239032745,0.005735231563448906,0.021568607538938522
1761507660562402800,4.09540283203125,-0.015941999852657318,-0.005656627006828785,0.007282589562237263
1761507660582558700,4.115558837890625,-0.014697476290166378,0.006787754595279694,-0.001515920739620924
1761507660602715000,4.13571484375,-0.011393335647881031,0.009218916296958923,-0.011776460334658623
1761507660622870800,4.155870849609375,-0.0040288567543029785,0.013151026330888271,-0.01669384352862835
1761507660643027000,4.17602685546875,0.0005461790133267641,0.016050156205892563,-0.00485273078083992
1761507660663181800,4.196181884765625,-0.0005883245030418038,0.016559705138206482,-0.01169009692966938
1761507660683337700,4.216337646484375,0.000038304366171360016,0.0016943998634815216,-0.01829247735440731
1761507660703494000,4.236493896484375,0.003424552036449313,-0.0015985658392310143,-0.017946356907486916
1761507660723649800,4.25664990234375,0.007368134334683418,0.005334705114364624,-0.016380472108721733
1761507660743805700,4.2768056640625,0.011152773164212704,-0.005307495594024658,-0.01063419971615076
1761507660763960800,4.2969609375,0.013820980675518513,-0.020207993686199188,0.0034769398625940084
1761507660784116700,4.31711669921875,0.011092567816376686,-0.01073073036968708,0.03607424348592758
1761507660804272600,4.337272705078125,0.002911604708060622,-0.004677855409681797,0.03892730921506882
1761507660824428800,4.3574287109375,-0.0006410417845472693,-0.008370298892259598,0.018629878759384155
1761507660844584700,4.377584716796875,0.009704770520329475,-0.010434158146381378,-0.00491445604711771
1761507660864740900,4.397740966796875,0.02153134159743786,-0.010296877473592758,-0.023967988789081573
1761507660884895700,4.417895751953125,0.025873379781842232,0.0035467855632305145,-0.02304551564157009
1761507660905051600,4.4380517578125,0.03356485441327095,-0.006622314453125,-0.022842882201075554
1761507660925207800,4.458207763671875,0.03006894886493683,-0.006286220625042915,0.0009495869744569063
1761507660945363700,4.47836376953125,0.02194599062204361,-0.004346172325313091,0.016011331230401993
1761507660965519600,4.49851953125,0.015039621852338314,-0.003299112431704998,0.04324009269475937
1761507660985675800,4.51867578125,0.013466265983879566,-0.019427938386797905,0.038960050791502
1761507661005830700,4.53883056640625,0.014423388056457043,-0.008085285313427448,0.055115099996328354
1761507661025986600,4.558986572265625,0.013293135911226273,-0.013704990968108177,0.044665053486824036
1761507661046142700,4.579142822265625,0.012641973793506622,0.002308621071279049,0.040961723774671555
1761507661066298600,4.599298583984375,0.005637873895466328,0.0031478554010391235,0.021820124238729477
1761507661086454500,4.61945458984375,0.001865260535851121,0.014549440704286098,0.000038900645449757576
1761507661106612700,4.63961279296875,0.00036244001239538193,0.017432620748877525,-0.018853280693292618
1761507661126769000,4.659768798828125,0.0035875008907169104,0.010671158321201801,-0.04051254317164421
1761507661146923800,4.679923828125,0.008319183252751827,0.01141761988401413,-0.03696947917342186
1761507661167079700,4.70007958984375,0.010959151200950146,0.009120684117078781,-0.03214547038078308
1761507661187235800,4.72023583984375,0.010790040716528893,0.011800398118793964,-0.01818942092359066
1761507661207391700,4.740391845703125,0.0064871786162257195,0.008380535989999771,-0.015627127140760422
1761507661227547600,4.760547607421875,0.001876424765214324,0.00800572894513607,-0.014669710770249367
1761507661247703800,4.780703857421875,-0.0033745132386684418,0.00497285183519125,-0.012882274575531483
1761507661267858700,4.800858642578125,-0.0027726590633392334,0.005635163746774197,-0.009279239922761917
1761507661288014600,4.8210146484375,-0.014651693403720856,0.0017742514610290527,-0.011750970967113972
1761507661308170800,4.841170654296875,-0.02228962443768978,0.005806966684758663,-0.02199518121778965
1761507661328326700,4.86132666015625,-0.0270867757499218,0.005962229333817959,-0.0227736234664917
1761507661348482800,4.88148291015625,-0.03333140164613724,0.007741671986877918,-0.014961440116167068
1761507661368638700,4.901638671875,-0.03020506538450718,0.008624760434031487,-0.020834509283304214
1761507661388793000,4.92179296875,-0.031149694696068764,0.005152895115315914,-0.027125494554638863
1761507661408949200,4.94194921875,-0.02390323020517826,0.002158212475478649,-0.02400878071784973
1761507661429105200,4.962105224609375,-0.01598382368683815,0.0009719487279653549,-0.02640412002801895
1761507661449261000,4.982260986328125,-0.01194933895021677,-0.013286746107041836,-0.025344550609588623
1761507661469417200,5.002417236328125,-0.014542770572006702,-0.008997170254588127,-0.004145781509578228
1761507661489572000,5.022572021484375,-0.02464943379163742,-0.000522327609360218,0.023733094334602356
1761507661509728000,5.04272802734375,-0.03544299304485321,0.01125000324100256,0.04100969433784485
1761507661529884200,5.06288427734375,-0.031396280974149704,0.00943464320152998,0.026240011677145958
1761507661550040000,5.0830400390625,-0.014347270131111145,0.0022159479558467865,0.005863982252776623
1761507661570196200,5.1031962890625,-0.00010894960723817348,-0.0030492478981614113,-0.003411858808249235
1761507661590352100,5.12335205078125,0.0020210391376167536,0.005371721461415291,-0.0007895294111222029
1761507661610507000,5.143507080078125,0.002320655155926943,0.012574004009366035,0.0030466069001704454
1761507661630663200,5.1636630859375,0.0015949236694723368,0.011142005212605,0.0031015127897262573
1761507661650819000,5.183819091796875,0.0029622032307088375,0.011978576891124249,-0.0068641649559140205
1761507661670975000,5.20397509765625,0.004447980783879757,0.010205178521573544,-0.0036859491374343634
1761507661691131100,5.224131103515625,0.008821146562695503,0.007135589607059956,-0.009686170145869255
1761507661711287000,5.244287109375,0.012472087517380714,0.0014096396043896675,-0.010622916743159294
1761507661731442000,5.26444189453125,0.015786122530698776,0.007442946545779705,-0.007367769256234169
1761507661751598000,5.28459814453125,0.0178599301725626,0.0074683306738734245,-0.0008784104138612747
1761507661771754000,5.30475390625,0.01419755257666111,0.0014739064499735832,-0.008100070059299469
1761507661791910100,5.32491015625,0.020485814660787582,-0.000670568086206913,-0.008128765039145947
1761507661812066000,5.345066162109375,0.023147650063037872,0.004572523757815361,-0.0005826475098729134
1761507661832222000,5.365221923828125,0.022041073068976402,0.0007095197215676308,0.0063761016353964806
1761507661852377000,5.385377197265625,0.019366497173905373,-0.007746824529021978,0.011396052315831184
1761507661872533000,5.405532958984375,0.012763186357915401,-0.016079183667898178,0.014540129341185093
1761507661892689000,5.42568896484375,0.005877830553799868,-0.009554987773299217,0.02815185859799385
1761507661912845000,5.445844970703125,-0.004172933287918568,-0.008137216791510582,0.024008313193917274
1761507661933001000,5.4660009765625,-0.012165898457169533,-0.004356302320957184,0.02143656089901924
1761507661953157000,5.4861572265625,-0.016214393079280853,-0.010193218477070332,0.005281268619000912
1761507661973312300,5.506312255859375,-0.020547393709421158,0.007376912981271744,0.0030584039632230997
1761507661993468200,5.52646826171875,-0.022677909582853317,-0.0006034011021256447,-0.011297479271888733
1761507662013624000,5.5466240234375,-0.01439681462943554,0.0007527777925133705,-0.02274967171251774
1761507662033780200,5.5667802734375,-0.007701327558606863,-0.006283571943640709,-0.025001220405101776
1761507662053936000,5.58693603515625,-0.0014546540332958102,0.0020224889740347862,-0.011816631071269512
1761507662074091000,5.607091064453125,-0.00024476065300405025,-0.006163519341498613,-0.004789393395185471
1761507662094247200,5.6272470703125,0.005971590057015419,-0.006347810383886099,0.01245643850415945
1761507662114403000,5.647403076171875,0.010693086311221123,-0.007094128523021936,0.020825965330004692
1761507662134559200,5.667559326171875,0.013312586583197117,-0.014337237924337387,0.025418490171432495
1761507662154715100,5.687715087890625,0.01792355254292488,-0.01831817999482155,0.023889761418104172
1761507662174871000,5.70787109375,0.017474045976996422,-0.013636209070682526,0.03366713225841522
1761507662195026200,5.728026123046875,0.005627756472676992,-0.000021221116185188293,0.02909111976623535
1761507662215182000,5.74818212890625,0.0020484915003180504,0.00604214146733284,0.005113888066262007
1761507662235338000,5.768337890625,0.00376168848015368,0.0015305904671549797,-0.02073039673268795
1761507662255494100,5.788494140625,0.0162257868796587,-0.00851907953619957,-0.033443570137023926
1761507662275650000,5.808650146484375,0.020652243867516518,0.0009376984089612961,-0.020971015095710754
1761507662295805000,5.828804931640625,0.01978832483291626,-0.00011497735977172852,-0.011295348405838013
1761507662315961000,5.848961181640625,0.013615637086331844,-0.0036733411252498627,0.008710164576768875
1761507662336117000,5.869116943359375,0.013999163173139095,0.009931504726409912,0.03837414085865021
1761507662356273200,5.889273193359375,0.01075011771172285,0.007568860426545143,0.0540912002325058
1761507662376429000,5.909428955078125,0.011115222238004208,-0.0055136242881417274,0.04464077204465866
1761507662396585200,5.929585205078125,0.010391604155302048,-0.006959669757634401,0.044130902737379074
1761507662416740000,5.949739990234375,0.014826346188783646,-0.014145699329674244,0.034983471035957336
1761507662436896000,5.96989599609375,0.012955186888575554,-0.011600658297538757,0.02464880421757698
1761507662457052200,5.99005224609375,0.013660408556461334,-0.00017842929810285568,0.02511690743267536
1761507662477208000,6.0102080078125,0.017498286440968513,-0.0027210749685764313,0.0028709399048238993
1761507662497364200,6.0303642578125,0.0147275160998106,-0.015753451734781265,-0.018665697425603867
1761507662517520100,6.05052001953125,0.02271672710776329,-0.02746620401740074,-0.03077249601483345
1761507662537675300,6.07067529296875,0.025928227230906487,-0.040018875151872635,-0.04724579676985741
1761507662557831200,6.0908310546875,0.024767914786934853,-0.02833326905965805,-0.03155016899108887
1761507662577987000,6.110987060546875,0.011616411618888378,-0.021644629538059235,-0.02308707684278488
1761507662598143000,6.13114306640625,-0.0045148772187530994,-0.034573182463645935,-0.029627414420247078
1761507662618299100,6.151299072265625,0.006122303195297718,-0.02737702988088131,-0.033843137323856354
1761507662638454300,6.171454345703125,-0.012765906751155853,-0.014721283689141273,-0.02642202377319336
1761507662658610200,6.191610107421875,-0.012316359207034111,-0.0017366474494338036,-0.025598257780075073
1761507662678766300,6.211766357421875,-0.009375672787427902,-0.0023929737508296967,-0.03339305520057678
1761507662698922200,6.231922119140625,-0.004803016781806946,-0.0005697449669241905,-0.030063189566135406
1761507662719078400,6.252078369140625,-0.003180895699188113,-0.0040196748450398445,-0.03519044071435928
1761507662739234300,6.272234375,0.0016055777668952942,-0.00427232775837183,-0.021679449826478958
1761507662759389200,6.29238916015625,0.0017736463341861963,0.0009923093020915985,-0.011036936193704605
1761507662779545300,6.31254541015625,-0.00420356122776866,0.005008635111153126,-0.006878778804093599
1761507662799701200,6.332701171875,-0.0021667638793587685,-0.011625662446022034,-0.0014934651553630829
1761507662819857200,6.352857177734375,0.0003989255055785179,-0.018968263640999794,0.005688547156751156
1761507662840013300,6.373013427734375,-0.003586776088923216,-0.004651798866689205,0.029050426557660103
1761507662860169200,6.393169189453125,-0.02021661587059498,0.007055540569126606,0.03850814327597618
1761507662880324000,6.413323974609375,-0.02587265893816948,0.015488690696656704,0.019095873460173607
1761507662900480300,6.433480224609375,-0.01038823090493679,-0.002716158516705036,-0.014154920354485512
1761507662920636200,6.45363623046875,-0.0008258421439677477,-0.0009169513359665871,-0.027245432138442993
1761507662940792000,6.4737919921875,0.0008663043845444918,0.009561211802065372,-0.025085145607590675
1761507662960948200,6.4939482421875,0.0018506015185266733,0.011394588276743889,-0.004348793067038059
1761507662981103000,6.51410302734375,-0.0005882965633645654,0.010039531625807285,0.01845376193523407
1761507663001259000,6.534259033203125,-0.005006492603570223,0.015793178230524063,0.03204984962940216
1761507663021415200,6.554415283203125,-0.00843987800180912,0.006396530196070671,0.03235543519258499
1761507663041571000,6.574571044921875,-0.007515742443501949,0.003716525621712208,0.02107793465256691
1761507663061727200,6.594727294921875,-0.00166795973200351,0.0021509667858481407,0.01379247847944498
1761507663081883100,6.614883056640625,-0.004691204987466335,0.0004003271460533142,0.011860881000757217
1761507663102038300,6.635038330078125,-0.007411587983369827,0.008250742219388485,0.004504839889705181
1761507663122194200,6.655194091796875,-0.00946994498372078,-0.0023033656179904938,-0.006957672070711851
1761507663142350000,6.67535009765625,-0.003996630199253559,0.008477754890918732,-0.0033199628815054893
1761507663162506000,6.695506103515625,-0.002147865714505315,-0.003859381191432476,-0.01850718818604946
1761507663182662100,6.715662109375,0.0017355815507471561,0.009826604276895523,0.0094035929068923
1761507663202817300,6.7358173828125,-0.008399908430874348,-0.0005710795521736145,0.0059099355712533
1761507663222973200,6.75597314453125,-0.004993436858057976,0.005276566371321678,0.027531879022717476
1761507663243129300,6.77612939453125,-0.010692884214222431,-0.00295044481754303,0.04150794446468353
1761507663263285200,6.79628515625,-0.012596528977155685,0.0015018945559859276,0.03506370633840561
1761507663283441400,6.81644140625,-0.013454307802021503,0.0034962566569447517,0.04212217032909393
1761507663303597300,6.836597412109375,-0.012245249934494495,0.00204619113355875,0.01866324618458748
1761507663323752200,6.856752197265625,-0.008332003839313984,0.008676845580339432,0.010737380012869835
1761507663343908400,6.876908447265625,-0.011602884158492088,0.010800562798976898,-0.015326025895774364
1761507663364064300,6.897064208984375,-0.008339970372617245,0.020742174237966537,-0.030941883102059364
1761507663384220200,6.91722021484375,-0.0005946895107626915,0.021635957062244415,-0.03615490347146988
1761507663404376300,6.937376220703125,0.003110522171482444,0.032690539956092834,-0.024528319016098976
1761507663424531200,6.95753125,0.002880451735109091,0.03077537938952446,-0.0349670872092247
1761507663444687400,6.977687255859375,0.00518010463565588,0.012550989165902138,-0.04141176864504814
1761507663464843300,6.99784326171875,0.005232567898929119,-0.0029803412035107613,-0.04122589901089668
1761507663484999400,7.01799951171875,-0.004563639871776104,-0.0012156795710325241,-0.021832101047039032
1761507663505155300,7.0381552734375,-0.01905333250761032,0.010647810995578766,0.007519255392253399
1761507663525311200,7.058311279296875,-0.016429590061306953,0.016650715842843056,0.013516110368072987
1761507663545466400,7.07846630859375,-0.0074257198721170425,0.010595682077109814,0.00841362401843071
1761507663565622300,7.098622314453125,-0.0038434783928096294,0.008673862554132938,0.002421799348667264
1761507663585778200,7.118778076171875,0.0010010467376559973,0.006455852650105953,0.01148522924631834
1761507663605934300,7.138934326171875,0.0006481930613517761,0.00315795186907053,0.026357555761933327
1761507663626090200,7.15909033203125,-0.007745558395981789,0.0005701575428247452,0.028514983132481575
1761507663646246400,7.179246337890625,-0.019345752894878387,0.008536023087799549,0.031662605702877045
1761507663666401300,7.1994013671875,-0.014024743810296059,0.015898220241069794,0.033357080072164536
1761507663686557200,7.21955712890625,-0.004167321138083935,0.014229931868612766,0.015551682561635971
1761507663706713300,7.23971337890625,0.004934808239340782,0.019204309210181236,-0.005779443308711052
1761507663726869200,7.259869140625,0.007910105399787426,0.03224378824234009,-0.008418216370046139
1761507663747025200,7.280025146484375,0.010735990479588509,0.04214319586753845,-0.010438689962029457
1761507663767180300,7.30018017578125,0.010648108087480068,0.041590407490730286,-0.01037660427391529
1761507663787336400,7.32033642578125,0.008693604730069637,0.04311366379261017,-0.00860547088086605
1761507663807492400,7.340492431640625,0.007130873389542103,0.027981165796518326,-0.00909427460283041
1761507663827648500,7.3606484375,0.009626785293221474,0.026602361351251602,-0.006167495157569647
1761507663847804400,7.380804443359375,0.007620070595294237,0.021936893463134766,-0.0028460053727030754
1761507663867960300,7.400960205078125,0.005698607303202152,0.018947971984744072,0.0044567338190972805
1761507663888115500,7.421115478515625,0.005677572451531887,0.0163579098880291,0.003687131218612194
1761507663908271400,7.441271240234375,-0.002757460344582796,0.011650953441858292,-0.0014378898777067661
1761507663928427300,7.46142724609375,-0.005522877909243107,0.010098583996295929,-0.0024290168657898903
1761507663948583400,7.48158349609375,-0.009349853731691837,0.006531964056193829,-0.0025460822507739067
1761507663968739300,7.5017392578125,-0.01248784177005291,0.0013741087168455124,-0.011009705252945423
1761507663988894200,7.521894287109375,-0.011173027567565441,0.0014013862237334251,-0.019103700295090675
1761507664009050400,7.54205029296875,-0.007639023475348949,0.0018790876492857933,-0.024954533204436302
1761507664029206300,7.562206298828125,-0.009554914198815823,0.00750143826007843,-0.018179070204496384
1761507664049362400,7.582362548828125,-0.01791805773973465,0.009065539576113224,-0.0033289561979472637
1761507664069518300,7.602518310546875,-0.01982804760336876,0.01008317805826664,0.004908274859189987
1761507664089674200,7.62267431640625,-0.022110113874077797,-0.001690249890089035,0.007032361812889576
1761507664109829400,7.642829345703125,-0.027027370408177376,-0.00649260263890028,0.01500112283974886
1761507664129985300,7.6629853515625,-0.03974717855453491,-0.009195376187562943,0.019972259178757668
1761507664150141200,7.68314111328125,-0.05345072224736214,0.0024693412706255913,0.02405129186809063
1761507664170297300,7.70329736328125,-0.06414996832609177,0.005884705111384392,0.0110055822879076
1761507664190453200,7.723453369140625,-0.05984283983707428,0.0035646017640829086,-0.026455489918589592
1761507664210608000,7.743608154296875,-0.04121112450957298,0.00416149664670229,-0.0405990295112133
1761507664230764300,7.763764404296875,-0.02068854123353958,0.0027179792523384094,-0.04341775178909302
1761507664250920200,7.783920166015625,-0.009136270731687546,0.006955855526030064,-0.017643576487898827
1761507664271076000,7.804076171875,0.0014444601256400347,0.009049154818058014,0.009482231922447681
1761507664291232300,7.824232177734375,0.010870756581425667,0.007918449118733406,0.030658014118671417
1761507664311388200,7.84438818359375,0.020129511132836342,0.013448530808091164,0.03362276405096054
1761507664331543300,7.864543212890625,0.03420828655362129,0.007480163127183914,0.02798774465918541
1761507664351699500,7.884699462890625,0.042728256434202194,0.008444827981293201,0.02578805387020111
1761507664371855400,7.90485546875,0.04462737217545509,0.006091281771659851,0.02987111546099186
1761507664392014800,7.925014892578125,0.03363568335771561,0.005500715225934982,0.0326373353600502
1761507664412171000,7.9451708984375,0.02971581369638443,0.005458095110952854,0.03764210641384125
1761507664432326000,7.965325927734375,0.025929834693670273,0.007402424700558186,0.03583268076181412
1761507664452481800,7.985481689453125,0.022011516615748405,0.004347258247435093,0.02061527594923973
1761507664472638000,8.005637939453125,0.018174713477492332,0.0014676544815301895,0.01656261458992958
1761507664492791800,8.025791748046874,0.016517147421836853,0.003191138617694378,0.013205812312662601
1761507664512947000,8.045947021484375,0.016836240887641907,0.005465229973196983,0.016534505411982536
1761507664533102800,8.066102783203124,0.009597753174602985,0.001443883404135704,0.0019511007703840733
1761507664553259000,8.086259033203126,-0.004392359405755997,0.004054216668009758,-0.0064657521434128284
1761507664573415000,8.106414794921875,-0.01607220061123371,0.010149994865059853,-0.01624320074915886
1761507664593570800,8.12657080078125,-0.01817449927330017,0.007888173684477806,-0.025969065725803375
1761507664613727000,8.14672705078125,-0.016636501997709274,0.002596878446638584,-0.033054135739803314
1761507664633881900,8.1668818359375,-0.012662540189921856,0.004085110500454903,-0.033558622002601624
1761507664654037800,8.187037841796876,-0.011397561058402061,0.0018290039151906967,-0.02367217466235161
1761507664674194000,8.20719384765625,-0.008134923875331879,-0.012553174048662186,-0.014830762520432472
1761507664694349800,8.227349853515625,-0.00709360558539629,-0.018706798553466797,0.0035176228266209364
1761507664714506000,8.247506103515626,-0.007355400361120701,-0.011936986818909645,0.021607592701911926
1761507664734660900,8.267660888671875,0.00034300959669053555,-0.010098801925778389,0.015388447791337967
1761507664754816800,8.287816650390624,-0.0006658091442659497,-0.021771859377622604,0.0033318824134767056
1761507664774973000,8.307972900390626,-0.004063725471496582,-0.0252903550863266,0.00783515628427267
1761507664795128800,8.32812890625,-0.02364543080329895,-0.0062095364555716515,0.033121153712272644
1761507664815284700,8.34828466796875,-0.04146117344498634,0.012933475896716118,0.03698308765888214
1761507664835441000,8.36844091796875,-0.03861851617693901,0.013076446019113064,0.011567991226911545
1761507664855595800,8.388595703125,-0.020589454099535942,0.0009833956137299538,-0.025708075612783432
1761507664875751700,8.408751708984376,-0.0029049981385469437,-0.003976433537900448,-0.03746165335178375
1761507664895907800,8.428907958984375,0.0031161580700427294,0.002619613893330097,-0.021494487300515175
1761507664916066000,8.449066162109375,0.006463712081313133,0.006726931780576706,0.00027959304861724377
1761507664936222000,8.469221923828124,-0.006052058190107346,0.022717410698533058,0.04014096409082413
1761507664956377900,8.4893779296875,-0.02531546726822853,0.051307227462530136,0.07163006067276001
1761507664976534000,8.509533935546875,-0.015396537259221077,0.02368183806538582,0.05292971432209015
1761507664996689000,8.52968896484375,-0.0036791744641959667,0.020991358906030655,0.023590566590428352
1761507665016844800,8.5498447265625,0.011148477904498577,0.014598969370126724,-0.010053206235170364
1761507665037001000,8.5700009765625,0.024960221722722054,0.005409639328718185,-0.0378258042037487
1761507665057156900,8.590156982421876,0.03781206160783768,0.005337493494153023,-0.03415276110172272
1761507665077312800,8.610312744140625,0.041598010808229446,0.02310548722743988,-0.015643825754523277
1761507665097468000,8.630468017578124,0.037430163472890854,0.030277561396360397,-0.0003770226612687111
1761507665117623800,8.650623779296875,0.047633539885282516,0.015967052429914474,0.013374311849474907
1761507665137779700,8.67077978515625,0.057480569928884506,0.0104807298630476,0.033190276473760605
1761507665157935900,8.690935791015624,0.06350545585155487,-0.0004130406305193901,0.034640803933143616
1761507665178091800,8.711091796875,0.05484406650066376,-0.005023124627768993,0.04340329021215439
1761507665198246700,8.73124658203125,0.0403926819562912,-0.015251023694872856,0.04773959517478943
1761507665218402800,8.75140283203125,0.029216203838586807,-0.021028107032179832,0.04504276439547539
1761507665238558700,8.771558837890625,0.01951882429420948,-0.029805200174450874,0.03139470890164375
1761507665258715000,8.79171484375,0.014174111187458038,-0.025513138622045517,0.01784544065594673
1761507665278870800,8.811870849609376,0.0031081335619091988,-0.011189622804522514,0.008054210804402828
1761507665299026700,8.832026611328125,-0.004714065697044134,-0.016655195504426956,0.006789383478462696
1761507665319181800,8.852181884765624,-0.008252897299826145,-0.012105369940400124,0.002770120045170188
1761507665339337700,8.872337646484375,-0.01283937692642212,-0.00941560324281454,-0.019148558378219604
1761507665359493600,8.89249365234375,-0.015325735323131084,0.006667670793831348,-0.030402900651097298
1761507665379649800,8.91264990234375,-0.01728232018649578,0.006856296211481094,-0.053556766360998154
1761507665399802000,8.932802001953124,-0.016776863485574722,-0.009484663605690002,-0.07001177221536636
1761507665419957200,8.952957275390625,-0.015493764542043209,-0.020255666226148605,-0.06289675086736679
1761507665440113400,8.973113525390625,-0.028409816324710846,-0.0067916326224803925,-0.0233736801892519
1761507665460269300,8.993269287109374,-0.0429229810833931,-0.0010457644239068031,0.012165605090558529
1761507665480425200,9.01342529296875,-0.050403010100126266,-0.009078294038772583,0.02689308300614357
1761507665500581400,9.033581298828125,-0.04470941051840782,-0.025206929072737694,-0.00014859996736049652
1761507665520737300,9.0537373046875,-0.029403166845440865,-0.037526920437812805,-0.017070408910512924
1761507665540892200,9.07389208984375,-0.006850728765130043,-0.03818421810865402,-0.027784958481788635
1761507665561048300,9.09404833984375,0.008916517719626427,-0.029790692031383514,-0.029072312638163567
1761507665581204200,9.114204345703126,0.014648963697254658,-0.019878126680850983,-0.016116134822368622
1761507665601360100,9.134360107421875,0.013177571818232536,-0.0008907271549105644,0.006505605299025774
1761507665621516300,9.154516357421874,0.01633099466562271,-0.007476377300918102,0.006119424011558294
1761507665641671200,9.174671142578125,0.021353743970394135,-0.018112506717443466,0.005843576975166798
1761507665661827000,9.1948271484375,0.02598709799349308,-0.016041522845625877,0.010679975152015686
1761507665681983200,9.214983154296876,0.022434687241911888,-0.01494161132723093,0.00956363882869482
1761507665702139100,9.23513916015625,0.019809652119874954,-0.013297482393682003,-0.005541051737964153
1761507665722295300,9.25529541015625,0.01619519107043743,-0.012747596949338913,-0.015521484427154064
1761507665742450200,9.2754501953125,0.022089291363954544,-0.006308860145509243,-0.01956106908619404
1761507665762606000,9.295606201171875,0.018075132742524147,-0.025247745215892792,-0.0263193529099226
1761507665782762200,9.31576220703125,0.027333613485097885,0.00769346859306097,-0.025240488350391388
1761507665802918100,9.335918212890626,0.02224056050181389,0.006699926219880581,-0.021470006555318832
1761507665823074000,9.356073974609375,0.012010023929178715,0.01770135946571827,-0.005212507210671902
1761507665843230200,9.376230224609374,0.007873622700572014,0.0205635167658329,0.00411385390907526
1761507665863385000,9.396385009765625,0.004070637281984091,0.011518917046487331,0.00005824398249387741
1761507665883541000,9.416541015625,-0.012449494563043118,0.006818592548370361,0.003024853765964508
1761507665903697200,9.436697265625,-0.01459545735269785,0.007750319316983223,0.011115439236164093
1761507665923853000,9.45685302734375,-0.01893455721437931,0.006802655756473541,0.019423818215727806
1761507665944009200,9.47700927734375,-0.02797945775091648,0.015801265835762024,0.01718294993042946
1761507665964164400,9.497164306640625,-0.042155176401138306,0.01817880943417549,0.00201997859403491
1761507665984320300,9.5173203125,-0.040805231779813766,0.02023332752287388,-0.009201401844620705
1761507666004476400,9.537476318359374,-0.044603414833545685,0.020160455256700516,-0.029412411153316498
1761507666024632300,9.55763232421875,-0.0462961345911026,0.023057734593749046,-0.047660861164331436
1761507666044788200,9.577788330078125,-0.03646507114171982,0.005955840460956097,-0.051495760679244995
1761507666064943000,9.597943115234376,-0.029126182198524475,0.0008181249722838402,-0.03938427194952965
1761507666085099300,9.618099365234375,-0.036087725311517715,0.010104103945195675,0.003986136056482792
1761507666105255200,9.638255126953124,-0.04139883071184158,0.0165870264172554,0.03940020874142647
1761507666125411300,9.658411376953126,-0.04339117929339409,0.013225202448666096,0.04039255902171135
1761507666145567200,9.678567138671875,-0.035057876259088516,0.0004462357610464096,0.02009003981947899
1761507666165723100,9.69872314453125,-0.022335685789585114,-0.014243635348975658,-0.012304069474339485
1761507666185878300,9.718878173828125,-0.005700268317013979,-0.013767478056252003,-0.03154322877526283
1761507666206034200,9.7390341796875,0.010337036103010178,-0.0077437832951545715,-0.03317318484187126
1761507666226190000,9.759190185546874,0.018544122576713562,0.008030260913074017,-0.013822117820382118
1761507666246346200,9.77934619140625,0.01716461591422558,0.022882597520947456,0.014154556207358837
1761507666266502100,9.799502197265625,0.016619166359305382,0.01946946233510971,0.01872117444872856
1761507666286657000,9.819656982421876,0.017957445234060287,-0.0012259911745786667,0.0018103548791259527
1761507666306813200,9.839813232421875,0.0326165109872818,-0.008210944943130016,0.0034977297764271498
1761507666326969000,9.859968994140624,0.033424269407987595,0.0011505577713251114,0.0184551440179348
1761507666347125200,9.880125244140626,0.027466489002108574,0.010522039607167244,0.03943097963929176
1761507666367281200,9.90028125,0.02273966185748577,-0.0017220526933670044,0.04579697176814079
1761507666387436000,9.92043603515625,0.018179256469011307,0.001854502595961094,0.04199570417404175
1761507666407592000,9.940592041015625,0.005587821360677481,-0.0045357393100857735,0.020366739481687546
1761507666427748000,9.960748046875,0.0037231112364679575,-0.005466136150062084,-0.0013463397044688463
1761507666447904000,9.980904052734376,0.0038615737576037645,-0.0026756329461932182,-0.016470998525619507
1761507666468060000,10.001059814453125,-0.004716734401881695,0.0023468220606446266,-0.021200507879257202
1761507666488216000,10.021216064453125,-0.013084126636385918,0.006973853334784508,-0.018177369609475136
1761507666508371200,10.04137109375,-0.01781257428228855,0.004656202159821987,-0.013936621136963367
1761507666528527000,10.061527099609375,-0.025842510163784027,0.0011103302240371704,-0.021948371082544327
1761507666548683300,10.081683349609374,-0.026883287355303764,0.0023969318717718124,-0.01422593742609024
1761507666568839200,10.101839111328125,-0.024865949526429176,0.007519885897636414,-0.005654088221490383
1761507666588995300,10.121995361328125,-0.020387310534715652,0.006725996732711792,8.67992639541626e-7
1761507666609150200,10.142150146484376,-0.01164495013654232,0.014878243207931519,0.006385813467204571
1761507666629306000,10.16230615234375,-0.012773578986525536,-0.004568594507873058,-0.0121572595089674
1761507666649462300,10.182462158203125,-0.008720524609088898,0.0012316592037677765,-0.011490020900964737
1761507666669618200,10.2026181640625,-0.016354229301214218,0.01645183376967907,-0.007927747443318367
1761507666689774000,10.222774169921875,-0.016478855162858963,0.016983695328235626,-0.014699248597025871
1761507666709929200,10.24292919921875,-0.012651132419705391,-0.004308534786105156,-0.04517635703086853
1761507666730085000,10.263085205078125,-0.020261624827980995,-0.02806786634027958,-0.05602716654539108
1761507666750241000,10.283240966796875,-0.0399271696805954,-0.00906454212963581,-0.05450631305575371
1761507666770397200,10.303397216796874,-0.049114570021629333,-0.0016967253759503365,-0.04427027702331543
1761507666790553000,10.323552978515625,-0.038102924823760986,-0.005338472314178944,-0.0490143783390522
1761507666810709000,10.343708984375,-0.007951956242322922,-0.0202539823949337,-0.07414112240076065
1761507666830864100,10.363864013671876,0.004058359190821648,-0.020963435992598534,-0.057201121002435684
1761507666851020000,10.38402001953125,0.009841173887252808,-0.004357825964689255,-0.028678081929683685
1761507666871176000,10.404176025390624,0.0070685697719454765,-0.008160091936588287,-0.013222772628068924
1761507666891332000,10.42433203125,-0.0037782348226755857,-0.0060527450405061245,0.022886276245117188
1761507666911488000,10.444488037109375,-0.015138739719986916,-0.006854903884232044,0.02452928200364113
1761507666931643100,10.46464306640625,-0.018336128443479538,-0.004488601349294186,0.001206949120387435
1761507666951799000,10.484799072265625,-0.012327785603702068,-0.009850049391388893,-0.025311412289738655
1761507666971955000,10.504954833984375,-0.014793869107961655,-0.017354711890220642,-0.03038947843015194
1761507666992111000,10.525111083984376,-0.01672891154885292,-0.00809345580637455,-0.011836946941912174
1761507667012267000,10.54526708984375,-0.0266457200050354,-0.004357489757239819,0.004256834741681814
1761507667032422100,10.565422119140624,-0.023476295173168182,-0.02180793695151806,-0.0025931152049452066
1761507667052578300,10.585578369140626,-0.021904252469539642,-0.006010513752698898,-0.0007012258283793926
1761507667072734200,10.605734130859375,-0.0024293463211506605,0.007843543775379658,0.00014284835197031498
1761507667092890000,10.62589013671875,0.012893146835267544,0.005321139469742775,0.012541676871478558
1761507667113046300,10.64604638671875,0.0065881116315722466,0.019837720319628716,0.06379206478595734
1761507667133201200,10.666201171875,0.006474389228969812,0.010165483690798283,0.12456346303224564
1761507667153357000,10.686357177734376,0.014448439702391624,-0.013180429115891457,0.14320123195648193
1761507667173513200,10.70651318359375,-0.01853320375084877,-0.1222301498055458,0.07119482010602951
1761507667193669000,10.726669189453125,-0.050863467156887054,-0.18786127865314484,0.01898166537284851
