time,seconds_elapsed,z,y,x
1761505893290357500,0.077357421875,0.06973112335205078,0.07156944469511509,0.5335653902355582
1761505893310513400,0.097513427734375,0.14726152227818964,0.09070727588534355,0.7090830659873784
1761505893330669600,0.117669677734375,0.1867518211454153,0.033711423204839226,0.6399670788589864
1761505893350825500,0.137825439453125,0.20299568445980548,0.002712473829090595,0.5933621987462043
1761505893370981400,0.1579814453125,0.1136754790186882,-0.04371843795627355,0.5566796507760882
1761505893391137500,0.178137451171875,0.14432020812928675,-0.031582009960711,0.4096067829377949
1761505893411293400,0.19829345703125,0.14472119014561174,-0.011134849737584591,0.37442031874433157
1761505893431450600,0.21845068359375,0.23137480672597885,-0.031162615504860876,0.32207046523876487
1761505893451606500,0.2386064453125,0.23836919565796852,-0.07883885117620229,0.35524895061068235
1761505893471762700,0.2587626953125,0.22141922990083693,-0.17177490902692077,0.3583926554638892
1761505893491918600,0.278918701171875,0.21513971123993395,-0.2323150101855397,0.32226058098338545
1761505893512074500,0.299074462890625,0.13734978459477423,-0.26309388706982134,0.2786168156985193
1761505893532230700,0.319230712890625,0.20329203705787657,-0.1183195054322481,0.19603081388324498
1761505893552386600,0.339386474609375,0.19371932207047937,-0.10079232430905104,0.07169723579324781
1761505893572542700,0.359542724609375,0.20944062281548975,-0.06846943285316229,0.01696004875972867
1761505893592699600,0.37969970703125,0.21955694316029548,-0.07460369782447815,-0.04038395977132022
1761505893612855600,0.39985546875,0.18161212016940115,-0.09423340418487787,-0.039744419758766886
1761505893633011500,0.420011474609375,0.13710136279165744,-0.05526596014797687,-0.064850438638404
1761505893653167400,0.44016748046875,0.0592383709102869,-0.009352057974040508,-0.0827652308396995
1761505893673323500,0.460323486328125,-0.0036982699960470197,-0.048697103151679036,-0.18807050252854823
1761505893693479400,0.4804794921875,-0.02352583701610565,-0.10190233137756585,-0.1670141974311322
1761505893713635600,0.500635498046875,-0.0015828852772712706,-0.19435557414740323,-0.17306458351127801
1761505893733791500,0.52079150390625,0.04819149171710014,-0.32529636848270893,-0.16219992901720107
1761505893753948700,0.54094873046875,0.06793605662882328,-0.578916617025435,-0.01836450873017311
1761505893774104600,0.5611044921875,0.027439211067557333,-0.8549597097784281,0.09943499141596257
1761505893794260500,0.581260498046875,-0.11641513311564922,-1.0996282978415488,0.1839219314817339
1761505893814416600,0.601416748046875,-0.20546412039995193,-1.167747309821844,0.15353205391503869
1761505893834572500,0.621572509765625,-0.29247312628924843,-1.1167293625071644,0.12932042659185827
1761505893854728400,0.641728515625,-0.17400982847213745,-1.0545856255441903,-0.07897869803830981
1761505893874884600,0.661884521484375,-0.18657588005661963,-0.967847691681236,-0.2261547339901328
1761505893895040500,0.68204052734375,-0.11611702695190906,-0.7475058817535638,-0.2944312746196985
1761505893915197700,0.70219775390625,-0.07997194685935974,-0.6539211507357656,-0.3052385363707319
1761505893935353600,0.722353515625,-0.011221651238203048,-0.5655165988348424,-0.22381781547516583
1761505893955509800,0.742509765625,0.017609306448698042,-0.44437414493635297,-0.17302892767600714
1761505893975665700,0.762665771484375,0.024420155507326124,-0.3048779959626496,-0.15583309739902615
1761505893995820800,0.78282080078125,0.05559036979675293,-0.22126433160006997,-0.19753610387966036
1761505894015976700,0.802976806640625,0.11399112083911896,-0.23719416052922604,-0.17361447247900066
1761505894036132900,0.8231328125,0.1861193684607744,-0.24889935750067232,-0.10501355873327702
1761505894056288800,0.843288818359375,0.20872633706629276,-0.3236350111417472,-0.05129881008267402
1761505894076445700,0.86344580078125,0.26285072596371173,-0.4033437770202756,-0.04431209300048649
1761505894096601600,0.8836015625,0.22763620471954343,-0.48943566806465383,0.02442782735712826
1761505894116757800,0.9037578125,0.22681319789886473,-0.5428513241708278,0.10675225562676786
1761505894136913700,0.92391357421875,0.11576865190565586,-0.7169139057435094,0.16386932353414593
1761505894157069600,0.944069580078125,-0.12565408610403536,-0.8354331715315579,0.2854266418438405
1761505894177225700,0.964225830078125,-0.3421364441245794,-0.7865775168173015,0.20588884861804543
1761505894197381600,0.984381591796875,-0.4947632928282022,-0.6400833256497979,0.0306179872341454
1761505894217537800,1.004537841796875,-0.5486994656771421,-0.4392195386521518,-0.24392587993703782
1761505894237694700,1.02469482421875,-0.5743143839269876,-0.2579458566568792,-0.37335261644758283
1761505894257851000,1.044850830078125,-0.4599778106510639,-0.22331761086806654,-0.5141786257855594
1761505894278006800,1.0650068359375,-0.34197394703924655,-0.2934459168441593,-0.5463662734892218
1761505894298162700,1.08516259765625,-0.22875439509451387,-0.3626762510672211,-0.4510348449345678
1761505894318318800,1.10531884765625,-0.051019993141293525,-0.4130678831771016,-0.3889933993022889
1761505894338474800,1.125474853515625,-0.0006312836408615112,-0.44095834514349697,-0.29196429998427625
1761505894358631000,1.145630859375,0.0957020154327154,-0.4089411586359143,-0.2964134614128619
1761505894378786800,1.165786865234375,0.04750175588726997,-0.3567518294543028,-0.22918211898729204
1761505894398943700,1.18594384765625,0.13207330549657345,-0.27760990367829796,-0.2580385764416307
1761505894419100000,1.206099853515625,0.13507014922499655,-0.15132365715056656,-0.22216098817884922
1761505894439255800,1.226255859375,0.14282207852602005,-0.05684036985784769,-0.20733722079545258
1761505894459412000,1.246411865234375,0.12488719338476657,0.021535247720777986,-0.17085538302920758
1761505894479568000,1.26656787109375,0.06748948190510272,0.07804244010150432,-0.1949864924620837
1761505894499723800,1.286723876953125,0.044182256075739855,0.1705795617625117,-0.2088069280218333
1761505894519880000,1.3068798828125,0.027479543077945708,0.24925270098298788,-0.26257600067555903
1761505894540035800,1.327035888671875,0.07249182023704051,0.2742357510700822,-0.2204711353957653
1761505894560192800,1.34719287109375,0.056225160568952555,0.2605392341509461,-0.21285971054397523
1761505894580348700,1.3673486328125,0.09720657477676868,0.2120502207919955,-0.1299187578111887
1761505894600504800,1.3875048828125,0.0779869105219841,0.19490064080953598,-0.10020188413523137
1761505894620660700,1.40766064453125,0.13659633587896822,0.21204905174821614,-0.12249847161732613
1761505894640816600,1.427816650390625,0.1857411827981472,0.23395985478311776,-0.07347213651128112
1761505894660972800,1.447972900390625,0.23999533555507657,0.3091024817898869,-0.062437605343014
1761505894681128700,1.468128662109375,0.31538229271173474,0.3344149099618196,-0.005092793094366789
1761505894701284900,1.488284912109375,0.3602823416680097,0.35249037261754274,0.08039075679332018
1761505894721441800,1.50844189453125,0.38405835405290123,0.3537526476383209,0.21474683946482837
1761505894741598000,1.528597900390625,0.3581155190229416,0.3171697606503963,0.33875980729833244
1761505894761753900,1.54875390625,0.33769466228485107,0.258681915846467,0.5034794640514999
1761505894781909800,1.56890966796875,0.25397066941559315,0.16545564287751913,0.6383457612674683
1761505894802066000,1.58906591796875,0.14622399592399596,0.051015609227120874,0.7927930303312838
1761505894822221800,1.609221923828125,-0.05616320124864578,-0.062089960949122905,0.9057504242084919
1761505894842377700,1.629377685546875,-0.2904886744737625,-0.11105331382155417,0.9023199383031576
1761505894862534700,1.64953466796875,-0.606803864121437,-0.07661591442972421,0.7127887886375188
1761505894882690600,1.669690673828125,-0.7654735001206397,0.14687223069965838,0.5280146242406218
1761505894902846700,1.6898466796875,-0.7789654343783855,0.43666678542941806,0.23452844845131038
1761505894923002600,1.710002685546875,-0.3623065409719944,0.4486883548736572,-0.08129267406910658
1761505894943158800,1.73015869140625,0.0255845231115818,0.499726468193531,-0.17556465669870375
1761505894963314700,1.750314697265625,0.32545243582725525,0.30741964326947924,0.013861644352972506
1761505894983470300,1.77047021484375,0.47614977777302264,-0.0535655859708786,0.23484394414126872
1761505895003626500,1.79062646484375,0.6097019236505031,-0.38473552266210315,0.5723695334695279
1761505895023783400,1.810783447265625,0.5980354512542486,-0.5759516297399997,0.8016200415179133
1761505895043939600,1.830939697265625,0.5369774637013673,-0.7235971828997134,0.8442758186787367
1761505895064095500,1.851095458984375,0.3970668887078762,-0.785072519081831,0.8214486314512789
1761505895084251600,1.871251708984375,0.17735270915925502,-0.8016153653427958,0.8754679525390267
1761505895104407600,1.891407470703125,0.039192192703485486,-0.767688838082552,0.8349478722326457
1761505895124563500,1.9115634765625,-0.14314122747778893,-0.7770199993990361,0.7155370644323528
1761505895144719600,1.9317197265625,-0.24537469050586222,-0.6615785336211323,0.5596073747910559
1761505895164876500,1.95187646484375,-0.20307985561192035,-0.5533166040837765,0.4740662494972348
1761505895185032700,1.97203271484375,-0.09805354699492454,-0.5627616010382771,0.444855206451565
1761505895205188600,1.992188720703125,-0.01260404550731182,-0.4998974408462643,0.48970440200343723
1761505895225344500,2.012344482421875,0.10385141961872577,-0.482824871622771,0.4580059260562062
1761505895245500700,2.032500732421875,0.2237380282372236,-0.44256972586289045,0.4837158291131258
1761505895265656600,2.052656494140625,0.3454039214879274,-0.4602386535443365,0.42685690068528054
1761505895285812700,2.072812744140625,0.37551089046001435,-0.5202703667894005,0.4785375496923923
1761505895305969400,2.092969482421875,0.4021756100237369,-0.5795021618284285,0.4430060714535415
1761505895326125600,2.11312548828125,0.29620646759867664,-0.6737244600974023,0.5910989299893379
1761505895346281500,2.133281494140625,0.1446884569197893,-0.9224467074654996,0.8151622446581721
1761505895366437400,2.153437255859375,-0.20335107376873493,-1.056838957428932,0.9847584944717586
1761505895386593500,2.173593505859375,-0.5695955387115478,-0.8680123758360743,0.8435835986308753
1761505895406749400,2.19374951171875,-0.8220803534835577,-0.494800994490087,0.4902752606939524
1761505895426905600,2.213905517578125,-0.8453285426020621,-0.09733926124572753,0.2558681735999882
1761505895447062500,2.2340625,-0.7093582296669483,0.24778847364932297,0.15322466846629976
1761505895467218700,2.25421875,-0.5902151328921318,0.2549791158057749,0.11022760358713567
1761505895487374600,2.27437451171875,-0.5988724866002798,0.17573504482954738,0.32679186773747204
1761505895507530500,2.294530517578125,-0.5574544345408677,0.1283430329270661,0.44200339721702037
1761505895527686700,2.314686767578125,-0.4395376646906137,0.11253288485482335,0.4305520288761705
1761505895547842600,2.334842529296875,-0.2619534848630428,0.2570936237417161,0.2581588418204337
1761505895567998700,2.354998779296875,-0.051507484397292136,0.32836350096836686,0.03385280443690717
1761505895588155400,2.3751552734375,0.043455695366859434,0.44194881748557086,-0.14356500584781168
1761505895608311300,2.395311279296875,0.2207405999869108,0.4484329188078642,-0.2075108237966895
1761505895628467500,2.415467529296875,0.3609147943526506,0.41544396465867756,-0.20969109044522047
1761505895648623400,2.435623291015625,0.45204467956423755,0.4350757168456912,-0.1492910553444177
1761505895668779500,2.455779541015625,0.5084159706056117,0.5222679703474045,-0.09163381614573299
1761505895688935400,2.475935302734375,0.5156733943879604,0.6437342493727802,-0.11723397521786391
1761505895709091300,2.49609130859375,0.5155208341747523,0.7474483063474298,-0.23149017673395572
1761505895729248500,2.51624853515625,0.49942368585467334,0.7574857162371277,-0.2954481235120445
1761505895749404400,2.536404296875,0.4137415446549654,0.6643754708632826,-0.337209436051175
1761505895769560600,2.556560546875,0.31970541660785673,0.5721884778141975,-0.30342027143500744
1761505895789716500,2.576716552734375,0.2449140872567892,0.396440573503077,-0.15055135760381816
1761505895809872600,2.59687255859375,0.1269949793189764,0.20510522395968436,-0.0270791455835104
1761505895830028500,2.617028564453125,-0.03412263435423374,0.06237286954373121,0.032543183143064376
1761505895850184400,2.637184326171875,-0.36887247535884377,0.23093320043832063,-0.0810531662248075
1761505895870341600,2.657341552734375,-0.45339083347618575,0.4800611059978604,-0.3672820643622428
1761505895890497500,2.67749755859375,-0.3881219502300024,0.6742834091544151,-0.6288522489961237
1761505895910653700,2.69765380859375,-0.178399003341794,0.7502160174950957,-0.7866496322054416
1761505895930809600,2.7178095703125,-0.01588496687412262,0.5929246841117739,-0.8934935116384178
1761505895950965800,2.7379658203125,0.1164028581559658,0.20662278891578315,-0.8239365758094936
1761505895971121700,2.75812158203125,0.23240765690505502,-0.24246976284459232,-0.829204944666475
1761505895991277800,2.77827783203125,0.26251754848659037,-0.6729325790673494,-0.5954876664675772
1761505896011434800,2.798434814453125,0.25843641665279865,-0.9924164618790149,-0.27820925781093536
1761505896031591000,2.8185908203125,0.15704174253642558,-1.109332384123653,0.0036087650816887615
1761505896051746800,2.838746826171875,0.17092472193837166,-1.0759294423460959,0.19452318579927086
1761505896071903000,2.858903076171875,0.12713234196305273,-0.8814164856798946,0.16951288237906992
1761505896092059000,2.879058837890625,0.03539806111752987,-0.6879572758503257,0.13386026197858153
1761505896112214800,2.89921484375,-0.05008534263968467,-0.4820996260881424,0.11775288452543317
1761505896132372000,2.9193720703125,-0.01866787559092045,-0.48492535103335976,0.12664148970618844
1761505896152528000,2.93952783203125,-0.12743161717057228,-0.394279011555016,0.24437238159552216
1761505896172684000,2.95968408203125,-0.23534371035695076,-0.30345936133638024,0.2611261671934277
1761505896192840000,2.97983984375,-0.2627595405489206,-0.2445164662413299,0.14025895003974437
1761505896212996000,2.99999609375,-0.22834172264039515,-0.2303914947770536,0.11287811809591948
1761505896233152000,3.020152099609375,-0.0230617266356945,-0.23768881217837332,0.0577943826470524
1761505896253308000,3.040307861328125,0.039808863297104834,-0.257581553389132,-0.0946737683635205
1761505896273464800,3.06046484375,-0.0006184241592884064,-0.38834187659099695,-0.01431654851362109
1761505896293620700,3.080620849609375,-0.029429508101940154,-0.4933556179873645,0.07301262924075126
1761505896313777000,3.10077685546875,-0.06416764400601387,-0.6014161797337234,0.07993227243609725
1761505896333932800,3.120932861328125,-0.056932432055473325,-0.5921541381306946,-0.007549976988136768
1761505896354089000,3.1410888671875,-0.15666063426434992,-0.5626718769282102,-0.08784070747308433
1761505896374244900,3.161244873046875,-0.13675181870162487,-0.49981049321517346,-0.3142673172071576
1761505896394401800,3.18140185546875,-0.20432138010561465,-0.46656697978302836,-0.4768212472938001
1761505896414558000,3.201557861328125,-0.18163900817632675,-0.47788960717767476,-0.6046239627990871
1761505896434713900,3.2217138671875,-0.11754559845030307,-0.523705748065561,-0.6172877756696195
1761505896454870000,3.2418701171875,-0.09985387441515922,-0.5567581228397787,-0.5343900044914335
1761505896475026000,3.26202587890625,-0.12544190465807914,-0.762502083094418,-0.35620975846685465
1761505896495181800,3.282181884765625,-0.30257249549925325,-1.0983128313288093,-0.05048566706888377
1761505896515339000,3.302339111328125,-0.578366289666295,-0.988398020017892,0.07117730357237159
1761505896535495000,3.322494873046875,-0.763759097418189,-0.8576621006049215,-0.1367778299257159
1761505896555651000,3.342651123046875,-0.7446516613662243,-0.5589663004085421,-0.2760755337178707
1761505896575807000,3.362806884765625,-0.7372481071114539,-0.1975587541028857,-0.3677689710963517
1761505896595963000,3.382962890625,-0.5390437485814095,0.22294424751102923,-0.6233190917231142
1761505896616118800,3.403118896484375,-0.530616696497798,0.3407546343773603,-0.6814419756721705
1761505896636276000,3.42327587890625,-0.4701256951779127,0.48406069702804083,-0.7869465693254023
1761505896656431900,3.443431884765625,-0.39186873554289336,0.35528964794725176,-0.9695442664660513
1761505896676587800,3.463587890625,-0.26034721871018407,0.3460992102757096,-0.9380713429030031
1761505896696744000,3.483743896484375,-0.05201134226620197,0.34319179839640856,-0.7859024670999497
1761505896716899800,3.50389990234375,0.15421908633112907,0.31916151898950335,-0.5819784157488495
1761505896737056000,3.524055908203125,0.36331659479737277,0.23868337617367505,-0.36514578298591077
1761505896757213000,3.544212890625,0.39082770205736156,0.2331885781496763,-0.18001213762685656
1761505896777369000,3.564369140625,0.4010094888538122,0.2032429372191429,-0.004378580410405993
1761505896797525000,3.58452490234375,0.5439239218384028,0.26430034025013444,0.1513530293755233
1761505896817681000,3.604680908203125,0.6613076077252626,0.297917947691679,0.2866981230843812
1761505896837837000,3.624837158203125,0.6690969464272261,0.34445816507041455,0.4641433328326791
1761505896857993000,3.644992919921875,0.5183733009964228,0.37417321211546656,0.4826663200601935
1761505896878148900,3.66514892578125,0.35010347748100756,0.35769758587181566,0.5617019359175115
1761505896898305800,3.685305908203125,0.21222411605417726,0.43224224698543545,0.5493089758776128
1761505896918461700,3.705461669921875,0.05195230555534362,0.5816147700682283,0.45022257870361204
1761505896938617900,3.725617919921875,-0.11158581326305865,0.7275579032242298,0.4087311691470444
1761505896958773800,3.745773681640625,-0.12718319536745548,0.8066711874276399,0.4001290527574718
1761505896978930000,3.765929931640625,-0.1110913077443838,0.8662900820881128,0.42018765205442904
1761505896999086600,3.786086669921875,-0.09883329919576644,0.8037225667551159,0.5793638493362814
1761505897019242800,3.80624267578125,-0.15147124892771244,0.6341507207304239,0.8180670261889695
1761505897039398700,3.826398681640625,-0.37649054914712904,0.36840924176126716,1.0344511845320463
1761505897059554800,3.846554931640625,-0.6507277615219355,0.22402035230994224,1.1501229519344867
1761505897079710700,3.866710693359375,-0.9358107775598764,0.2633703659236431,0.7919941350385546
1761505897099866600,3.88686669921875,-1.0691326218128203,0.5671309021636843,0.5174887001816183
1761505897120023800,3.90702392578125,-0.8862649486243724,0.7978767633363604,0.12214337456934153
1761505897140179700,3.9271796875,-0.41447511962652206,0.7802043285235762,-0.2617421801999211
1761505897160336000,3.9473359375,-0.08891045559644699,0.7868179014444351,-0.23084975993856785
1761505897180491800,3.96749169921875,0.2289841121971607,0.6710071639627218,-0.1872622548855841
1761505897200647700,3.987647705078125,0.4219593379020691,0.27328224973753096,0.015957447588443755
1761505897220801500,4.007801513671875,0.42644320531785485,0.22979835118949413,0.2566800745047629
1761505897240957700,4.027957763671875,0.4659159685283899,0.10303528093025088,0.28503713106960055
1761505897261113600,4.048113525390625,0.3736731536388397,0.10025193382203579,0.3004477584302425
1761505897281270800,4.068270751953125,0.24414076479673386,0.0013785948768258094,0.25511604005843397
1761505897301426700,4.0884267578125,0.1733627627402544,-0.090197280536592,0.22284926270395516
1761505897321582800,4.108582763671875,0.027101357415318487,-0.16932824652716516,0.2678448809891939
1761505897341738800,4.12873876953125,-0.014213234269618987,-0.207051097330451,0.3570361993536353
1761505897361894700,4.148894775390625,-0.01291734924018383,-0.22739640461429952,0.3723221774213016
1761505897382050800,4.16905078125,-0.029797172370553016,-0.21010098642036318,0.38487405434995886
1761505897402207500,4.18920751953125,0.04071311866044998,-0.20312764027640223,0.36474502016529436
1761505897422363600,4.20936376953125,0.05316343491077423,-0.23554200940802691,0.4064601554751396
1761505897442519600,4.22951953125,0.1253951429069042,-0.2577705000899732,0.43135844988822936
1761505897462675700,4.24967578125,0.19675415972173213,-0.2589689160943031,0.4663844628229737
1761505897482831600,4.26983154296875,0.2796522231608629,-0.26950068537220356,0.4241911886073649
1761505897502987500,4.289987548828125,0.37699966771304605,-0.2928906210489571,0.42684331055134533
1761505897523144700,4.310144775390625,0.4581476726144552,-0.3524589545659721,0.4000239849478006
1761505897543300600,4.330300537109375,0.5118254867881536,-0.5467557842634618,0.5905678918525576
1761505897563456800,4.350456787109375,0.5255255108386278,-0.7820899961397051,0.802071146286279
1761505897583612700,4.37061279296875,0.40280514009892937,-1.0118976996794342,0.9716796710595488
1761505897603768600,4.3907685546875,0.30006255850493907,-1.108851322608441,1.1024736042700707
1761505897623926500,4.410926513671875,0.11347381896674633,-1.1250542693905532,1.1528314802408217
1761505897644082700,4.431082763671875,0.026802082207798957,-0.9833343068875372,1.1393697949908672
1761505897664238600,4.451238525390625,-0.09867664732933044,-0.8599354523643851,1.0969589325018227
1761505897684395800,4.471395751953125,-0.33025311410725117,-0.8700650705821812,1.155950342913717
1761505897704551700,4.4915517578125,-0.5077507846951484,-0.8289417636856437,1.1092683789767324
1761505897724707600,4.51170751953125,-0.6532651710450649,-0.5961503681600093,0.8914670473121106
1761505897744863700,4.53186376953125,-0.70403966499269,-0.3254312469087541,0.6157210378095507
1761505897765019600,4.55201953125,-0.4821808746308088,0.02005202342569828,0.3354104968704283
1761505897785175800,4.57217578125,-0.3103869686424732,0.24419074141830205,0.24128493697419762
1761505897805332700,4.592332763671875,-0.17927344808876514,0.2707978855758905,0.23242796904072163
1761505897825489000,4.612489013671875,-0.17266192099452018,0.180744251293689,0.4135318474270403
1761505897845644800,4.632644775390625,-0.0772287856310606,0.02459565820470452,0.517519460646063
1761505897865800700,4.65280078125,-0.06885083338618278,-0.05875540969893336,0.6728481156542897
1761505897885956900,4.672956787109375,-0.11399287440478802,-0.029188977344334125,0.6449009550645947
1761505897906112800,4.69311279296875,-0.14102701180279253,0.01468932734876871,0.4709630227848887
1761505897926269700,4.713269775390625,-0.1255734220832586,0.14052695332616566,0.25306217626854777
1761505897946425600,4.733425537109375,0.01967149967551231,0.3114811936199665,0.032445348791778086
1761505897966581500,4.75358154296875,0.16653145541548728,0.47210897794961926,-0.07448905846886336
1761505897986737200,4.773737060546875,0.36405016976892945,0.5955442189604043,-0.11266747101992368
1761505898006893300,4.793893310546875,0.47617374317049976,0.6514367865741253,-0.054284182569012046
1761505898027050200,4.81405029296875,0.5596995831191539,0.6086307872876524,-0.026648133755102752
1761505898047206100,4.8342060546875,0.5133423210918903,0.5576143012776971,-0.02726853067576885
1761505898067362300,4.8543623046875,0.37302082720994945,0.6584434504657983,-0.09321377881355583
1761505898087518200,4.874518310546875,0.2768628847032785,0.6889891031160951,-0.2829302949834615
1761505898107674400,4.89467431640625,0.14677403102219103,0.7293368955954909,-0.4182385638132691
1761505898127830300,4.914830322265625,0.018927987831830976,0.6867845788091421,-0.4286703798480332
1761505898147987500,4.934987548828125,-0.19645254642665386,0.6485141771256924,-0.4026951769184321
1761505898168143400,4.955143310546875,-0.3300894479781389,0.5531836253538728,-0.4120445314787328
1761505898188299300,4.97529931640625,-0.6035170975357294,0.5153907780542969,-0.3163640702906996
1761505898208455400,4.995455322265625,-0.6293693316727876,0.4771460953339934,-0.42157362652011215
1761505898228611300,5.015611328125,-0.6026087505191564,0.5221890598922968,-0.5362559444937854
1761505898248767500,5.035767578125,-0.44553661284446716,0.5121276846051216,-0.592401390890032
1761505898268924200,5.055924072265625,-0.19360183317065238,0.4869099489793181,-0.550214984806627
1761505898289080300,5.076080322265625,0.10086685084998608,0.3110714437752962,-0.40677046353332696
1761505898309236200,5.096236328125,0.28654782789349553,0.038275077858567236,-0.1754049360923469
1761505898329392000,5.11639208984375,0.38278643442094323,-0.23186317476481197,0.0009801701437681912
1761505898349548300,5.13654833984375,0.4490478358358144,-0.4677709487453103,0.1106193793836981
1761505898369705200,5.156705322265625,0.4245774114459753,-0.6660539254695177,0.25467041518278416
1761505898389861400,5.176861328125,0.30146950269341466,-0.6386196828380226,0.256541835077852
1761505898410017300,5.197017333984375,0.07553659476041794,-0.6111918699473142,0.3172849114626646
1761505898430173400,5.21717333984375,-0.016729601004719732,-0.5810732105374335,0.11733692413568496
1761505898450329300,5.237329345703125,-0.07430734522640704,-0.5074880421057343,-0.09132168145664035
1761505898470485200,5.2574853515625,-0.07619009023308754,-0.30729017167091366,-0.05208141182772815
1761505898490642400,5.277642333984375,-0.2379857492983341,-0.308241627176851,-0.025079788459837434
1761505898510798300,5.29779833984375,-0.17538754656612873,-0.23326354308202862,-0.01856887219585478
1761505898530954200,5.317954345703125,-0.17444588180184364,-0.29550825620144605,-0.036298809349536894
1761505898551110100,5.338110107421875,-0.12471183681786059,-0.308399301956594,-0.04889576752893626
1761505898571266000,5.35826611328125,-0.06178630182743072,-0.3723844290025532,-0.0448056486710906
1761505898591423200,5.37842333984375,-0.020929975304007527,-0.4609877183459699,-0.02705737214311957
1761505898611579100,5.3985791015625,0.10034954897761345,-0.5460792001761495,-0.00958572059944272
1761505898631735300,5.4187353515625,0.14325228663682937,-0.5670006999127567,-0.05941745380423963
1761505898651891200,5.43889111328125,0.12648819884061813,-0.5180152813389897,-0.11897877305857836
1761505898672047400,5.45904736328125,0.08165303181409836,-0.474549795230478,-0.1833135903250426
1761505898692203300,5.479203369140625,0.08625497265160083,-0.4257908788889646,-0.347180648836866
1761505898712360400,5.4993603515625,0.08198679381310939,-0.41447117410376666,-0.41581170199252665
1761505898732516400,5.519516357421875,0.07176584405004978,-0.458521912754327,-0.463009652627632
1761505898752672300,5.53967236328125,-0.011118775385618208,-0.5034475345432758,-0.5231188880883157
1761505898772828400,5.559828369140625,-0.008194996893405913,-0.5615758983850478,-0.5516604343745857
1761505898792984300,5.579984375,-0.04942015672922134,-0.5795176516585052,-0.5708597864937037
1761505898813141200,5.600141357421875,-0.10406593915224074,-0.6419368445619941,-0.5709986104425042
1761505898833297200,5.620297119140625,-0.1999579241991043,-0.8911164803087711,-0.3939008258923888
1761505898853453300,5.640453369140625,-0.5077227276444435,-1.0704437044113875,-0.18531221679635346
1761505898873609200,5.660609130859375,-0.7526070042848586,-1.0599714102357625,-0.08790580859854817
1761505898893765000,5.68076513671875,-1.0021417370796204,-1.1137538538277147,-0.16464659151695668
1761505898913921300,5.70092138671875,-1.359814773032069,-0.6606921061754226,-0.0535034805200994
1761505898934078200,5.721078125,-1.275956924650073,-0.15289894364327192,-0.32900574439465996
1761505898954234400,5.741234375,-0.9267506882697343,0.35577217076718803,-0.5646965876888483
1761505898974390300,5.761390380859375,-0.587512303674221,0.6674369042605162,-0.5850979360088706
1761505898994546400,5.78154638671875,-0.20618249780237674,0.7266419574230909,-0.380060224327445
1761505899014702300,5.801702392578125,-0.013605916026234626,0.5484381843924522,-0.24832564926594494
1761505899034859500,5.821859619140625,0.08712824835479259,0.365660527575016,-0.18534005465134978
1761505899055015400,5.842015380859375,0.1296393563479185,0.38620384164899585,-0.011792144602537155
1761505899075171600,5.862171630859375,0.2265104155600071,0.45079029558897016,-0.057113633841276164
1761505899095327500,5.882327392578125,0.2013221982896328,0.563185087147355,-0.03671294310837984
1761505899115483600,5.902483642578125,0.3017220161497593,0.6893775179117918,-0.14487097387984393
1761505899135639600,5.9226396484375,0.3316530440330505,0.759788440221548,-0.16925196642056106
1761505899155796200,5.942796142578125,0.3879191211342811,0.79423139257133,-0.11642083220407366
1761505899175952400,5.962952392578125,0.4293073625773191,0.76051207832098,-0.021173574801534412
1761505899196108300,5.9831083984375,0.45529228318333625,0.71454907630831,0.07161503740251064
1761505899216264400,6.003264404296875,0.40817338913381096,0.6568778085842728,0.1307904260791838
1761505899236420400,6.02342041015625,0.4773316810339689,0.6272028012886643,0.2112001798339188
1761505899256577500,6.04357763671875,0.5489256756484509,0.6364362013190984,0.21895956178903578
1761505899276733400,6.0637333984375,0.6107061322569847,0.5627744605198503,0.3809026665009558
1761505899296889300,6.083889404296875,0.5651572640031576,0.4510968773201108,0.529483454684168
1761505899317045500,6.10404541015625,0.5194757092803717,0.34571459487229583,0.6770365072548389
1761505899337201400,6.124201416015625,0.34073768324255943,0.14881021302491426,0.8740091320328414
1761505899357358300,6.1443583984375,0.3333960883080959,0.1468061797261238,0.9830236335031688
1761505899377514200,6.16451416015625,0.22894904088377951,0.05060176772922277,1.0613530738525092
1761505899397670400,6.18467041015625,0.057552025258541105,-0.1329626555517316,1.1940144083701074
1761505899417826300,6.204826416015625,-0.13255787414312362,-0.28751053544580935,1.2125137955263257
1761505899437982200,6.224982177734375,-0.3160200060933828,-0.19999065742492675,1.0680094630017876
1761505899458138400,6.245138427734375,-0.5138578693985939,0.0436073787972331,0.7613977751143276
1761505899478295300,6.26529541015625,-0.567741435277462,0.2783995927512646,0.4820518414236605
1761505899498451500,6.285451416015625,-0.41668461236953735,0.466305552367866,0.19685484361723063
1761505899518607400,6.305607421875,-0.12990589832961558,0.4797682605311274,-0.03986132413670421
1761505899538763500,6.325763427734375,0.009609539866447449,0.462558767054975,0.0916723215252161
1761505899558919400,6.34591943359375,0.10841770462095737,0.23526801477223633,0.23406784520223736
1761505899579076400,6.366076416015625,0.239558113181591,-0.05455985770523548,0.4493646467000246
1761505899599232500,6.386232421875,0.2760714420646429,-0.26865005989223717,0.6111209966681898
1761505899619388400,6.406388427734375,0.2680477100849151,-0.3520984506905079,0.7100771915912628
1761505899639544600,6.426544677734375,0.1003343514084816,-0.5153416782155633,0.7023327149443328
1761505899659700500,6.446700439453125,-0.022874095109105107,-0.5371849689722061,0.6174846864812076
1761505899679857400,6.466857421875,-0.1559691448688507,-0.5655731513276696,0.5201064083993434
1761505899700013300,6.487013427734375,-0.18278116394877433,-0.5685995134115219,0.38569939925819635
1761505899720169200,6.507169189453125,-0.1999362968891859,-0.5032432441428304,0.3231007581345737
1761505899740325400,6.527325439453125,-0.09517419216632843,-0.5633630740627646,0.32582872179374095
1761505899760481300,6.547481201171875,-0.02175999638736248,-0.5629311123862862,0.39664033385887737
1761505899780637400,6.567637451171875,0.04920446815192699,-0.5751601871013641,0.3623663083352148
1761505899800794400,6.58779443359375,0.08731295727193356,-0.5866290910989046,0.3461782668612897
1761505899820950500,6.607950439453125,0.09354922131299973,-0.580128915424645,0.31524127680584785
1761505899841106400,6.6281064453125,0.0670984367609024,-0.5277031471386552,0.2876005518168211
1761505899861262300,6.648262451171875,0.14821955365538597,-0.46015112139135594,0.25431772928759455
1761505899881418500,6.66841845703125,0.1843769087076187,-0.44501521931886673,0.30709333392456173
1761505899901575400,6.688575439453125,0.19871815327107906,-0.5965355680853128,0.5376064092546701
1761505899921731600,6.708731689453125,0.03927987098693848,-0.7971917036816477,0.7965795631326734
1761505899941887500,6.728887451171875,-0.08978431582152843,-0.79247841142416,0.849114783142507
1761505899962043600,6.749043701171875,-0.1259931088000536,-0.6260282045513391,0.6156937114112079
1761505899982199600,6.769199462890625,-0.025075989067554472,-0.3238786106392741,0.4471579304359853
1761505900002357200,6.789357177734375,0.22206454206705092,-0.05961071135401726,0.42061259946823115
1761505900022513400,6.809513427734375,0.3524760518312454,0.0807318253159523,0.47685222695395346
1761505900042669300,6.82966943359375,0.34524610057771205,0.11288578994572163,0.5771442005254328
1761505900062825200,6.8498251953125,0.2466875266700983,0.025300737734138965,0.7494514628633856
1761505900082981400,6.8699814453125,0.1309901864349842,0.04900222357809543,0.8485621176958084
1761505900103137300,6.89013720703125,-0.06026946752369403,0.13591302978992462,0.850593915784359
1761505900123294500,6.91029443359375,-0.149551094520092,0.2468584993228316,0.9014517771665006
1761505900143450400,6.930450439453125,-0.3686801676571369,0.3314534298077225,0.7411826700814068
1761505900163606500,6.9506064453125,-0.6513742427319288,0.4174105885565281,0.6997451096039266
1761505900183762400,6.970762451171875,-0.8484563192337751,0.4017722899198532,0.5922262535188346
1761505900203918300,6.99091845703125,-0.8671189341276884,0.49408670874089,0.5092003259163349
1761505900224075300,7.0110751953125,-0.6914706907987594,0.6187386320650577,0.4347242730595171
1761505900244231200,7.031231201171875,-0.5535533354490995,0.6831941531017423,0.4038457351930439
1761505900264387300,7.05138720703125,-0.3528641743659973,0.7279840196818113,0.4175597877688706
1761505900284543200,7.071543212890625,-0.23898235912024973,0.6637216831296682,0.33415523611232634
1761505900304699400,7.091699462890625,-0.35003567294180393,0.7112021039679646,0.4766148380015045
1761505900324856300,7.111856201171875,-0.23849369882047175,0.693918376211822,0.3322855697829276
1761505900345012500,7.132012451171875,-0.07537994289398194,0.6922673941344022,0.22081585718020796
1761505900365168400,7.15216845703125,-0.005001169288158416,0.7074468430876731,-0.01387260413840413
1761505900385324300,7.17232421875,0.06765373255610466,0.8157190017580985,-0.05545132665224373
1761505900405480400,7.19248046875,0.14852584312558173,0.8799220093384384,-0.07687683038823306
1761505900425637000,7.21263720703125,0.14859890836179254,0.8309130637586116,-0.02857435257732868
1761505900445793300,7.232793212890625,0.03885726166069507,0.8323533256947994,0.018582973786443472
1761505900465949200,7.25294921875,0.04363806619644165,0.786763833169639,0.007880085725337266
1761505900486105000,7.27310498046875,-0.014939794978499411,0.7439350375294685,0.03317285934872925
1761505900506261200,7.29326123046875,0.043240006789565084,0.6083399876475334,0.06956110054738819
1761505900526418200,7.313418212890625,-0.1581605174332857,0.6484972259908914,0.058900444192811846
1761505900546574300,7.33357421875,-0.22417641965448856,0.5804156234115362,-0.020347426175698638
1761505900566730200,7.353730224609375,-0.22795418462753295,0.5327972554072737,-0.05179134283997118
1761505900586886400,7.373886474609375,-0.16384908446371554,0.43883477711826563,-0.038439109313860534
1761505900607042300,7.394042236328125,-0.05145604647099972,0.32894612316191196,-0.0624807868976146
1761505900627199500,7.414199462890625,-0.015697335347533224,0.2698363470673561,0.04528342225067317
1761505900647355400,7.43435546875,0.08401859190165996,0.18431670295298097,0.0954339390810579
1761505900667511300,7.45451123046875,-0.0029939211189746857,0.06922434287369252,0.170765074397251
1761505900687667500,7.47466748046875,-0.07681085247993469,0.021121113961935042,0.1867187225934118
1761505900707823400,7.4948232421875,-0.17175766563117503,0.051368075926601885,0.17511654760502277
1761505900727980300,7.514980224609375,-0.279596109059453,0.08050298499614,0.16380188432112336
1761505900748136200,7.53513623046875,-0.2479372344702482,0.13023030797839164,0.16528152841962873
1761505900768292400,7.555292236328125,-0.22280279321372506,0.15644757603555917,0.23798816045112905
1761505900788448300,7.5754482421875,-0.21069442226886748,0.12672317664027213,0.3679954002633691
1761505900808604200,7.595604248046875,-0.21137539027035235,0.13115414482504129,0.4591445016320795
1761505900828761300,7.61576123046875,-0.2081833162307739,0.16440905643403528,0.5358618306096643
1761505900848917200,7.635917236328125,-0.2617272748917341,0.21934388493150472,0.5758484616264701
1761505900869073400,7.656073486328125,-0.3172024938762188,0.3678580376192927,0.471302410807088
1761505900889229300,7.676229248046875,-0.3551812191367149,0.5021735690847039,0.39290816159322856
1761505900909385200,7.69638525390625,-0.38930502253472804,0.5602259450808167,0.23647059549503027
1761505900929541400,7.716541259765625,-0.44577509777545926,0.615597411429882,0.15071443921104072
1761505900949698300,7.7366982421875,-0.5325239914238452,0.6997898985937238,0.06411430638357997
1761505900969854500,7.7568544921875,-0.5858142675846815,0.808136876066029,-0.08038542303107678
1761505900990009600,7.777009521484375,-0.6172159525424241,0.8910963143035769,-0.19714447421357034
1761505901010165800,7.797165771484375,-0.5516664987891912,1.003610056066513,-0.36359577706493434
1761505901030321700,7.81732177734375,-0.41737610176503653,1.1306231555640698,-0.4840027562957257
1761505901050478600,7.837478515625,-0.2913654573082924,1.2577850158825516,-0.601290945918858
1761505901070634500,7.857634521484375,-0.24381986227929592,1.2446008323997257,-0.6477821365240961
1761505901090790700,7.877790771484375,-0.18834873494803905,1.0954530579835176,-0.6330969738937914
1761505901110946600,7.897946533203125,-0.2065449013739824,0.9750015089586377,-0.5740126975666732
1761505901131102500,7.9181025390625,-0.19190555064678191,0.9213304167866706,-0.6058859455589205
1761505901151259600,7.938259765625,-0.10579495490193366,0.8937073735848069,-0.6063761402286589
1761505901171415600,7.95841552734375,-0.007071545821428299,0.9060238343223929,-0.6222235515713691
1761505901191571700,7.97857177734375,-0.002856558474898338,0.7972188839495181,-0.6698163467429578
1761505901211727600,7.9987275390625,0.06080547409653663,0.6504714486733079,-0.6588686901405453
1761505901231882500,8.018882568359375,0.050237318331003186,0.6807695563033223,-0.5386870440982282
1761505901252038700,8.03903857421875,-0.029207974305748938,0.5923468842238188,-0.5815250459581613
1761505901272194600,8.059194580078126,-0.18221885389089584,0.5291948470011353,-0.5323847290836274
1761505901292351700,8.079351806640625,-0.21752514507174492,0.434087582591176,-0.6005201076768338
1761505901312507600,8.099507568359375,-0.24797873552441596,0.44985944447964427,-0.5500913584269583
1761505901332663600,8.11966357421875,-0.14273030858933924,0.4432964327022433,-0.593818856472522
1761505901352819700,8.13981982421875,-0.08731237275004386,0.4092278666228056,-0.49799277626872057
1761505901372975600,8.1599755859375,-0.0883954918116331,0.24065116911530493,-0.39576384328529235
1761505901393132800,8.1801328125,-0.13317279117107392,0.17602701351344585,-0.21569822190552948
1761505901413288700,8.200288818359375,-0.15106675978004933,-0.02303425410687923,-0.14553060683235525
1761505901433444900,8.22044482421875,-0.012964110991358756,-0.09774112004488707,-0.08981441869884729
1761505901453600800,8.240600830078124,0.08684066358506679,-0.26817396681308747,0.029409195966273543
1761505901473756700,8.260756591796875,0.2383130815565586,-0.37174803079515695,0.05259966354817152
1761505901493913600,8.28091357421875,0.29637714799046516,-0.5160509955286979,0.2688327229827642
1761505901514069500,8.301069580078124,0.23250176492929459,-0.5255851320713758,0.43055180968046186
1761505901534225700,8.3212255859375,0.26169980236291884,-0.4657862046688795,0.45072073748409747
1761505901554381600,8.341381591796875,0.2316074464380741,-0.35638387292474505,0.4447499925114214
1761505901574537700,8.361537841796874,0.16079788019955157,-0.2599029820740223,0.3436018405020237
1761505901594694700,8.381694580078126,0.07934475487172603,-0.19969079769551754,0.346097602840513
1761505901614850800,8.401850830078125,-0.007940729871392249,-0.23595307442694902,0.35168928536772726
1761505901635006700,8.4220068359375,-0.14066227014362812,-0.25326661279946566,0.42333048012480134
1761505901655162600,8.44216259765625,-0.22314006234407424,-0.22272096014916895,0.4186820697970688
1761505901675318800,8.46231884765625,-0.3507598955631256,-0.24062939567491412,0.4556579016253352
1761505901695475500,8.482475341796874,-0.45924891185462474,-0.2973354716286063,0.4344925101302564
1761505901715631600,8.502631591796876,-0.5195692327827215,-0.34789456925988194,0.3904113763414323
1761505901735787500,8.52278759765625,-0.46794425948560237,-0.34569252917096016,0.33405367543399334
1761505901755943400,8.542943359375,-0.3862345290482044,-0.271179286108911,0.3464839718095958
1761505901776099600,8.563099609375,-0.27104981451034543,-0.28164792702272534,0.26910218757390975
1761505901796256500,8.583256591796875,-0.15568506723046302,-0.116061205111444,0.23279051874279974
1761505901816412700,8.60341259765625,-0.08257306926846504,-0.08074512318894267,0.13588687243536113
1761505901836568600,8.623568603515626,-0.09575286883711814,-0.1861772361278534,0.05474149788245558
1761505901856724700,8.643724853515625,-0.018791209709644315,-0.1167829435147345,0.018261632877588273
1761505901876880600,8.663880615234374,0.026143910560011863,-0.11660524886026978,-0.04262289780452847
1761505901897037800,8.684037841796876,-0.005680383723974228,-0.14723536492362618,-0.08196969654783606
1761505901917193700,8.70419384765625,0.0070125091105699535,-0.1741061284534633,-0.14962708236575126
1761505901937349600,8.724349609375,0.10936346103847026,-0.30999840771630405,-0.1499061915680766
1761505901957505800,8.744505859375,0.14236381336450576,-0.44880642829537387,-0.04677446452602744
1761505901977661700,8.76466162109375,0.12706862907707692,-0.5741726373687386,0.051837593134492634
1761505901997818600,8.784818603515625,0.14544365920126437,-0.6379810926735401,0.20006357653066514
1761505902017974500,8.804974609375,0.278040696310997,-0.5828780680023133,0.25586115933731196
1761505902038130700,8.825130615234375,0.32343934243917466,-0.5521976830564439,0.3084196140922606
1761505902058286600,8.84528662109375,0.3510246839791536,-0.5209817299291492,0.391928210645169
1761505902078442500,8.8654423828125,0.34375615428090095,-0.5181261943675577,0.4597818496875465
1761505902098599700,8.885599609375,0.3242699480444193,-0.5097866744369268,0.5236426197014749
1761505902118755600,8.905755615234375,0.27166414701640607,-0.5740041489340365,0.5581688664205372
1761505902138911700,8.925911865234376,0.20022972687780857,-0.613444178918749,0.6781327780589461
1761505902159067600,8.946067626953125,0.14077508286833762,-0.6697555564664304,0.7229889878734946
1761505902179223600,8.9662236328125,0.023854922839999196,-0.6706397919550537,0.7182358019970357
1761505902199380700,8.986380615234374,-0.0539531239837408,-0.6365455069124698,0.6609498803287744
1761505902219536600,9.00653662109375,-0.15219897868037222,-0.6424518083468079,0.6300310104519128
1761505902239692800,9.02669287109375,-0.26531214764118194,-0.6450314495764672,0.6001990590289235
1761505902259848700,9.0468486328125,-0.2902618799805641,-0.5727786987923086,0.5141238268584013
1761505902280004900,9.0670048828125,-0.2889981436550617,-0.37655396977216005,0.3302932999871671
1761505902300161500,9.08716162109375,-0.18610124828219413,-0.18873276582956314,0.22142580577209592
1761505902320317700,9.107317626953124,-0.07747779195606708,-0.010596358946710824,0.08486234924942254
1761505902340473600,9.1274736328125,-0.05001169288158416,0.15253054872229693,-0.15288637642264366
1761505902360629500,9.14762939453125,-0.04495031783878803,0.21307503379508852,-0.32678543799668547
1761505902380785700,9.16778564453125,-0.043649172112345695,0.13379632989689708,-0.3565945930659771
1761505902400942600,9.187942626953125,0.0017576573222875594,-0.0078634268514812,-0.19530483769625423
1761505902421098800,9.2080986328125,0.004137830457091331,-0.08477671679258346,0.029205197826772927
1761505902441254700,9.228254638671874,0.03428337787389755,-0.18934052246436475,0.11365560527443885
1761505902461410800,9.248410888671875,-0.027735563665628432,-0.2442863107472658,0.16359671713784335
1761505902481566700,9.268566650390625,-0.11230594423115253,-0.28965061621442434,0.14329057282060384
1761505902501723600,9.2887236328125,-0.09827917244434356,-0.30083456579074264,0.17677900092452764
1761505902521879600,9.308879638671876,-0.2298597259879112,-0.3818608440086245,0.2250172543928027
1761505902542035500,9.329035400390625,-0.12097674194276332,-0.20966654052585362,0.19816899495571852
1761505902562191600,9.349191650390624,-0.01689969687461853,-0.07778758855760097,0.13107844924032688
1761505902582347500,9.369347412109375,0.06470365057885646,0.15579320378005504,0.05960530452653765
1761505902602504700,9.389504638671875,0.18603461278676986,0.27685031748265027,-0.008055442292243241
1761505902622660600,9.40966064453125,0.1563660352319479,0.11397650779187679,0.07734766277037561
1761505902642816500,9.42981640625,0.13017711648643016,0.028897300921380518,0.10188874124363065
1761505902662972700,9.44997265625,0.13238076401054857,-0.06510024868100882,0.14125205273032188
1761505902683128600,9.470128662109374,0.06649345660507679,-0.0522977579921484,0.1567231781065464
1761505902703285800,9.49028564453125,-0.09182546626031399,0.13634206885695457,0.013539134400337934
1761505902723441700,9.510441650390625,-0.2637836228996515,0.4618979650586843,-0.20310002161711455
1761505902743597800,9.530597900390624,-0.42678748871088024,0.7492816592544317,-0.45809491951391096
1761505902763753700,9.550753662109376,-0.3395557799816131,1.0205953853979706,-0.6631479018297046
1761505902783909600,9.57090966796875,-0.07151157702803611,1.1607017752245068,-0.8848458756066858
1761505902804066600,9.591066650390625,0.10380465786755085,1.1256173101007938,-0.870656241408363
1761505902824222500,9.611222412109376,0.1587450393229723,0.8865224305167794,-0.8233725852511823
1761505902844378600,9.631378662109375,0.2103442936569452,0.49374476343542334,-0.6632866527132689
1761505902864534500,9.651534423828124,0.14365034604370594,-0.00768061763048172,-0.3788204533994198
1761505902884690700,9.671690673828126,-0.07314648475348949,-0.2963902997329831,-0.2155316331669688
1761505902904847600,9.69184765625,-0.3540010694414377,-0.2810933618798852,-0.2054011381663382
1761505902925003800,9.712003662109375,-0.6023077217459678,-0.07454816824495791,-0.554214429706335
1761505902945159700,9.73215966796875,-0.4946820442855358,0.2853863828986883,-1.0528164239145814
1761505902965315600,9.752315673828125,-0.42191666780412196,0.6377864468842744,-1.2361701270543037
1761505902985471700,9.7724716796875,-0.016727847439050675,0.7447592133939266,-1.383756935764104
1761505903005628400,9.79262841796875,0.15224690947532654,0.3955710971921682,-1.2677324094012379
1761505903025784600,9.81278466796875,0.18929390684366226,-0.0023576690420508382,-0.9179650320068001
1761505903045940500,9.8329404296875,0.289935716766119,-0.2525757079258561,-0.6331698929995297
1761505903066096400,9.853096435546876,0.3692956692069769,-0.42625148213803765,-0.438100179233402
1761505903086252500,9.87325244140625,0.3866869489908218,-0.5503153764411807,-0.4411977068573236
1761505903106409200,9.8934091796875,0.23808804062902925,-0.6154664785265922,-0.5156523515999317
1761505903126565400,9.9135654296875,0.08732055605649948,-0.7073524428024888,-0.6299518077358603
1761505903146721300,9.93372119140625,0.008400164076685906,-0.724996820564568,-0.6903343802452087
1761505903166877400,9.95387744140625,0.04680208318531513,-0.66754153367877,-0.6736144238516688
1761505903187033300,9.974033447265626,0.07709259203076362,-0.6552751956932247,-0.6710438427112996
1761505903207190500,9.9941904296875,0.04467325446307659,-0.7421310568474233,-0.5812910910718143
1761505903227346400,10.014346435546875,0.05834171433150768,-0.8531700498826801,-0.5372524812504649
1761505903247502300,10.03450244140625,0.023226561808586118,-0.8980642536200583,-0.37128830432891846
1761505903267658500,10.054658447265625,0.000012274959683418274,-0.9534677225425839,-0.3524652381762862
1761505903287814400,10.074814453125,0.00014963760375976562,-0.9159567609243094,-0.3847887141540646
1761505903307971600,10.0949716796875,0.0606587591022253,-0.8348151857636869,-0.3738144618056714
1761505903328127500,10.11512744140625,0.119783732765913,-0.7611705422297119,-0.3116730629302561
1761505903348283400,10.135283447265625,0.16481529914736748,-0.6464100444532931,-0.24848098595812915
1761505903368439600,10.155439453125,0.10185293927788734,-0.5940552955769002,-0.1829666035182774
1761505903388595500,10.175595458984375,-0.06601239508986473,-0.5365650835081934,-0.07101181081235408
1761505903408752400,10.19575244140625,-0.25575170761346816,-0.4003083548471331,-0.10940379304885864
1761505903428908300,10.215908203125,-0.5362099864602089,-0.14957242956906555,-0.20039704626873134
1761505903449064400,10.236064453125,-0.7120172197431326,-0.11842939554750918,-0.41369931294843554
1761505903469220400,10.256220458984375,-1.1625614316165447,-0.20830241256579757,-0.2892426199354231
1761505903489376300,10.276376220703124,-1.1378373247265816,-0.2974956306263804,-0.5444201809227466
1761505903509533400,10.296533447265626,-1.1548889972925185,-0.1709587703384459,-0.5062251825630665
1761505903529689300,10.316689453125,-0.9999071098953485,-0.2286377829775214,-0.5188501247279346
1761505903549845500,10.336845458984374,-0.8269681255251169,-0.24553572628647088,-0.3864104701370001
1761505903570001400,10.35700146484375,-0.7182640051782131,-0.047587096083164214,-0.08628829039931296
1761505903590157600,10.377157470703125,-0.4987637606412172,0.15793547650575637,0.055202831783890724
1761505903610314500,10.397314453125,-0.23564357008635997,0.32899200813025237,0.2440703299090266
1761505903630470400,10.417470458984376,-0.04803425532877445,0.452424326531589,0.34495793128609653
1761505903650626300,10.437626220703125,0.09604512978196143,0.5300660768777131,0.430000459408015
1761505903670782200,10.4577822265625,0.20072832404971122,0.5189782811522483,0.5467283117346465
1761505903690938400,10.4779384765625,0.14654372939765453,0.3632078737258911,0.7392687992841005
1761505903711095300,10.49809521484375,-0.02169277637004852,0.3103004594027996,0.8514654379218817
1761505903731251500,10.51825146484375,-0.23132219975590704,0.5754781670093536,0.6313020533010363
1761505903751407400,10.538407470703126,-0.024587913289666176,0.9662705054923891,0.16618629523962736
1761505903771563300,10.558563232421875,0.44969139443635936,1.376418994091451,-0.061707975894212716
1761505903791719400,10.578719482421874,0.6911024420082569,1.3373612414225935,-0.27295564813166856
1761505903811876400,10.59887646484375,0.7806365824609994,1.2924305050671099,0.00355535439401865
1761505903832032500,10.619032470703125,0.6483955191820859,0.9509411266744137,0.4220068303056061
1761505903852188400,10.6391884765625,0.46674189795851706,0.5251093312531709,0.5311721384234727
1761505903872344600,10.659344482421876,0.3637953182250261,0.42779257410019633,0.5516594845265149
1761505903892500500,10.67950048828125,-0.14037760798335075,0.6619546734571456,0.9761546245165169
1761505903912657400,10.699657470703125,-0.10619827500581741,0.6401581444516777,0.23303835602402687
1761505903932813300,10.719813232421876,-0.44489422328770156,0.5449561874955893,0.3209089471787214
1761505903952969200,10.73996923828125,-0.31185294954180715,0.23810265367627143,-0.32695597225800155
1761505903973125400,10.76012548828125,0.6122036773383617,0.5054314018368721,-0.22701938799545168
