time,seconds_elapsed,z,y,x
1761431195153863000,0.11886279296875,0.04085457295775413,-0.014375247297761962,0.005738507119379938
1761431195173806800,0.138806884765625,0.05521452222168445,-0.011710521600535139,-0.02455584678412415
1761431195193750000,0.15875,0.06343699164390564,-0.0070753132476704195,-0.006218417857121676
1761431195213694000,0.17869384765625,0.04366846133470535,0.01889372936920263,-0.0018272519597783683
1761431195233638000,0.198637939453125,0.05967091710865497,0.017612717681913637,0.019642428844654933
1761431195253580800,0.218580810546875,0.02450315761566162,0.010091519263689406,0.026466009520692748
1761431195273525000,0.23852490234375,0.05383446604013443,-0.0055834307220997284,-0.014433270228467882
1761431195293469000,0.258468994140625,0.03153554047048092,-0.007517220929428003,-0.042883777230419216
1761431195313411800,0.278411865234375,0.05216448700129986,-0.02016181307625957,-0.028536230790335685
1761431195333355800,0.298355712890625,0.05834463694095611,-0.020634873948106543,-0.03296000204933807
1761431195353300000,0.318300048828125,0.03266425223946571,-0.00879980808587279,0.02331415789364837
1761431195373243000,0.338242919921875,0.038388475105166436,-0.005375400294875726,0.001047244030609727
1761431195393186800,0.358186767578125,0.042536826956272124,-0.005170612137508578,-0.0037513701564632356
1761431195413131000,0.378131103515625,0.03232406049966812,0.014255744537361897,-0.015965484764426947
1761431195433074000,0.398073974609375,0.03880231660306453,-0.011334180835122241,-0.03589602810177021
1761431195453017900,0.418017822265625,0.04541033656597137,-0.011369329780316911,0.00018151231305673718
1761431195472961800,0.4379619140625,0.041647769162058826,-0.015951593236392364,0.013697220172034575
1761431195492905000,0.457905029296875,0.047443888220191,-0.009005696788360364,0.016133078149985523
1761431195512849000,0.477848876953125,0.055339609906077385,0.014002500428655184,0.008200869511766358
1761431195532792800,0.497792724609375,0.04649287110567093,-0.002695285232271999,0.0066743449310772114
1761431195552735700,0.51773583984375,0.05085048179328441,0.016973410564800725,-0.010678803932620213
1761431195572680000,0.537679931640625,0.03845394155681133,0.014890352646471,0.0017290522823110222
1761431195592623900,0.557623779296875,0.04417465729117393,0.004044699680386111,-0.007444297257112339
1761431195612567000,0.577567138671875,0.04539221638739109,-0.016259033484058452,-0.005900337484432384
1761431195632511000,0.597510986328125,0.045828854238986964,-0.0060659718083450566,-0.02127798502407968
1761431195652455000,0.617454833984375,0.03475567156076431,-0.012654255024320445,0.010894373778905718
1761431195672397800,0.637397705078125,0.0561363132417202,0.009409765810915268,0.004803847484616562
1761431195692341800,0.657341796875,0.04580255075395107,-0.007763473608344793,-0.009259566518152133
1761431195712286000,0.677285888671875,0.06134557232260704,0.01157435083312448,-0.010995203804876655
1761431195732229000,0.69722900390625,0.04233867403566837,-0.009283901808387599,0.01246683812686242
1761431195752173000,0.717173095703125,0.0493786556750536,-0.012024711249396204,0.011891997380973771
1761431195772117000,0.737116943359375,0.03860124107301235,-0.018625648450967855,0.010370559967355803
1761431195792060000,0.757059814453125,0.0360544791996479,0.00179528135235887,0.018870156697370112
1761431195812003800,0.77700390625,0.030665187376737593,-0.0014815072620287537,0.0009053604750428348
1761431195831947800,0.79694775390625,0.05939794538617134,0.021013726331014185,-0.03278919379338622
1761431195851890700,0.816890625,0.03919803792238235,-0.002273854082962498,0.00206074105524458
1761431195871835000,0.8368349609375,0.03830839560627937,0.004416957925725728,-0.01865289721749723
1761431195891779000,0.856779052734375,0.02918400890827179,-0.030517563633550886,-0.012235120863374322
1761431195911722000,0.876721923828125,0.035007015973329544,-0.01202174297417514,-0.0024164317582733926
1761431195931666000,0.896666015625,0.03261222979128361,-0.009815113475103863,-0.005537623385572806
1761431195951609900,0.91660986328125,0.0384422511190176,-0.005673255296866409,-0.005944478020258248
1761431195971552800,0.936552734375,0.043369770649075504,0.022683066049031912,0.011520296258060262
1761431195991496700,0.95649658203125,0.04515548502206802,0.02276951135662384,0.0046604295590892434
1761431196011441000,0.97644091796875,0.0529337178081274,0.01661680197974201,-0.014166865244088694
1761431196031384000,0.996384033203125,0.047694063588976855,0.012165014769230037,-0.030902758992277082
1761431196051328000,1.016327880859375,0.03677928634285926,-0.008899747629277407,-0.0036995577708352355
1761431196071272000,1.03627197265625,0.039029111096262926,-0.025922395030129698,0.010322199914138764
1761431196091214800,1.05621484375,0.04366553872525692,-0.007330516418023034,0.02960746761788614
1761431196111158800,1.07615869140625,0.029891280394792556,0.005975562711688689,-0.005821801488660276
1761431196131102700,1.096102783203125,0.044405543437600135,0.011706818106374703,-0.0004523194779176265
1761431196151047400,1.11604736328125,0.038867198532819745,0.010535006981180048,-0.025418884221091866
1761431196170990600,1.135990478515625,0.047098435783386225,0.0077433213028823954,-0.017139670509798453
1761431196190934800,1.155934814453125,0.03408347138762474,-0.007311953281448222,0.0030318145771045238
1761431196210878700,1.175878662109375,0.02585340318083763,-0.0067085485947784036,0.03592876132759265
1761431196230821600,1.195821533203125,0.0331833076775074,-0.00451178746917285,0.019564203376136718
1761431196250765600,1.215765625,0.043506548771262164,-0.016534685787395573,0.004313945075822994
1761431196270709500,1.23570947265625,0.05098375278413295,0.01633847366212867,-0.012328251640079542
1761431196290652400,1.25565234375,0.031982699716091155,0.008025914803659544,-0.023989755600271744
1761431196310596400,1.275596435546875,0.05278524924814701,0.00929993049458135,-0.0008444697338156401
1761431196330540500,1.29554052734375,0.05338087705373764,0.004644588102563284,0.010908685432048515
1761431196350483700,1.315483642578125,0.036468320697546006,0.00048688390122260893,0.017017706364253534
1761431196370427600,1.335427734375,0.03960486515760422,0.013821376274665818,-0.004332722841529175
1761431196390371600,1.35537158203125,0.0559141949236393,-0.009542210251279175,-0.00531679284228012
1761431196410314500,1.375314453125,0.047537411722540855,-0.008533836926333607,-0.006631967094074934
1761431196430258400,1.395258544921875,0.057571899002790444,-0.012436771782161668,0.0018186850608326493
1761431196450202400,1.415202392578125,0.04665303010344505,0.01000756730728317,0.005886747350497171
1761431196470145500,1.4351455078125,0.03841770119965076,0.012122732830350286,0.020700130337197333
1761431196490089700,1.45508984375,0.04454758225679397,0.014644620557362212,0.009302227482944726
1761431196510033700,1.47503369140625,0.05322013353407383,0.00464374785234686,-0.0028514165089000014
1761431196529976600,1.4949765625,0.040351299610733984,-0.009977884555072524,0.0034225674603600054
1761431196549920500,1.51492041015625,0.04245031771659851,-0.008864493652805686,-0.0019494992331136017
1761431196569863700,1.53486376953125,0.065198740619421,0.0038645482073538,-0.005294708874635398
1761431196589807600,1.5548076171875,0.05038695593476295,-0.011048007137770764,-0.007879017146257683
1761431196609751600,1.57475146484375,0.04590075043141842,0.0007636915486073121,-0.0029404190997593103
1761431196629694500,1.594694580078125,0.04111410067677498,-0.010441309948894195,0.004357099230960011
1761431196649638700,1.614638671875,0.03752572079598904,-0.005256235461193136,0.0007252729340922088
1761431196669582600,1.63458251953125,0.055925885361433024,-0.0008814133438747375,-0.0006167619251646101
1761431196689525500,1.654525390625,0.05472644644379616,-0.011646457088110037,-0.012888077479926869
1761431196709469400,1.674469482421875,0.03961071037650108,0.007120613694121129,0.0007564261241815984
1761431196729413600,1.69441357421875,0.04679214631319046,0.008167551764054223,-0.013591914900345727
1761431196749356500,1.7143564453125,0.04738952768445015,0.007222416401049122,0.0009721968998666852
1761431196769300500,1.734300537109375,0.03257014421522617,-0.014695944319223053,-0.0028758933630306273
1761431196789244700,1.75424462890625,0.05037351193130016,0.00745552647060249,-0.011671029840363188
1761431196809187600,1.7741875,0.041542555221915245,0.006528917711554095,-0.012762880197679623
1761431196829131500,1.794131591796875,0.03525777586400509,-0.016549093338660895,-0.027547338483994824
1761431196849075500,1.814075439453125,0.05440612844824791,-0.0034405780410859733,0.004085022557619959
1761431196869018600,1.8340185546875,0.05769640216529369,-0.0035942479325691236,0.023891565055958925
1761431196888962600,1.853962646484375,0.03494447213113308,0.009880817388766444,0.0014405633302871138
1761431196908906500,1.873906494140625,0.05184650709331035,0.010860129016009159,0.004555188219482079
1761431196928849700,1.893849609375,0.049154199269413945,0.0054700791412731625,0.00887009227653034
1761431196948793600,1.913793701171875,0.024919921723008154,-0.010500670886738225,0.025833757765451444
1761431196968737500,1.933737548828125,0.05305471383929252,-0.013854995416477322,-0.0005994819968007505
1761431196988680700,1.9536806640625,0.04422784878313541,-0.01601290410272777,0.003424293626565486
1761431197008624600,1.973624755859375,0.04528115722835064,-0.009035603302856906,0.0033042839760892093
1761431197028568600,1.993568603515625,0.0551601616859436,-0.002762966473889537,-0.011917825941974297
1761431197048511500,2.013511474609375,0.048719899505376814,0.010766938873799517,-0.00928671938655898
1761431197068455700,2.03345556640625,0.058442836618423456,0.020528130204579793,-0.006814100461639464
1761431197088399600,2.053399658203125,0.030459435671567916,0.009653264843742362,0.016322490641707554
1761431197108342500,2.073342529296875,0.055443654802441594,-0.013505953649943694,0.01131407876200974
1761431197128286700,2.09328662109375,0.051101826205849646,0.0018641362043330446,0.015211360195185989
1761431197148230100,2.113230224609375,0.033144729232788085,-0.0004957156616495922,0.008219263684982433
1761431197168173000,2.133173095703125,0.0494610732614994,0.004221535818325356,-0.007991236215922981
1761431197188117000,2.153116943359375,0.05201134226620197,0.00033320487658493217,-0.01137032072758302
1761431197208061000,2.17306103515625,0.04797288053035736,0.006024475320754573,-0.006310991511400789
1761431197228004000,2.193004150390625,0.031817864543199535,-0.008945340336672962,-0.0034939247966744003
1761431197247948000,2.212947998046875,0.043190322428941726,-0.0015999414433492346,-0.007672571321344003
1761431197267892200,2.232892333984375,0.03810147485733032,-0.006897805822873488,0.015107041304185985
1761431197287835100,2.252835205078125,0.05052081144750118,-0.004146525220200419,-0.01417591620022431
1761431197307779000,2.272779052734375,0.03690262046158314,-0.0021122703130822627,-0.02179836476952769
1761431197327723000,2.292722900390625,0.044831659895181654,-0.015670986196724697,-0.011558555042371153
1761431197347666000,2.312666015625,0.049472179177403444,-0.007297550296760164,0.004287641590787097
1761431197367609900,2.33260986328125,0.04393734140396118,0.00860563722064253,-0.0070600015141069885
1761431197387554000,2.352553955078125,0.029567455267906186,-0.008177351638861,0.004643250095425174
1761431197407497000,2.3724970703125,0.0440758730918169,-0.0027859591904096305,0.006692483375966549
1761431197427441200,2.392441162109375,0.026270167288184165,-0.0023675922144437206,0.021829170899745075
1761431197447385000,2.412385009765625,0.03868950387835502,0.012048717746068723,-0.003834646259434521
1761431197467328000,2.432327880859375,0.04736790037453174,-0.006776197870355099,-0.02108932145102881
1761431197487272000,2.45227197265625,0.0458709398150444,0.008011475286353379,-0.030808568769646806
1761431197507215000,2.472215087890625,0.028066987577080725,0.0004548584948759526,-0.001790828939527273
1761431197527159000,2.492158935546875,0.036895606198906895,-0.0013944865657016634,0.000460046126646921
1761431197547103000,2.51210302734375,0.040486908689141274,-0.012857705174549481,0.019363684968510642
1761431197567046000,2.5320458984375,0.04557224912941456,-0.010757865084777586,0.013691986874490976
1761431197586990000,2.551989990234375,0.04482172302305698,0.006933055232767947,0.0013664751807693392
1761431197606934000,2.57193408203125,0.04721592468321323,-0.0076268324834760275,0.006312471082434058
1761431197626877200,2.591877197265625,0.03988543566465377,0.0006409054191550239,0.0018811467046383767
1761431197646821000,2.611821044921875,0.0458709398150444,0.0011126693830592557,0.0034549536263104525
1761431197666765000,2.63176513671875,0.05200666609108448,-0.013628301387978718,0.00007404248374514281
1761431197686708000,2.6517080078125,0.057692310512065886,-0.005837958039017394,-0.007345841851318254
1761431197706652000,2.67165185546875,0.04332826959490776,-0.00782653804034926,-0.0018844437734223901
1761431197726596000,2.69159619140625,0.045126843449473375,0.007599159025261178,0.0004863130790647119
1761431197746539000,2.7115390625,0.052312955561280246,0.00706132582151331,0.006713078639423474
1761431197766483000,2.73148291015625,0.03899462430477142,-0.007459567891480401,-0.001334226012136787
1761431197786427100,2.75142724609375,0.04198854542374611,0.006333815264562144,-0.0003044902387540787
1761431197806370000,2.7713701171875,0.036001872229576105,0.0106890239325352,-0.0016604622918181121
1761431197826314000,2.79131396484375,0.03855272575616836,-0.005032623872347175,-0.0110606519902125
1761431197846258000,2.8112578125,0.04319266051650047,-0.001450792463356629,-0.0015658793435432015
1761431197866200800,2.831200927734375,0.0277805718511343,-0.01083389402963221,-0.015541770326485856
1761431197886145000,2.85114501953125,0.03271861277520657,-0.0018988513246877118,0.001011505996948108
1761431197906089000,2.8710888671875,0.035411505120992656,-0.0006673961338587105,0.006554627541545778
1761431197926032100,2.8910322265625,0.0512695839881897,-0.003881992532499134,0.015311331704631446
1761431197945976000,2.91097607421875,0.054557519617676735,0.0008252718430012464,0.0017656214330345392
1761431197965920000,2.930919921875,0.03914192382097244,-0.006631565235275774,-0.016295219042291864
1761431197985863000,2.95086279296875,0.041382980746030806,-0.004755103838909417,-0.015178745700372382
1761431198005806800,2.970806884765625,0.03853928175270557,-0.015347987620322964,0.015818294846080244
1761431198025750000,2.99075,0.03823825297951698,-0.006831996877933852,0.0005439432841259986
1761431198045694200,3.010694091796875,0.04871230072081089,-0.006717252491042018,-0.017890890735900028
1761431198065638100,3.03063818359375,0.03374854034483433,0.008540472163097002,-0.011122072454402223
1761431198085581000,3.0505810546875,0.03658990125060081,0.003087184326420538,-0.011350903641059994
1761431198105525000,3.07052490234375,0.030156653332710264,0.01405288347559981,-0.006287692834204063
1761431198125469000,3.090468994140625,0.048560909551382064,-0.006575903225014917,0.026978562152711674
1761431198145412000,3.110412109375,0.045270051312446595,-0.01705152643546462,0.006637419587327167
1761431198165356000,3.13035595703125,0.03464168979227543,-0.014416848816629498,0.00158038279293105
1761431198185300200,3.15030029296875,0.0388297891318798,0.020671315234666688,0.0026308325607795266
1761431198205243100,3.1702431640625,0.05065349791646003,0.017755277090915476,-0.021557961876085028
1761431198225187300,3.190187255859375,0.05095394216775894,0.022365533665614203,-0.005394287658436223
1761431198245131300,3.21013134765625,0.04900689975321293,0.010639933226956054,0.026614487213827667
1761431198265074200,3.23007421875,0.036737200766801835,0.0023412156641716138,0.02182752693193033
1761431198285018000,3.25001806640625,0.04241933805644512,-0.002944159126537852,0.02085459024654701
1761431198304962000,3.269962158203125,0.04286825086772442,0.006958984258468262,-0.008231365114729852
1761431198324905200,3.2899052734375,0.0410737686663866,0.01009063334770035,-0.00019359547649510205
1761431198344849200,3.30984912109375,0.03583586801290512,0.009966468111914583,-0.014348094429355114
1761431198364792000,3.3297919921875,0.035090018081665036,0.019657329586264677,0.0020967348172329365
1761431198384736300,3.349736328125,0.0352396556854248,0.006001660700747743,0.01189860978485085
1761431198404680200,3.36968017578125,0.048559740507602686,-0.002502548272302374,0.0013344178083818405
1761431198424623400,3.389623291015625,0.051253801897168154,-0.0013778048589592798,0.0024377028751652687
1761431198444567300,3.4095673828125,0.046618543311953545,-0.0019327124950941652,-0.006305064094113186
1761431198464511200,3.42951123046875,0.028211949005723,0.012814322690549306,-0.01437352113155648
1761431198484454100,3.4494541015625,0.034794250005483626,0.005474472188600339,-0.022090945374779403
1761431198504398000,3.469398193359375,0.05289981553852558,0.013817143057542853,-0.014822196480818091
1761431198524342300,3.48934228515625,0.04691840304136276,0.0035120952076045796,0.014392499826662242
1761431198544285200,3.50928515625,0.028963644155859947,-0.0065527963440632445,0.024311388770071787
1761431198564229400,3.5292294921875,0.03868950387835502,-0.010368107715365477,0.0296276244899258
1761431198584173300,3.54917333984375,0.03823766845762729,-0.010077933696331455,0.04280569789237342
1761431198604116200,3.5691162109375,0.054546413701772684,0.0031036285711452363,-0.0028643855883274225
1761431198624060200,3.58906005859375,0.04003331970274448,0.020208150135749017,-0.025643961681239304
1761431198644004000,3.609004150390625,0.05170563731789589,0.01155633568582125,-0.0224866940935608
1761431198663947000,3.628947021484375,0.04167641073465347,0.0007945479111745954,0.004041740538319572
1761431198683891200,3.64889111328125,0.04123042053282261,-0.016047345228446648,0.03221607921370305
1761431198703834400,3.66883447265625,0.03748714235126972,-0.0033650605528848243,-0.004038452602690086
1761431198723778300,3.6887783203125,0.03628887247741222,-0.021261344416532664,0.000947007659683004
1761431198743722200,3.70872216796875,0.038082770156860346,0.007571439901273697,-0.0013672971646767108
1761431198763665200,3.7286650390625,0.06336977162659167,0.007837383661349303,-0.0009996328960638493
1761431198783609000,3.748609130859375,0.04526128348410129,-0.017768072640406897,0.008984996493626385
1761431198803553000,3.768552978515625,0.04810673604309559,0.005937851916649379,0.020480934628564863
1761431198823496200,3.78849609375,0.02820435022115707,-0.004062541297753341,0.02178039985457435
1761431198843440400,3.8084404296875,0.03044657618999481,-0.018236087444378064,0.01629632415398955
1761431198863384300,3.82838427734375,0.03358779682517052,0.010631160832033491,-0.03306171799129806
1761431198883327200,3.8483271484375,0.02849778020977974,0.016565514750499277,-0.0264379890026059
1761431198903271200,3.868271240234375,0.04779810848534107,-0.009738152948487549,-0.0014611037948168814
1761431198923215000,3.888215087890625,0.04106850796937942,-0.01444773257866036,0.018386410034727303
1761431198943158300,3.908158203125,0.052286652076244354,-0.012892351796245202,0.03708476296230219
1761431198963102200,3.928102294921875,0.03193418439924717,0.0059639910049038005,0.022516404245235024
1761431198983045000,3.948045166015625,0.04285363782048225,-0.001408400926622562,0.004907390057481825
1761431199002989300,3.9679892578125,0.04016016095280647,0.020246445452678015,-0.005533851392753422
1761431199022933200,3.987933349609375,0.042404725009202955,0.018307179919211193,-0.03014481676444411
1761431199042876200,4.007876220703125,0.04000876978337765,0.01211290555607993,-0.01020187973640859
1761431199062820000,4.027820068359375,0.04165419890284538,0.0016033526765648275,-0.0004899572077207268
1761431199082763300,4.04776318359375,0.04689326860010624,-0.01716068589836359,0.003361430123960599
1761431199102707200,4.067707275390625,0.047042906203866,-0.03035464185653254,0.038032099415548144
1761431199122650000,4.087650146484375,0.03252572055160999,0.0017753573757596313,0.027347925188066436
1761431199142594000,4.107593994140625,0.054823477077484126,0.004384475861652754,0.029070675593754276
1761431199162538000,4.1275380859375,0.04090367279648781,0.028642906035203485,-0.005686165010789409
1761431199182481200,4.147481201171875,0.0510778608083725,0.0316994623279199,-0.007512494521960616
1761431199202425000,4.167425048828125,0.02398936287462711,0.007169371039560064,-0.0209188054560218
1761431199222369300,4.187369384765625,0.051071431067585944,-0.020240865095262413,-0.0071169101999606936
1761431199242312200,4.207312255859375,0.051368952709436415,-0.02085530263260007,0.008122762774256989
1761431199262256000,4.227256103515625,0.06483692156970501,-0.036572972948686215,0.012969444753602146
1761431199282200000,4.247199951171875,0.030869770038127898,0.006716973929828964,0.01257028936818242
1761431199302143000,4.26714306640625,0.035060207465291024,0.008350434050289913,-0.01572329177269712
1761431199322087200,4.287087158203125,0.03461304821968078,0.034118643165705724,0.003497596324793994
1761431199342030000,4.307030029296875,0.04733341358304023,-0.000439651792589575,0.017950968626374377
1761431199361974000,4.32697412109375,0.04284194738268852,0.010286662809876725,0.0024874146352522075
1761431199381918200,4.346918212890625,0.027131168031692503,-0.015191449918318538,0.02217827659836039
1761431199401861000,4.366861083984375,0.054064183142781254,-0.021923447887343354,0.017435986575251444
1761431199421806000,4.38680615234375,0.039103345376253124,-0.005936637207097374,0.015005654155788943
1761431199441749000,4.4067490234375,0.04239595718085765,0.003268194315978326,0.011697963513061403
1761431199461693000,4.42669287109375,0.038057635715603826,0.028659551209327762,0.011638260081922635
1761431199481636000,4.446635986328125,0.04299567663967609,-0.0026892390839755535,0.006520122483745217
1761431199501580000,4.466580078125,0.03476619295477867,-0.0017789695383748038,-0.030345874028187243
1761431199521524200,4.486524169921875,0.05032675018012523,-0.0022127898117993024,0.0165039024900645
1761431199541467100,4.506467041015625,0.04269640143215656,-0.010477235212223603,0.004613430345896632
1761431199561411000,4.5264111328125,0.04748889640569687,-0.00261375812839251,0.018742210335610434
1761431199581355000,4.54635498046875,0.044946226185560226,0.013002013582643121,0.01370221600756049
1761431199601298200,4.566298095703125,0.039409634846448896,0.002330328943976201,0.010323469422617927
1761431199621242000,4.5862421875,0.027142273947596548,-0.0060857587876264,0.012439557394292205
1761431199641186000,4.60618603515625,0.04495090236067772,0.012502051004138775,0.002803631844418123
1761431199661129000,4.62612890625,0.047045828813314435,-0.021162468885630368,0.008196074605640024
1761431199681073200,4.6460732421875,0.02894084780216217,-0.012698290528869255,-0.017005915461760012
1761431199701016000,4.66601611328125,0.02909165444970131,-0.0108354329661699,-0.0019487411812879143
1761431199720960300,4.685960205078125,0.05453472326397896,-0.0042591461486648765,0.009941100775217636
1761431199740904200,4.705904296875,0.03313420783877372,0.00610749569539912,0.011207567913923413
1761431199760847000,4.72584716796875,0.02804009957015514,0.0163718416421907,-0.004499676906270906
1761431199780791000,4.745791015625,0.050482233002781866,0.011776184415002352,0.000267409631377086
1761431199800735000,4.76573486328125,0.02788637031316757,-0.0084662013504887,0.004958709252765402
1761431199820678000,4.785677978515625,0.048986441487073894,-0.003574383321474306,0.02308770132716745
1761431199840622000,4.8056220703125,0.046593993392586706,-0.002664954026089981,0.024099810112314296
1761431199860566000,4.82556591796875,0.04016016095280647,0.003996641021268442,-0.0010640673012472688
1761431199880509200,4.84550927734375,0.04659516243636608,0.018547929872525855,0.00006151179573498667
1761431199900453000,4.865453125,0.045099955442547794,0.02708420991769526,-0.0015962196828797459
1761431199920396000,4.88539599609375,0.042859483039379115,-0.0026086526950122786,0.02434339134353213
1761431199940340000,4.905340087890625,0.04944236856102943,-0.009667329901712946,0.016820000968221574
1761431199960284000,4.925283935546875,0.03507482051253319,-0.006086900431942194,0.015035263842763378
1761431199980227000,4.94522705078125,0.032981063103675844,-0.00006915167949628085,0.003183342743851244
1761431200000171300,4.965171142578125,0.03238075912296772,0.007790160685870796,-0.00764595730905421
1761431200020115200,4.985115234375,0.052582420152425764,0.006478676228504628,-0.0021914090970531104
1761431200040058000,5.00505810546875,0.046751229780912396,-0.003245443628053181,0.007583870124584063
1761431200060002000,5.025001953125,0.053636897641420364,-0.004115015837084502,0.031187759079271925
1761431200079946000,5.044946044921875,0.0362812736928463,-0.004424990535131655,0.012693267293879762
1761431200099889200,5.06488916015625,0.03837444657981395,-0.0100902177891694,-0.011102856297278776
1761431200119833000,5.0848330078125,0.037030046233534814,-0.0006085877518635243,0.011969199936185032
1761431200139776000,5.10477587890625,0.04182254120707512,-0.011513268295652232,0.007455686300806701
1761431200159720200,5.12472021484375,0.05124854120016098,0.007294883415638468,0.0038991811293177304
1761431200179664100,5.1446640625,0.029095161581039426,-0.0021719372116029262,0.0001015698114875704
1761431200199607000,5.16460693359375,0.037325229787826535,0.0033860257091000673,0.008484380894573405
1761431200219551000,5.184551025390625,0.04435702812075615,0.011719513191166334,0.010773797872848809
1761431200239495200,5.2044951171875,0.0468991138190031,0.013726724827731959,0.023053707726020365
1761431200259438300,5.224438232421875,0.04375730866193771,0.00022264804104343055,0.007774908317811787
1761431200279382300,5.24438232421875,0.041510991039872165,-0.01113582698511891,0.0013064338229130954
1761431200299325200,5.2643251953125,0.029237784922122954,-0.0021264997678343204,0.0249892514990177
1761431200319269000,5.28426904296875,0.032980478581786155,0.003566738871135749,0.0009669544691685586
1761431200339213000,5.304213134765625,0.04943769238591194,0.0049240489313378925,0.008137567617744207
1761431200359156200,5.32415625,0.034171149671077726,0.0022455184710444883,0.0002397727057803422
1761431200379100200,5.34410009765625,0.054223173096776,-0.004044434818904846,0.0015567735884804278
1761431200399044400,5.36404443359375,0.0304296250551939,-0.013795291985338553,0.00402754761618562
1761431200418987300,5.3839873046875,0.04778641804754734,-0.009818205047911033,-0.009524857257679105
1761431200438931200,5.40393115234375,0.04913783265650272,-0.0038347878233296793,-0.004402481875801459
1761431200458875100,5.423875244140625,0.04883914197087288,0.01680009525793139,-0.005163054452138021
1761431200478818300,5.443818359375,0.035521979758143425,0.006692163715558126,0.0118631731452886
1761431200498762200,5.46376220703125,0.04719371285140514,0.02484785656721797,0.03924304610788822
1761431200518705200,5.483705078125,0.04090717992782592,0.014983255094313062,0.015999743227055295
1761431200538649300,5.5036494140625,0.05975976443588733,-0.0007390548642724751,-0.011457971611572429
1761431200558593300,5.52359326171875,0.05227846876978874,-0.013835404800018295,-0.018425655199727043
1761431200578536200,5.5435361328125,0.05466974782049656,-0.01290140731895808,-0.008657719034329056
1761431200598480100,5.563480224609375,0.04718962119817734,-0.004238980143470689,0.023676524932635945
1761431200618424000,5.583424072265625,0.04689093051254749,-0.013574233113182708,0.024292008216166866
1761431200638367200,5.6033671875,0.04150280773341655,0.014610864418232812,0.009509413093375042
1761431200658311200,5.623311279296875,0.04674129290878772,0.018146915890160015,0.0006236391905229538
1761431200678254000,5.643254150390625,0.04674187743067741,-0.00392540241596289,0.0032493663179222494
1761431200698198300,5.6631982421875,0.048237084424495695,0.006419488820596598,0.0023821824287995693
1761431200718142200,5.68314208984375,0.044946226185560226,-0.00709663459691219,0.0017583605751860885
1761431200738085400,5.70308544921875,0.03267652719914913,0.00382807495475281,0.021473324933089316
1761431200758029300,5.723029296875,0.022951836520433425,-0.004791166099556722,0.02111333251427859
1761431200777973200,5.74297314453125,0.04988952780663967,0.01052846764253918,0.006659211294027045
1761431200797916200,5.762916259765625,0.04031330568790435,0.02266612404738553,-0.009919436932681127
1761431200817860000,5.782860107421875,0.0485462965041399,0.00603956785860937,-0.005149327320884913
1761431200837803000,5.802802978515625,0.048098552736639974,-0.009451915319054387,0.019158636516239492
1761431200857747200,5.822747314453125,0.04270809186995029,-0.002974809993128292,0.003970209672069177
1761431200877691400,5.84269140625,0.048992286705970764,0.0007508548999205231,0.018667409800039603
1761431200897634300,5.86263427734375,0.04614917223453521,0.017595081560523248,0.008064283185824752
1761431200917578200,5.882578125,0.023998715224862098,0.018654294590139762,-0.00794360681506805
1761431200937522200,5.902522216796875,0.055720718178153036,0.0011943380508339031,-0.017000134174944833
1761431200957465000,5.922465087890625,0.03671908058822155,-0.013020567586063406,-0.020030788841424507
1761431200977409000,5.942408935546875,0.04525134661197662,-0.02098048164853826,0.026849912538053466
1761431200997352200,5.962352294921875,0.04914192430973053,-0.01635508687021211,0.014126085709128528
1761431201017296400,5.98229638671875,0.05497662181258201,0.01281658771287184,0.025079587530437854
1761431201037240300,6.002240234375,0.03237959007918834,0.03250744967598002,0.014660923238191752
1761431201057183200,6.022183349609375,0.0510819524616003,0.03475678580561652,-0.00805316813676618
1761431201077127200,6.042127197265625,0.04419745364487171,0.010203952962486072,-0.026314810147508978
1761431201097071000,6.062071044921875,0.050632455128431314,-0.03254448005100712,-0.02997557941107079
1761431201117014300,6.08201416015625,0.05108136793971062,-0.04720975523733068,-0.01650118081001565
1761431201136958200,6.101958251953125,0.03267302006781101,-0.01875659505398944,-0.004044416552595794
1761431201156904700,6.12190478515625,0.04060089045763016,0.0005337963494472205,0.007846009925799443
1761431201176848600,6.1418486328125,0.05796002153754234,0.015179275423334911,0.01047286043120548
1761431201196792600,6.16179248046875,0.036110008779168125,0.01319770511810202,0.030448850345471873
1761431201216735500,6.181735595703125,0.05406476766467094,0.007563073931727558,0.030636582336761056
1761431201236679700,6.2016796875,0.05092296250760555,-0.001214782617241144,0.03004467172506265
1761431201256623600,6.22162353515625,0.04762918165922165,-0.018997450038581155,-0.004991634274832904
1761431201276566500,6.24156640625,0.03850187235176563,-0.01580111081583891,0.0026291246608830987
1761431201296510700,6.2615107421875,0.05002513688504696,0.005885377377318218,0.00488241087985225
1761431201316453600,6.28145361328125,0.046581718432903284,0.010588609465095215,0.01650683423266746
1761431201336397600,6.3013974609375,0.038649756389856335,0.014478246447932906,-0.004071048831194639
1761431201356341500,6.321341552734375,0.043590135401487345,-0.011868274012091569,-0.01873640164933167
1761431201376284700,6.34128466796875,0.03730418699979782,-0.004875880674365908,0.0019900321729015556
1761431201396228600,6.361228515625,0.048377369678020476,-0.017533980756741948,0.022517527623241766
1761431201416172500,6.381172607421875,0.033415362867712975,-0.0167075307368068,-0.007548716612812131
1761431201436115500,6.401115478515625,0.041644846552610394,-0.0033807650120928883,0.01932582804299891
1761431201456059600,6.4210595703125,0.038949616119265555,0.021205504309758542,0.026355480084614826
1761431201476002800,6.4410029296875,0.03595569500029087,0.022014299941994248,-0.002380090936413035
1761431201495946800,6.46094677734375,0.028922143101692197,0.01138771482037846,-0.005396653145458549
1761431201515890700,6.480890625,0.04238718935251236,-0.00027878040876239536,-0.0034218002753797915
1761431201535833600,6.50083349609375,0.028322423642873764,-0.01289519677388016,0.004672448790445923
1761431201555777500,6.520777587890625,0.03700082013905048,-0.008282661477127112,0.004650839746836573
1761431201575720400,6.540720458984375,0.037000235617160794,-0.004273407569457777,0.006667485932027921
1761431201595664400,6.560664306640625,0.04957213242053985,-0.005857228995067998,0.007786370426742359
1761431201615608600,6.580608642578125,0.05181669647693634,0.01807292820534203,0.024163495598826554
1761431201635551700,6.6005517578125,0.05480594142079353,0.00043322661838028577,0.01663981296257116
1761431201655495700,6.62049560546875,0.047777065697312354,0.0009962033965392038,-0.000317541516572237
1761431201675439600,6.640439697265625,0.03655307637155056,-0.020540711124939843,0.010610003879573195
1761431201695382500,6.660382568359375,0.04553191711902618,-0.000927517507923767,0.006831042463285848
1761431201715326500,6.680326416015625,0.043587212792038914,-0.003261517980019562,0.0033069325909018516
1761431201735269600,6.70026953125,0.04568155472278595,-0.001524117994471453,0.012431392354145645
1761431201755213600,6.720213623046875,0.04747779048979282,0.014761296606436372,0.01255283590988256
1761431201775157800,6.74015771484375,0.05885200194120407,0.009394527142588049,0.01025790250627324
1761431201795100700,6.7601005859375,0.03879880947172642,0.0027235340792220084,0.022971600666828452
1761431201815044600,6.780044677734375,0.03685644323229789,-0.003377737371367402,0.0035703875663690267
1761431201834987500,6.799987548828125,0.029075287836790083,-0.006203307052957825,-0.013542979458393528
1761431201854931700,6.819931640625,0.04898001174628734,-0.009075117895915173,-0.015097049633134156
1761431201874875600,6.839875732421875,0.03790273741483688,0.020778364938870073,-0.0014568477448076008
1761431201894818600,6.859818603515625,0.04748129762113094,0.015080230929073877,-0.02565274777589366
1761431201914762500,6.879762451171875,0.05346621724963188,-0.008767887710803187,-0.009268480476969853
1761431201934706700,6.899706787109375,0.043587212792038914,-0.03273701608157716,0.014274563402263447
1761431201954649600,6.919649658203125,0.03176233496367931,-0.009248488001711666,0.045242067326977844
1761431201974593500,6.939593505859375,0.03505260868072509,-0.009760159284318797,0.005313331376714632
1761431201994536700,6.95953662109375,0.03849602713286877,0.007619219999178312,-0.002224370651738718
1761431202014480600,6.979480712890625,0.03505553129017353,0.032124966864148154,-0.020404654521960764
1761431202034424600,6.999424560546875,0.037601124119758605,0.01820609873149078,-0.015727292094379664
1761431202054367500,7.019367431640625,0.031165538114309308,0.00909674977241084,0.02787512739994563
1761431202074311400,7.0393115234375,0.02517418874502182,-0.015680881969654,0.013702298205951228
1761431202094255600,7.059255615234375,0.040436639806628226,-0.018691580693493595,0.019262325219577176
1761431202114198800,7.07919873046875,0.057791679233312604,0.01209772168667987,-0.01557939892313443
1761431202134142700,7.099142822265625,0.029508418557047843,0.013325162856094539,-0.004205077873868868
1761431202154082300,7.119082275390625,0.036543724021315574,0.0068795258140889924,-0.0038285453122109173
1761431202174026200,7.139026123046875,0.036842414706945416,0.019375005513546057,0.00860647290428169
1761431202193970400,7.158970458984375,0.04731061722934246,-0.010660907516325823,0.005475645798956975
1761431202213913300,7.178913330078125,0.04341653240025043,-0.01838721375232562,0.0033062841369304805
1761431202233857300,7.198857177734375,0.03698386900424957,-0.021920575510244816,0.0028194048022851348
1761431202253800400,7.218800537109375,0.04282441172599792,-0.0021230109028052536,0.006957655384484678
1761431202273744400,7.238744384765625,0.043726913523674006,-0.010464142835210077,0.004585756887681782
1761431202293688300,7.258688232421875,0.03564648292064666,-0.0020725867566652595,0.02576605369094759
1761431202313631200,7.27863134765625,0.0425292281717062,0.007129294757498428,0.003166848266776651
1761431202333575200,7.2985751953125,0.04417231920361519,-0.00018096889036241917,-0.0010514087490737438
1761431202353518300,7.318518310546875,0.03998071273267269,0.014291048746183513,-0.01383071035859175
1761431202373462500,7.338462646484375,0.041330373775959016,0.0065739715628325935,0.006197082808148116
1761431202393406500,7.358406494140625,0.04058335480093956,0.006612559140706435,-0.002660761908162385
1761431202413349400,7.378349365234375,0.03399871571362018,-0.01299223654072266,0.009357346070511266
1761431202433293300,7.398293212890625,0.038189737662672994,0.011344830093299969,0.004735056564724073
1761431202453237200,7.4182373046875,0.045672202372550964,0.011329682756518014,0.006184186793956905
1761431202473180400,7.438180419921875,0.040137364599108695,0.000605267850193195,0.013368563606403767
1761431202493124400,7.458124267578125,0.05644727888703346,0.003097792485402897,-0.011253078422928229
1761431202513067300,7.4780673828125,0.04298515524566173,-0.0012189656020142137,0.006750168379954994
1761431202533011500,7.498011474609375,0.053614101287722586,-0.00015046872082166373,0.0022960750479251147
1761431202552955400,7.517955322265625,0.05526128397285938,0.008064785509323701,0.01962818112359382
1761431202572898300,7.537898193359375,0.04897416652739048,0.0052170816277386615,-0.00880005011446774
1761431202592842200,7.55784228515625,0.04268763360381126,-0.005959876518789678,-0.0015635595222935079
1761431202612785400,7.577785400390625,0.05256313093006611,0.00009651917703449725,-0.009200630271993577
1761431202632729300,7.597729248046875,0.04193827654123306,-0.004113696096255444,-0.0038433318893890825
1761431202652673300,7.61767333984375,0.03550385957956314,0.007646217603958211,0.011220555259659886
1761431202672616200,7.6376162109375,0.05435469052195549,0.01044744286215864,0.018354781920602543
1761431202692560400,7.657560302734375,0.0631774639248848,0.007880030926410108,0.00697846071049571
1761431202712503600,7.677503662109375,0.027113047853112218,0.013447588225943035,-0.007053370843920857
1761431202732447500,7.697447509765625,0.03684007661938667,0.0004958526589674875,0.015764601030619815
1761431202752391400,7.717391357421875,0.042376667958497996,0.0009517295005731284,0.014035640079854056
1761431202772334300,7.737334228515625,0.041328620210289956,-0.00016393099059350787,-0.0052159080173820255
1761431202792278300,7.7572783203125,0.03998071273267269,0.0031136248087743294,0.01963524105204269
1761431202812221200,7.77722119140625,0.01843289779126644,0.009881580007169394,-0.010608853102102874
1761431202832165000,7.7971650390625,0.042373745349049564,-0.0023700901322066784,0.014974720161408186
1761431202852109300,7.817109375,0.05210018959343433,0.015630814016540533,0.02782787245842628
1761431202872052500,7.837052490234375,0.0253144739985466,-0.00532045980382245,-0.0042650279001798476
1761431202891996400,7.856996337890625,0.044615386795997615,-0.0018556195377372204,0.0327170327394735
1761431202911940400,7.8769404296875,0.04102233074009418,-0.002373939756839536,-0.0038472865452989936
1761431202931883300,7.89688330078125,0.04805763620436191,-0.00590792256926652,0.009324640244152397
1761431202951827200,7.9168271484375,0.04102233074009418,0.0011635045211529358,0.007694198631262406
1761431202971770400,7.936770263671875,0.036537878802418704,0.003091143548907712,0.010496067776856943
1761431202991714300,7.95671435546875,0.030250761356949804,-0.012936679561738855,0.011833134200051425
1761431203011658500,7.976658447265625,0.044912908437848086,0.002677681076922454,0.027834019071422515
1761431203031601400,7.996601318359375,0.05403729513585567,-0.0046462868693051855,-0.00492490744786337
1761431203051544300,8.01654443359375,0.04894961660802364,-0.01489317022464238,0.007069481728505343
1761431203071488300,8.03648828125,0.04117255286574364,-0.007702404770604334,0.017442224519792944
1761431203091432400,8.056432373046874,0.03204524355828762,0.011647484567994252,0.00025480587813071906
1761431203111375400,8.076375244140625,0.04730827914178371,0.016556623624567873,0.0023069161023478954
1761431203131319300,8.0963193359375,0.03847907599806785,0.011043025001976639,-0.0009821794377639888
1761431203151262200,8.11626220703125,0.03922901758253574,-0.002779214355791919,-0.017662370076496153
1761431203171205600,8.13620556640625,0.028010873475670814,-0.015245901785604655,0.007692216736730187
1761431203191149800,8.15614990234375,0.03309972104728222,-0.01680468466808088,0.008987243249639868
1761431203211092700,8.1760927734375,0.04447159441113472,-0.017004481556499376,0.020879121899604797
1761431203231037000,8.196036865234374,0.04597030853629112,0.00048217119348701085,-0.0035505046889651565
1761431203250979800,8.215979736328125,0.02860883936882019,0.007616776880342513,0.009913363384921103
1761431203270923800,8.235923828125,0.0470125110656023,0.009198831040551886,-0.0013011913922149688
1761431203290867700,8.25586767578125,0.05075345115959644,0.01104792950595729,0.00046800110423937436
1761431203310811000,8.275810791015624,0.04626841470003128,0.0042748232084093615,0.0018367321741767227
1761431203330754800,8.2957548828125,0.034297990921139714,0.0009057760335737839,-0.001254794967221096
1761431203350697700,8.31569775390625,0.03863981951773166,-0.0020718652374576776,0.021633767058653757
1761431203370641700,8.3356416015625,0.04462649271190166,-0.005264432467380538,-0.006076671298872679
1761431203390585900,8.3555859375,0.02412672551870346,-0.0060051860983949155,-0.01314452732587233
1761431203410530800,8.37553076171875,0.04327975427806377,0.011433713953150435,-0.017033451922656966
1761431203430473700,8.3954736328125,0.04133212734162807,0.012389758869237266,0.0077359188811387865
1761431203450417700,8.415417724609375,0.041480595901608464,0.004955503515526652,0.000006785933813080191
1761431203470360800,8.43536083984375,0.03728957395255565,0.007958096564724109,0.0019633359622210265
1761431203490304800,8.4553046875,0.06063537822663784,-0.013309426430845633,0.018774112444370984
1761431203510249000,8.4752490234375,0.03894084829092025,0.008575890536350198,0.012085784653713925
1761431203530192000,8.49519189453125,0.04462999984323978,0.0010086792856222018,0.005434236076334491
1761431203550135800,8.5151357421875,0.032657237976789474,0.00008592928436119108,0.005040396186849102
1761431203570079000,8.535078857421874,0.06692600280344486,-0.0025020231159171087,-0.0020880583204329014
1761431203590023000,8.55502294921875,0.040732992404699325,-0.0015996765818679704,0.002034428437054157
1761431203609966800,8.574966796875,0.046267830178141595,-0.0038897876798873765,0.0014592406312935054
1761431203629909800,8.59490966796875,0.03848492121696472,-0.007272173826908692,0.0003301087372004986
1761431203649853700,8.614853759765625,0.05359715015292167,0.00022988149942830205,-0.0002052950474433601
1761431203669796600,8.634796630859375,0.034142508098483085,-0.013515657626627944,-0.0047114199608098714
1761431203689740800,8.65474072265625,0.04177402589023113,-0.012174905975582077,0.009884192089363931
1761431203709684700,8.674684814453125,0.03683247783482074,-0.003670345376082696,0.01637661371543072
1761431203729628000,8.6946279296875,0.037135260173678394,-0.015872312888526356,0.021184370190184564
1761431203749571800,8.71457177734375,0.041627895417809486,0.003431901544285938,-0.004812587913498282
1761431203769514800,8.7345146484375,0.0369914677888155,-0.022287143800314515,0.004760410201689228
1761431203789458700,8.754458740234375,0.04716624032258987,0.007318821413652039,0.01788888144190423
1761431203809402600,8.774402587890625,0.03669219258129597,0.008413608080148696,-0.0003392510248813778
1761431203829345800,8.794345703125,0.05494856476187706,0.00391336948487442,0.003403981490898877
1761431203849290000,8.8142900390625,0.054794250982999795,0.006912382337497547,0.004422921875631436
1761431203869233000,8.83423291015625,0.022025953847169873,0.000049711760086938734,-0.0006222418178804219
1761431203889176800,8.8541767578125,0.04058335480093956,-0.007534048766642808,-0.0034556477460544553
1761431203909120800,8.874120849609374,0.04941489603221416,-0.01249422389070969,0.011835791948018594
1761431203929063700,8.894063720703125,0.04881693013906479,-0.014246949309553019,0.016707864096947012
1761431203949008000,8.9140078125,0.042833764076232905,-0.004299414226971566,0.0331799101440236
1761431203968950800,8.93395068359375,0.035649990051984784,0.01821387561256997,-0.009751816147658974
1761431203988894700,8.953894775390625,0.05255728571116924,0.00631474523791112,0.010740005201101303
1761431204008839000,8.9738388671875,0.054801849767565726,-0.0032807935026474295,-0.0030486378477420657
1761431204028781800,8.99378173828125,0.03190846543610096,-0.013661290342127904,0.010142121506342664
1761431204048725800,9.013725830078124,0.05719838951528072,-0.009497672423231416,0.02006977827809751
1761431204068669000,9.0336689453125,0.044181087031960484,-0.020339918722677975,0.0056191550560295575
1761431204088612900,9.05361279296875,0.06258417420685292,0.009710086764628067,-0.002072002234775573
1761431204108556800,9.073556884765624,0.03116203098297119,0.010974165583425202,0.0055623011691030115
1761431204128499700,9.093499755859375,0.050315059742331504,-0.005850762721663341,-0.010543642378784716
1761431204148443600,9.113443603515625,0.03894084829092025,0.005191289599356241,0.010130732462648302
1761431204168387000,9.133386962890626,0.040732992404699325,0.0021260111440671607,0.008406146292900665
1761431204188331000,9.1533310546875,0.030705519387125967,0.001640405884478241,0.028701933612907304
1761431204208274200,9.173274169921875,0.03788520175814628,-0.001294314126856625,0.0121996933569666
1761431204228218000,9.193218017578126,0.04835924949944019,-0.010265199896739794,0.026619702245062216
1761431204248162300,9.213162353515624,0.045213352689146995,0.0017871345785213633,-0.012770341984927654
1761431204268105200,9.233105224609375,0.04431669611036777,0.019688345779036172,0.0001435731891542673
1761431204288049200,9.253049072265625,0.04611351639926433,0.0011593124032253399,-0.007451539848651737
1761431204307992300,9.272992431640626,0.0510515573233366,-0.009232098555914127,0.002405590703850612
1761431204327936300,9.292936279296875,0.05045242238640785,0.006493312108633108,0.008941878871107473
1761431204347880200,9.312880126953125,0.03937807066440582,-0.0093984269995708,-0.0054606582923792295
1761431204367823000,9.332822998046876,0.04341594787836075,0.012270466171391308,0.01648770027393475
1761431204387767000,9.35276708984375,0.03458791377842426,-0.004542826494830661,0.014480488637369126
1761431204407710000,9.3727099609375,0.04925298346877098,0.005185083620855584,0.030545232525188475
1761431204427654100,9.392654052734375,0.02471007836461067,-0.002911471566488035,0.020743394090188667
1761431204447598300,9.412598388671874,0.03982581443190574,-0.005312833619792946,-0.00011658471752889454
1761431204467541200,9.432541259765625,0.04535948316156864,-0.002823989645857364,-0.01008440910289064
1761431204487485200,9.452485107421875,0.028750293666124343,-0.0071666995918611065,0.0033575028675142675
1761431204507428000,9.472427978515626,0.0357797539114952,-0.004049713782221079,-0.003347319400217384
1761431204527372000,9.4923720703125,0.04984510414302349,0.005972169744782149,0.026955363940214735
1761431204547316000,9.51231591796875,0.04729951131343841,-0.00259532742255833,0.012641272245161235
1761431204567259100,9.532259033203125,0.048050621941685676,0.008212970941513777,0.013646357634477316
1761431204587203300,9.552203369140624,0.047451487004756925,0.008599138981197029,0.011010949363280087
1761431204607146200,9.572146240234375,0.047750177690386766,0.001092101519065909,0.0026617300225421784
1761431204627090200,9.592090087890625,0.05014262578487396,-0.0009152060156222432,-0.007334854666423052
1761431204647034000,9.6120341796875,0.03727320733964443,-0.004260762717016041,0.006234446543315425
1761431204666977300,9.631977294921874,0.03772504276037216,-0.01583807269220706,0.005208811556315049
1761431204686921200,9.651921142578125,0.03772796536982059,-0.0020935793123440815,0.0050644985816441475
1761431204706864000,9.671864013671875,0.030995442244410514,0.0015749120333697646,0.0048071445534005755
1761431204726808000,9.69180810546875,0.04671031324863434,0.01840143864050042,0.0052829453716054554
1761431204746751000,9.7117509765625,0.057931379964947696,-0.021567291393433698,0.007481752323824912
1761431204766695200,9.731695068359375,0.06002630641758441,0.0017059728008229284,0.03486084896828979
1761431204786639000,9.75163916015625,0.05449146864414215,0.000990518007846549,0.024264645285205916
1761431204806582300,9.771582275390625,0.04446574919223785,0.002892278242250904,-0.013801274201553314
1761431204826526200,9.791526123046875,0.042218262526392936,0.009308780521317384,0.005134367213770747
1761431204846469000,9.81146923828125,0.033087446087598796,0.02058175095480401,0.0013479166107717901
1761431204866413000,9.8314130859375,0.042964112457633014,0.008840783983655273,0.006779412740748375
1761431204886357000,9.85135693359375,0.04311258101761341,-0.015338827066333032,0.004229426863836125
1761431204906300200,9.871300048828125,0.035033903980255125,-0.01161039026088547,0.01357029672358185
1761431204926244400,9.891244384765624,0.047449148917198175,0.004315200884570367,0.008027704901946708
1761431204946187300,9.911187255859375,0.05598141494095325,-0.0008809292866848408,0.009027164268074556
1761431204966131200,9.931131103515625,0.040269466546177864,0.009513386015594006,0.004269046488171443
1761431204986074000,9.95107421875,-0.0615647680312395,0.006713804725208319,-0.04757253783484921
1761431205006018000,9.97101806640625,0.07221826399266719,-0.0019932059440994636,0.00616045885849744
1761431205025962200,9.990962158203125,0.043455695366859434,-0.00414086266439408,-0.009672933092014864
1761431205045905200,10.0109052734375,0.05584229873120784,-0.0066308756821090355,-0.0013040592027362436
1761431205065849000,10.03084912109375,0.04416705850660801,0.0023308541003614664,0.009013117476413026
