time,seconds_elapsed,z,y,x
1761431195153863000,0.11886279296875,0.0002170509978896007,-0.00019666645675897598,0.0002396331401541829
1761431195173806800,0.138806884765625,-0.0019898689351975918,0.00010562222450971603,-0.0014841407537460327
1761431195193750000,0.15875,-0.0010014692088589072,0.0014319759793579578,-0.0011022113030776381
1761431195213694000,0.17869384765625,-0.00031577650224789977,-0.0018967688083648682,-0.00326941953971982
1761431195233638000,0.198637939453125,0.00005194764526095241,-0.0014470401220023632,0.001752026961185038
1761431195253580800,0.218580810546875,-0.00029846595134586096,-0.0032848084811121225,0.0005146662006154656
1761431195273525000,0.23852490234375,-0.0004528938443399966,-0.0009731552563607693,0.0025685932487249374
1761431195293469000,0.258468994140625,0.00009535042045172304,-0.001310143619775772,-0.0006996705196797848
1761431195313411800,0.278411865234375,-0.002198689617216587,0.0009567290544509888,-0.0011361711658537388
1761431195333355800,0.298355712890625,0.000859411375131458,-0.0007721846923232079,-0.00019686570158228278
1761431195353300000,0.318300048828125,-0.0005972371436655521,-0.0005134935490787029,0.0011643081670626998
1761431195373243000,0.338242919921875,-0.002276425017043948,-0.0007545785047113895,-0.00016587611753493547
1761431195393186800,0.358186767578125,-0.0002883036504499614,-0.0010056551545858383,-0.0005790056893602014
1761431195413131000,0.378131103515625,0.0009053542162291706,0.0007608593441545963,0.00017184496391564608
1761431195433074000,0.398073974609375,-0.0013841004110872746,0.0003958083689212799,-0.0013970878208056092
1761431195453017900,0.418017822265625,-0.00035129720345139503,-0.000982604455202818,0.000982817611657083
1761431195472961800,0.4379619140625,-0.0006882456946186721,0.0005765976384282112,0.0008875328348949552
1761431195492905000,0.457905029296875,-0.0011362313525751233,0.0004444848746061325,0.0027748262509703636
1761431195512849000,0.477848876953125,0.00020636871340684593,-0.0011541121639311314,-0.00014343333896249533
1761431195532792800,0.497792724609375,0.0012665437534451485,-0.0006175246089696884,-0.00034940027398988605
1761431195552735700,0.51773583984375,0.0005889940657652915,-0.0010553691536188126,-0.0011918483069166541
1761431195572680000,0.537679931640625,0.0005938882823102176,0.0002145254984498024,-0.00040485180215910077
1761431195592623900,0.557623779296875,0.0003997855237685144,0.00022919289767742157,0.0029625394381582737
1761431195612567000,0.577567138671875,-0.000548803131096065,-0.0015654717572033405,0.0019485120428726077
1761431195632511000,0.597510986328125,-0.0034466243814677,0.001620172057300806,0.0018568022642284632
1761431195652455000,0.617454833984375,0.00045796652557328343,0.0009984606876969337,0.0014566652243956923
1761431195672397800,0.637397705078125,-0.0029889626894146204,0.0010804864577949047,0.000019357306882739067
1761431195692341800,0.657341796875,-0.0003615533350966871,0.002599485218524933,-0.00013663875870406628
1761431195712286000,0.677285888671875,-0.0008896226063370705,-0.001534776296466589,0.00018330418970435858
1761431195732229000,0.69722900390625,0.00003835877578239888,0.0009964201599359512,-0.001530310488305986
1761431195752173000,0.717173095703125,-0.001140823820605874,0.0008468194864690304,-0.0000949313398450613
1761431195772117000,0.737116943359375,0.0007774217519909143,0.00029124459251761436,-0.001285735284909606
1761431195792060000,0.757059814453125,-0.0012150609400123358,0.0006572715938091278,-0.00041670596692711115
1761431195812003800,0.77700390625,-0.0023711267858743668,0.0031160665675997734,-0.001090589794330299
1761431195831947800,0.79694775390625,-0.002237024251371622,-0.0009172759018838406,0.0034218912478536367
1761431195851890700,0.816890625,-0.00012469961075112224,0.0006136666052043438,0.002152322791516781
1761431195871835000,0.8368349609375,-0.00025037117302417755,-0.001968228258192539,0.001269589294679463
1761431195891779000,0.856779052734375,0.0006279689259827137,-0.000610776711255312,0.002092343755066395
1761431195911722000,0.876721923828125,-0.0020086965523660183,-0.0009781541302800179,0.0000029633520171046257
1761431195931666000,0.896666015625,-0.0011811460135504603,-0.0022369413636624813,-0.0016564256511628628
1761431195951609900,0.91660986328125,-0.0017775222659111023,0.0007464895024895668,0.000623466563411057
1761431195971552800,0.936552734375,-0.0034914608113467693,0.0005454807542264462,0.0010505642276257277
1761431195991496700,0.95649658203125,0.0009202893124893308,-0.003301475662738085,0.0021322518587112427
1761431196011441000,0.97644091796875,-0.0009042360470630229,-0.0008135605603456497,-0.0020917959045618773
1761431196031384000,0.996384033203125,-0.0006925861816853285,0.0002939892001450062,0.0012103304034098983
1761431196051328000,1.016327880859375,0.0001409418327966705,0.0005416432395577431,-0.0005285383085720241
1761431196071272000,1.03627197265625,0.0022071527782827616,-0.00007127877324819565,0.0008641642052680254
1761431196091214800,1.05621484375,-0.001359512796625495,-0.0010363194160163403,0.0011704547796398401
1761431196111158800,1.07615869140625,0.0002093258808599785,0.0024550454691052437,0.0012755452189594507
1761431196131102700,1.096102783203125,-0.0019314236706122756,-0.0009624212980270386,0.00267234118655324
1761431196151047400,1.11604736328125,0.0015697109047323465,0.0009032413363456726,0.0010157088981941342
1761431196170990600,1.135990478515625,-0.0006214146269485354,-0.00007612118497490883,0.0004965383559465408
1761431196190934800,1.155934814453125,-0.0010000806069001555,0.0018946477212011814,0.00022153090685606003
1761431196210878700,1.175878662109375,-0.0031627037096768618,-0.0036565738264471292,-0.0011107117170467973
1761431196230821600,1.195821533203125,0.0016939258202910423,-0.00018523354083299637,-0.002467620884999633
1761431196250765600,1.215765625,-0.0012198424665257335,-0.002505424665287137,-0.0029696340207010508
1761431196270709500,1.23570947265625,0.0010438598692417145,-0.001177502330392599,-0.000448898586910218
1761431196290652400,1.25565234375,0.0017206910997629166,-0.00010284921154379845,0.0006826499011367559
1761431196310596400,1.275596435546875,0.0014324721414595842,-0.0008073244243860245,0.0006520882016047835
1761431196330540500,1.29554052734375,0.0006951503455638885,-0.0016874098218977451,0.00019697670359164476
1761431196350483700,1.315483642578125,-0.000979724689386785,0.000014103017747402191,-0.0004248542827554047
1761431196370427600,1.335427734375,-0.00027075549587607384,0.00045816414058208466,-0.00009812845382839441
1761431196390371600,1.35537158203125,-0.00007588978041894734,0.00014755316078662872,0.0005825873231515288
1761431196410314500,1.375314453125,0.0017661959864199162,0.00032271770760416985,0.0013496925821527839
1761431196430258400,1.395258544921875,-0.002038162900134921,0.00022786622866988182,-0.0006786190788261592
1761431196450202400,1.415202392578125,-0.0002709835534915328,0.00013958895578980446,-0.0020395289175212383
1761431196470145500,1.4351455078125,-0.0007891235873103142,0.0018597189337015152,0.0015174619620665908
1761431196490089700,1.45508984375,-0.0013465122319757938,0.00015558116137981415,-0.0002423975383862853
1761431196510033700,1.47503369140625,0.0018481449224054813,-0.002060992643237114,0.000006091664545238018
1761431196529976600,1.4949765625,-0.002271223347634077,-0.002012870740145445,0.0000633288873359561
1761431196549920500,1.51492041015625,-0.0011147812474519014,-0.00001478707417845726,0.0012322216061875224
1761431196569863700,1.53486376953125,0.0011214418336749077,0.00222172774374485,0.0009398524416610599
1761431196589807600,1.5548076171875,-0.0017306647496297956,0.00006839260458946228,-0.002669269684702158
1761431196609751600,1.57475146484375,-0.0013947589322924614,-0.0006140582263469696,-0.00026504998095333576
1761431196629694500,1.594694580078125,-0.00036866465234197676,0.0031404965557157993,0.00196067220531404
1761431196649638700,1.614638671875,0.000983560224995017,-0.0014862832613289356,0.0023818369954824448
1761431196669582600,1.63458251953125,-0.0006588040851056576,0.0005582566373050213,-0.0009611286222934723
1761431196689525500,1.654525390625,-0.0009939993033185601,-0.0004623299464583397,0.0007039332995191216
1761431196709469400,1.674469482421875,-0.0021890124771744013,0.00012375740334391594,0.0004160612588748336
1761431196729413600,1.69441357421875,0.0006623573135584593,-0.000690192449837923,-0.0003929375670850277
1761431196749356500,1.7143564453125,0.0012356431689113379,-0.001057981513440609,-0.0010602687252685428
1761431196769300500,1.734300537109375,0.0001506137487012893,0.0002779555507004261,0.0023419675417244434
1761431196789244700,1.75424462890625,0.0011134766973555088,0.00018075527623295784,0.0018838519463315606
1761431196809187600,1.7741875,-0.001945077907294035,-0.0014043324626982212,0.0005179140716791153
1761431196829131500,1.794131591796875,0.0013447965029627085,-0.0014056055806577206,-0.0002859007799997926
1761431196849075500,1.814075439453125,-0.002309297677129507,0.0008658440783619881,0.0023299611639231443
1761431196869018600,1.8340185546875,-0.0007320728618651628,0.000981790479272604,0.0032844706438481808
1761431196888962600,1.853962646484375,-0.0010136705823242664,0.0015570437535643578,0.0021761818788945675
1761431196908906500,1.873906494140625,-0.0022919736802577972,0.0005698981694877148,-0.001059469417668879
1761431196928849700,1.893849609375,-0.00032219840795733035,0.0011940943077206612,-0.0001459158957004547
1761431196948793600,1.913793701171875,0.0020693927071988583,0.0006461180746555328,0.00020262296311557293
1761431196968737500,1.933737548828125,0.0010658636456355453,-0.00044597918167710304,0.0015387185849249363
1761431196988680700,1.9536806640625,-0.0006693080649711192,-0.0013747555203735828,-0.0002445243299007416
1761431197008624600,1.973624755859375,0.0014688363298773766,0.0013280929997563362,-0.00045152532402426004
1761431197028568600,1.993568603515625,0.00007838357123546302,0.0001342128962278366,0.0027956843841820955
1761431197048511500,2.013511474609375,-0.0002827146090567112,-0.001921817660331726,0.0007495644968003035
1761431197068455700,2.03345556640625,0.00008540948329027742,0.00016838079318404198,0.0010880902409553528
1761431197088399600,2.053399658203125,-0.001326788100413978,-0.0014467546716332436,-0.0033274481538683176
1761431197108342500,2.073342529296875,0.00002320637577213347,0.00009740376845002174,0.0013921926729381084
1761431197128286700,2.09328662109375,-0.0007758614956401289,-0.0012535694986581802,0.0017532218480482697
1761431197148230100,2.113230224609375,-0.0011459944071248174,-0.0020211446098983288,-0.0023918738588690758
1761431197168173000,2.133173095703125,-0.0006232393207028508,0.0005505066365003586,0.0004437458701431751
1761431197188117000,2.153116943359375,-0.00036567190545611084,0.0017405515536665916,0.003844681428745389
1761431197208061000,2.17306103515625,-0.002974046627059579,0.0007775877602398396,-0.0019804532639682293
1761431197228004000,2.193004150390625,-0.000349268811987713,-0.0011527305468916893,-0.0013043885119259357
1761431197247948000,2.212947998046875,0.0003990947734564543,-0.0002860347740352154,-0.0006090027745813131
1761431197267892200,2.232892333984375,-0.0023577813990414143,-0.000402781181037426,-0.0007756966515444219
1761431197287835100,2.252835205078125,-0.0010248819598928094,-0.00004763389006257057,0.000681786797940731
1761431197307779000,2.272779052734375,-0.0011613632086664438,0.002299363724887371,-0.0025200541131198406
1761431197327723000,2.292722900390625,-0.000011144002201035619,-0.00013316748663783073,0.00203368510119617
1761431197347666000,2.312666015625,0.000912303919903934,-0.00019348319619894028,-0.0009377326350659132
1761431197367609900,2.33260986328125,-0.0004090202855877578,-0.001404826994985342,0.000457360059954226
1761431197387554000,2.352553955078125,-0.000011913769412785769,-0.0018149144016206264,-0.00033615680877119303
1761431197407497000,2.3724970703125,-0.00029173330403864384,-0.00253231986425817,-0.0014174830866977572
1761431197427441200,2.392441162109375,-0.0022057329770177603,0.0005658823065459728,-0.0023355833254754543
1761431197447385000,2.412385009765625,0.001995883882045746,-0.0012256866320967674,0.0009838062105700374
1761431197467328000,2.432327880859375,-0.0021316639613360167,0.0014395220205187798,-0.000028323382139205933
1761431197487272000,2.45227197265625,0.0001769289083313197,-0.0003643878735601902,0.0006133067654445767
1761431197507215000,2.472215087890625,0.001597394235432148,0.0009639281779527664,-0.0009363222634419799
1761431197527159000,2.492158935546875,0.000588848371990025,0.00025686807930469513,0.0002884742571040988
1761431197547103000,2.51210302734375,0.0004722445155493915,0.001407107338309288,0.0011402405798435211
1761431197567046000,2.5320458984375,-0.0006327001028694212,-0.0009273681789636612,0.003091768827289343
1761431197586990000,2.551989990234375,0.00013627635780721903,0.0005392399616539478,-0.0018056351691484451
1761431197606934000,2.57193408203125,-0.002090246882289648,-0.001109168864786625,0.0013328383211046457
1761431197626877200,2.591877197265625,-0.00046815333189442754,-0.0024166572839021683,0.00023037614300847054
1761431197646821000,2.611821044921875,0.0010418470483273268,-0.0003440692089498043,0.0009919573785737157
1761431197666765000,2.63176513671875,0.00137058284599334,-0.0011382079683244228,-0.0009047708008438349
1761431197686708000,2.6517080078125,0.001214215299114585,-0.0028871744871139526,-0.004624188877642155
1761431197706652000,2.67165185546875,-0.0007628453895449638,0.0007897242903709412,-0.0010097409831359982
1761431197726596000,2.69159619140625,-0.0017727511003613472,0.0013869032263755798,-0.0045079998672008514
1761431197746539000,2.7115390625,0.0028453003615140915,0.0014681462198495865,-0.0002860171371139586
1761431197766483000,2.73148291015625,0.0022525640670210123,-0.00012234365567564964,-0.0014401585794985294
1761431197786427100,2.75142724609375,0.0019136862829327583,0.00020705722272396088,-0.0022669986356049776
1761431197806370000,2.7713701171875,0.0005286645609885454,0.004412698093801737,-0.0020109203178435564
1761431197826314000,2.79131396484375,0.001523154554888606,0.00035916175693273544,0.0005127753829583526
1761431197846258000,2.8112578125,-0.0023169303312897682,0.002269601449370384,0.00011549890041351318
1761431197866200800,2.831200927734375,0.00038195843808352947,-0.00019532814621925354,0.0006481428863480687
1761431197886145000,2.85114501953125,-0.0022636381909251213,-0.0009457687847316265,-0.0010295892134308815
1761431197906089000,2.8710888671875,0.003178126411512494,0.0001468420960009098,-0.00026188691845163703
1761431197926032100,2.8910322265625,0.0018001117277890444,0.0003844788298010826,-0.00005089410115033388
1761431197945976000,2.91097607421875,-0.00014687376096844673,0.0011766222305595875,0.0007428450044244528
1761431197965920000,2.930919921875,0.0019334969110786915,-0.0019352366216480732,0.0014535365626215935
1761431197985863000,2.95086279296875,0.0009734392515383661,-0.0020144046284258366,0.0006538674933835864
1761431198005806800,2.970806884765625,-0.0008524107979610562,-0.00007383758202195168,-0.0026598970871418715
1761431198025750000,2.99075,-0.0019065780797973275,0.0017823688685894012,0.0009304545819759369
1761431198045694200,3.010694091796875,0.002683673519641161,0.00028830254450440407,-0.0012638629414141178
1761431198065638100,3.03063818359375,0.0028588357381522655,0.000880037434399128,-0.00019294070079922676
1761431198085581000,3.0505810546875,0.0005537999095395207,-0.0014905333518981934,0.0003145819064229727
1761431198105525000,3.07052490234375,0.0008703828789293766,-0.0012807431630790234,0.0026595969684422016
1761431198125469000,3.090468994140625,-0.0023529373575001955,0.001681651920080185,-0.001303393393754959
1761431198145412000,3.110412109375,0.0019238151144236326,0.00015339814126491547,0.0021736607886850834
1761431198165356000,3.13035595703125,-0.002648214576765895,-0.00132699403911829,0.00048470543697476387
1761431198185300200,3.15030029296875,0.0005060441326349974,0.0017578396946191788,0.0011441142996773124
1761431198205243100,3.1702431640625,0.0007662454154342413,0.0009780721738934517,0.0025300136767327785
1761431198225187300,3.190187255859375,-0.002203754847869277,0.0004197191447019577,-0.0008907190058380365
1761431198245131300,3.21013134765625,0.0021730451844632626,0.0003325333818793297,0.0031902194023132324
1761431198265074200,3.23007421875,0.0008110238704830408,0.00018688989803195,0.0015173990977928042
1761431198285018000,3.25001806640625,-0.0014714731369167566,-0.00014763372018933296,-0.002628208603709936
1761431198304962000,3.269962158203125,0.0016720136627554893,0.001283993013203144,0.0015926153864711523
1761431198324905200,3.2899052734375,0.0030637255404144526,0.0016205394640564919,-0.0006169521366246045
1761431198344849200,3.30984912109375,-0.0008994159870781004,0.0016134874895215034,-0.0031140679493546486
1761431198364792000,3.3297919921875,0.0014846085105091333,-0.00029263459146022797,0.0001897226320579648
1761431198384736300,3.349736328125,0.001482989639043808,0.0014948304742574692,0.0015371632762253284
1761431198404680200,3.36968017578125,0.0005562667502090335,0.0013332553207874298,-0.0015415025409311056
1761431198424623400,3.389623291015625,-0.0009945048950612545,-0.00012836651876568794,0.00002674537245184183
1761431198444567300,3.4095673828125,-0.0007735490798950195,0.0025396994315087795,-0.0005217972211539745
1761431198464511200,3.42951123046875,-0.0008079349063336849,0.0006302306428551674,-0.0010615470819175243
1761431198484454100,3.4494541015625,0.0008394597680307925,-0.0021069832146167755,-0.0009264599066227674
1761431198504398000,3.469398193359375,-0.002650895155966282,0.0014745215885341167,-0.0016610997263342142
1761431198524342300,3.48934228515625,-0.0004236738313920796,0.00028733396902680397,-0.0008079680847004056
1761431198544285200,3.50928515625,0.0010102447122335434,-0.0008462402038276196,-0.0016485982341691852
1761431198564229400,3.5292294921875,-0.0016628382727503777,0.002566863317042589,-0.001215417985804379
1761431198584173300,3.54917333984375,-0.00007791246753185987,-0.0006811432540416718,0.0012621813220903277
1761431198604116200,3.5691162109375,-0.0011482812697067857,0.0023958543315529823,0.0019390744855627418
1761431198624060200,3.58906005859375,0.0009099745657294989,-0.000305709894746542,-0.0007962957606650889
1761431198644004000,3.609004150390625,0.0011266155634075403,-0.0015885215252637863,-0.00004765437915921211
1761431198663947000,3.628947021484375,0.003049416933208704,-0.00022284965962171555,0.000865733833052218
1761431198683891200,3.64889111328125,-0.001113231061026454,-0.0016216826625168324,-0.000444407865870744
1761431198703834400,3.66883447265625,-0.00012232427252456546,-0.0005092155188322067,0.00002432987093925476
1761431198723778300,3.6887783203125,0.00202487176284194,0.0006489818915724754,0.00146076874807477
1761431198743722200,3.70872216796875,-0.0014703755732625723,-0.0009411447681486607,-0.001950619975104928
1761431198763665200,3.7286650390625,0.0004925865796394646,-0.002673741662874818,0.003253629896789789
1761431198783609000,3.748609130859375,0.0019964089151471853,-0.0014747511595487595,-0.0027151901740580797
1761431198803553000,3.768552978515625,0.0010851111728698015,0.0006302329711616039,0.00055236357729882
1761431198823496200,3.78849609375,0.0004805093049071729,-0.00009806081652641296,-0.0010129522997885942
1761431198843440400,3.8084404296875,-0.00029187509790062904,-0.0017259321175515652,-0.0014846320264041424
1761431198863384300,3.82838427734375,0.0005472438060678542,-0.0004167640581727028,-0.0012191516580060124
1761431198883327200,3.8483271484375,0.0002555018290877342,-0.001243453472852707,-0.0015066424384713173
1761431198903271200,3.868271240234375,0.000886531313881278,-0.001344048883765936,-0.0020802870858460665
1761431198923215000,3.888215087890625,0.0003332250635139644,0.002621132880449295,-0.0009500287123955786
1761431198943158300,3.908158203125,0.0017819796921685338,0.00038495520129799843,0.0011968911858275533
1761431198963102200,3.928102294921875,0.002557283965870738,0.0008045192807912827,-0.0015566525980830193
1761431198983045000,3.948045166015625,0.0017154734814539552,0.0003902250900864601,0.002239454770460725
1761431199002989300,3.9679892578125,-0.00027226528618484735,0.0006369207985699177,0.0015899472637102008
1761431199022933200,3.987933349609375,0.000022991327568888664,-0.0002434058114886284,-0.0017949272878468037
1761431199042876200,4.007876220703125,-0.00085402064723894,-0.00021861307322978973,0.0001597037771716714
1761431199062820000,4.027820068359375,-0.0014017308130860329,-0.00005162181332707405,-0.0011631157249212265
1761431199082763300,4.04776318359375,0.0006397750694304705,0.001217495184391737,-0.0002170418156310916
1761431199102707200,4.067707275390625,0.0014494732022285461,0.0011225827038288116,-0.0029730815440416336
1761431199122650000,4.087650146484375,-0.0021226597018539906,-0.000864061526954174,-0.0014794807648286223
1761431199142594000,4.107593994140625,0.0007473368314094841,0.00031511904671788216,-0.00001122721005231142
1761431199162538000,4.1275380859375,0.0017161869909614325,0.00044043175876140594,-0.00048107211478054523
1761431199182481200,4.147481201171875,0.0010516982292756438,-0.0008852006867527962,0.001451760297641158
1761431199202425000,4.167425048828125,0.0007727458723820746,-0.00228510657325387,0.0015101928729563951
1761431199222369300,4.187369384765625,-0.0004980855155736208,-0.00022175908088684082,0.001505585853010416
1761431199242312200,4.207312255859375,-0.0013558630598708987,-0.00025777239352464676,0.0009289592271670699
1761431199262256000,4.227256103515625,0.0004613423952832818,0.000887199304997921,0.0011970569612458348
1761431199282200000,4.247199951171875,0.0009487738716416061,0.0013173595070838928,-0.0017540688859298825
1761431199302143000,4.26714306640625,-0.0013281467836350203,0.0008715079165995121,-0.0013473331928253174
1761431199322087200,4.287087158203125,-0.0024667708203196526,-0.0004299245774745941,0.00006324145942926407
1761431199342030000,4.307030029296875,0.00166760990396142,-0.0014591771177947521,0.00213121110573411
1761431199361974000,4.32697412109375,-0.0004219734692014754,0.00007598893716931343,-0.00019380042795091867
1761431199381918200,4.346918212890625,0.003019513562321663,0.00038729188963770866,-0.0012172842398285866
1761431199401861000,4.366861083984375,0.0006476672133430839,0.0013771001249551773,-0.00004275317769497633
1761431199421806000,4.38680615234375,0.0013934386661276221,-0.0010707252658903599,0.00018141348846256733
1761431199441749000,4.4067490234375,0.0001364964700769633,0.0011751479469239712,-0.0016224539140239358
1761431199461693000,4.42669287109375,-0.00013439619215205312,-0.0008531399071216583,0.000929509405978024
1761431199481636000,4.446635986328125,0.0007623848505318165,-0.0005056941881775856,-0.002750355750322342
1761431199501580000,4.466580078125,0.00004436273593455553,-0.0019974824972450733,0.0002844296395778656
1761431199521524200,4.486524169921875,0.0015085850609466434,0.0007463456131517887,0.0005872190231457353
1761431199541467100,4.506467041015625,-0.0005818517529405653,-0.0006975396536290646,0.00003839738201349974
1761431199561411000,4.5264111328125,-0.0008375459583476186,0.0008773840963840485,-0.0017661233432590961
1761431199581355000,4.54635498046875,0.00022277736570686102,0.0004419642500579357,0.0000024831388145685196
1761431199601298200,4.566298095703125,-0.0006043219473212957,-0.0005324943922460079,0.00015280500520020723
1761431199621242000,4.5862421875,0.00004953928873874247,0.00204676017165184,-0.00024310086155310273
1761431199641186000,4.60618603515625,0.00016118618077598512,-0.0007354742847383022,0.0009875366231426597
1761431199661129000,4.62612890625,-0.0008300293702632189,0.0018695485778152943,-0.0007229958428069949
1761431199681073200,4.6460732421875,-0.0005239190068095922,-0.00024025188758969307,-0.0010064226808026433
1761431199701016000,4.66601611328125,-0.0012541511096060276,0.0003066202625632286,-0.0033439574763178825
1761431199720960300,4.685960205078125,0.001958397449925542,-0.00034275976940989494,-0.00030310882721096277
1761431199740904200,4.705904296875,0.00031173182651400566,-0.0002157348208129406,-0.0011611400404945016
1761431199760847000,4.72584716796875,0.00047360206372104585,-0.0018828720785677433,-0.0007778401486575603
1761431199780791000,4.745791015625,0.0014696267899125814,-0.0012278147041797638,0.00016381428577005863
1761431199800735000,4.76573486328125,-0.001070450758561492,-0.001445614267140627,-0.0013554079923778772
1761431199820678000,4.785677978515625,0.0011766839306801558,0.00007495470345020294,0.0009739638771861792
1761431199840622000,4.8056220703125,-0.0006631780415773392,0.001409806776791811,-0.00037487776717171073
1761431199860566000,4.82556591796875,0.0007326178019866347,-0.0019442890770733356,0.00017908448353409767
1761431199880509200,4.84550927734375,0.004134234972298145,0.0007205763831734657,-0.0016560675576329231
1761431199900453000,4.865453125,0.00249644392170012,0.0007910658605396748,0.0003183068474754691
1761431199920396000,4.88539599609375,-0.0008290550904348493,-0.0021919473074376583,0.0001742399763315916
1761431199940340000,4.905340087890625,0.000556349114049226,-0.001482419203966856,0.0017176095861941576
1761431199960284000,4.925283935546875,0.0004233591607771814,-0.0009027766063809395,-0.000336508615873754
1761431199980227000,4.94522705078125,0.0011244341731071472,0.00021695252507925034,0.000846336130052805
1761431200000171300,4.965171142578125,0.000496597436722368,-0.0010434193536639214,-0.0006489749066531658
1761431200020115200,4.985115234375,-0.00189842632971704,-0.001201876439154148,-0.0005265366635285318
1761431200040058000,5.00505810546875,-0.000474311294965446,-0.000658892560750246,-0.00005633325781673193
1761431200060002000,5.025001953125,-0.0021907538175582886,0.001547901425510645,-0.0016704080626368523
1761431200079946000,5.044946044921875,-0.0007421508198603988,-0.0005504772998392582,-0.0007055075839161873
1761431200099889200,5.06488916015625,-0.002109023043885827,-0.00001952424645423889,0.0010422341292724013
1761431200119833000,5.0848330078125,-0.0000784610747359693,0.000557655468583107,-0.003030346240848303
1761431200139776000,5.10477587890625,-0.0010375139536336064,0.00024943286553025246,-0.00004903494846075773
1761431200159720200,5.12472021484375,-0.0012840637937188148,-0.0014736545272171497,0.001976628554984927
1761431200179664100,5.1446640625,0.0009675323381088674,-0.0011985073797404766,0.002234883839264512
1761431200199607000,5.16460693359375,-0.0016058053588494658,-0.0014015012420713902,0.00041798665188252926
1761431200219551000,5.184551025390625,-0.0008640892338007689,-0.0015499037690460682,-0.0011644575279206038
1761431200239495200,5.2044951171875,-0.0021930853836238384,0.0007564905099570751,0.00028740207199007273
1761431200259438300,5.224438232421875,0.0008685491047799587,-0.0002562408335506916,0.001203466672450304
1761431200279382300,5.24438232421875,0.0005707525415346026,0.0006661983206868172,0.0010972536401823163
1761431200299325200,5.2643251953125,0.00007880391785874963,-0.001625357661396265,-0.0016603309195488691
1761431200319269000,5.28426904296875,-0.0010382076725363731,0.0009951437823474407,-0.0014482508413493633
1761431200339213000,5.304213134765625,0.0007200491381809115,-0.0010535838082432747,-0.0022068151738494635
1761431200359156200,5.32415625,0.0028108723927289248,-0.0022410452365875244,0.0032014925964176655
1761431200379100200,5.34410009765625,0.000015085272025316954,-0.0014882409013807774,-0.0001516556367278099
1761431200399044400,5.36404443359375,-0.0011387388221919537,0.002680395729839802,-0.0015490376390516758
1761431200418987300,5.3839873046875,-0.0010834697168320417,0.0019778339192271233,0.0014320387272164226
1761431200438931200,5.40393115234375,0.00016124776448123157,0.001898431684821844,-0.0010272664949297905
1761431200458875100,5.423875244140625,-0.00018006580648943782,0.0008865003474056721,-0.0022008244413882494
1761431200478818300,5.443818359375,0.0007398145389743149,-0.0002213427796959877,0.000631835893727839
1761431200498762200,5.46376220703125,0.0003134438011329621,-0.0016098227351903915,-0.001519136829301715
1761431200518705200,5.483705078125,-0.0011079905088990927,-0.0012940517626702785,0.0012351451441645622
1761431200538649300,5.5036494140625,0.00005739944754168391,-0.0010719341225922108,-0.00006819004192948341
1761431200558593300,5.52359326171875,-0.001278254552744329,-0.0024184901267290115,0.0008344679372385144
1761431200578536200,5.5435361328125,-0.0013527162373065948,-0.00044558383524417877,-0.0015275586629286408
1761431200598480100,5.563480224609375,-0.0020378055050969124,-0.0014272993430495262,0.0002265517832711339
1761431200618424000,5.583424072265625,0.0013660474214702845,-0.0003089588135480881,-0.0013907381799072027
1761431200638367200,5.6033671875,-0.0013640436809509993,0.00036005815491080284,-0.00007815682329237461
1761431200658311200,5.623311279296875,-0.0021538580767810345,0.0013874187134206295,-0.00048099306877702475
1761431200678254000,5.643254150390625,0.001409310381859541,-0.0008284086361527443,0.0021147471852600574
1761431200698198300,5.6631982421875,0.0003656690241768956,0.0004832581616938114,-0.0008358684135600924
1761431200718142200,5.68314208984375,-0.002236279658973217,0.0016826195642352104,-0.0030614607967436314
1761431200738085400,5.70308544921875,0.0003190171846654266,0.00023058848455548286,0.002121357712894678
1761431200758029300,5.723029296875,-0.002616308396682143,0.0004204283468425274,0.0014252141118049622
1761431200777973200,5.74297314453125,-0.0010407180525362492,0.0017056362703442574,-0.00048511079512536526
1761431200797916200,5.762916259765625,-0.0007662163116037846,0.001401139423251152,-0.0024656462483108044
1761431200817860000,5.782860107421875,0.0002442416734993458,-0.0019232043996453285,-0.0005410253070294857
1761431200837803000,5.802802978515625,-0.000216852524317801,-0.0014644404873251915,-0.0013826156500726938
1761431200857747200,5.822747314453125,0.0008026931318454444,-0.0005270731635391712,-0.00009100884199142456
1761431200877691400,5.84269140625,-0.000050489616114646196,-0.000368376262485981,0.0004492740845307708
1761431200897634300,5.86263427734375,-0.0000621904619038105,-0.0007757931016385555,0.0021913410164415836
1761431200917578200,5.882578125,0.0019197503570467234,-0.0010578669607639313,0.0004672866780310869
1761431200937522200,5.902522216796875,-0.00022716179955750704,-0.0009293635375797749,-0.0010226097656413913
1761431200957465000,5.922465087890625,0.0029118689708411694,-0.0004979604855179787,-0.0023968941532075405
1761431200977409000,5.942408935546875,-0.0006732043111696839,0.00020543858408927917,0.0004089324502274394
1761431200997352200,5.962352294921875,0.0011749271070584655,0.00013119308277964592,0.0015866708708927035
1761431201017296400,5.98229638671875,-0.0012872397201135755,0.0012339563108980656,-0.0010446941014379263
1761431201037240300,6.002240234375,0.0017668299842625856,-0.00007750466465950012,-0.0005316674360074103
1761431201057183200,6.022183349609375,-0.0010940477950498462,-0.0016082501970231533,0.0011559907579794526
1761431201077127200,6.042127197265625,-0.0002657214645296335,0.0008704024367034435,-0.0005908722523599863
1761431201097071000,6.062071044921875,0.0018523382022976875,-0.001383678987622261,0.003170384094119072
1761431201117014300,6.08201416015625,0.0008940851548686624,-0.0022995583713054657,0.00113485602196306
1761431201136958200,6.101958251953125,0.0005148411728441715,0.000432322733104229,0.00008106045424938202
1761431201156904700,6.12190478515625,0.0008708785753697157,0.0005020578391849995,0.00007908581756055355
1761431201176848600,6.1418486328125,-0.0008249138481914997,0.0015690140426158905,-0.0008787771221250296
1761431201196792600,6.16179248046875,0.0007882247446104884,-0.0007605976425111294,-0.001170388306491077
1761431201216735500,6.181735595703125,-0.0015638589393347502,0.0008735284209251404,0.0034854356199502945
1761431201236679700,6.2016796875,0.0005623586475849152,0.00005607865750789642,-0.00023361435160040855
1761431201256623600,6.22162353515625,-0.0005739221815019846,-0.0008141137659549713,-0.00240410678088665
1761431201276566500,6.24156640625,-0.00007774884579703212,-0.0012464369647204876,0.0004152733599767089
1761431201296510700,6.2615107421875,-0.000803443428594619,-0.0009090560488402843,0.002030267147347331
1761431201316453600,6.28145361328125,0.00048119857092387974,-0.0014955843798816204,0.0012668115086853504
1761431201336397600,6.3013974609375,-0.00009318470256403089,0.0021160105243325233,-0.0005691160913556814
1761431201356341500,6.321341552734375,0.001970569370314479,0.0016182628460228443,0.0009283615509048104
1761431201376284700,6.34128466796875,0.0009372530039399862,-0.0001359507441520691,0.0007467512041330338
1761431201396228600,6.361228515625,-0.0006526541546918452,0.000638230238109827,-0.0009534107521176338
1761431201416172500,6.381172607421875,-0.00014665327034890652,-0.000512189231812954,-0.0003528283559717238
1761431201436115500,6.401115478515625,-0.0018929352518171072,-0.000494896899908781,-0.0010490529239177704
1761431201456059600,6.4210595703125,0.0008661468746140599,-0.00021657859906554222,0.0010373416589573026
1761431201476002800,6.4410029296875,-0.0013676958624273539,-0.0013134516775608063,-0.0010044435039162636
1761431201495946800,6.46094677734375,0.0019043439533561468,-0.00006468873471021652,0.0033659893088042736
1761431201515890700,6.480890625,0.0002386871783528477,-0.002910129725933075,0.002185133984312415
1761431201535833600,6.50083349609375,0.0009639026829972863,0.00011289352551102638,0.0015205472009256482
1761431201555777500,6.520777587890625,0.0007349974475800991,-0.0005771517753601074,-0.0014591990038752556
1761431201575720400,6.540720458984375,0.001939863432198763,-0.0019312170334160328,-0.0013355693081393838
1761431201595664400,6.560664306640625,0.0016823881305754185,-0.00012553762644529343,-0.0011610547080636024
1761431201615608600,6.580608642578125,-0.0014701588079333305,-0.0010447558015584946,-0.00010914343874901533
1761431201635551700,6.6005517578125,-0.00003459112485870719,0.00266179908066988,0.001700222841463983
1761431201655495700,6.62049560546875,0.0029881263617426157,-0.00016861874610185623,-0.0038502439856529236
1761431201675439600,6.640439697265625,0.00274881673976779,-0.0007469817064702511,0.0009842381114140153
1761431201695382500,6.660382568359375,0.0005687739467248321,-0.00015301071107387543,0.00109603360760957
1761431201715326500,6.680326416015625,0.0013939642813056707,0.0002996651455760002,0.001189204165711999
1761431201735269600,6.70026953125,0.0007233797805383801,-0.00003677885979413986,0.002186019904911518
1761431201755213600,6.720213623046875,0.0009073179098777473,0.0009970879182219505,-0.000626916706096381
1761431201775157800,6.74015771484375,-0.0010516955517232418,-0.0010825307108461857,-0.002597005572170019
1761431201795100700,6.7601005859375,-0.003677522065117955,-0.0006671035662293434,-0.0014924723654985428
1761431201815044600,6.780044677734375,0.000887562520802021,0.0003392309881746769,0.0010996309574693441
1761431201834987500,6.799987548828125,0.0012429452035576105,-0.0032897351775318384,0.0009565410437062383
1761431201854931700,6.819931640625,0.0007832610281184316,0.00041593704372644424,0.00023265054915100336
1761431201874875600,6.839875732421875,-0.00009590067202225327,0.0008266745135188103,0.00027011323254555464
1761431201894818600,6.859818603515625,-0.0011569508351385593,-0.0002817143686115742,-0.0010830243118107319
1761431201914762500,6.879762451171875,-0.001959378132596612,0.00029853731393814087,-0.003338585374876857
1761431201934706700,6.899706787109375,0.0019247678574174643,-0.002445641905069351,0.0019452071283012629
1761431201954649600,6.919649658203125,-0.0017267828807234764,-0.0018910146318376064,-0.0006037543644197285
1761431201974593500,6.939593505859375,-0.00035575806396082044,0.0017574205994606018,0.0018992472905665636
1761431201994536700,6.95953662109375,-0.0004658409161493182,0.0009215367026627064,-0.0004649051115848124
1761431202014480600,6.979480712890625,0.0001063371601048857,-0.001824900507926941,0.000918990233913064
1761431202034424600,6.999424560546875,0.0006643053493462503,0.002366760279983282,0.0020671780221164227
1761431202054367500,7.019367431640625,0.00011398413334973156,-0.001531396061182022,0.0033076684921979904
1761431202074311400,7.0393115234375,0.0008120016427710652,-0.0013280217535793781,-0.00021813681814819574
1761431202094255600,7.059255615234375,-0.000650746573228389,0.0014453725889325142,-0.00027626752853393555
1761431202114198800,7.07919873046875,0.0017880722880363464,-0.0015371628105640411,-0.0002296291058883071
1761431202134142700,7.099142822265625,-0.0022154757753014565,0.0008485447615385056,0.001494891825132072
1761431202154082300,7.119082275390625,-0.0009419723646715283,-0.0010808445513248444,0.0012144003994762897
1761431202174026200,7.139026123046875,0.000811890815384686,-0.0003099404275417328,-0.00031971611315384507
1761431202193970400,7.158970458984375,-0.000726745871361345,0.0003514504060149193,-0.000861119944602251
1761431202213913300,7.178913330078125,-0.0019503524526953697,-0.00015899119898676872,0.0034116762690246105
1761431202233857300,7.198857177734375,0.0012655782047659159,0.00006099836900830269,-0.001275207963772118
1761431202253800400,7.218800537109375,0.0002134754613507539,0.0014384724199771881,-0.0011420401278883219
1761431202273744400,7.238744384765625,-0.0015810263575986028,0.0005467771552503109,0.0012689806753769517
1761431202293688300,7.258688232421875,0.0008472703630104661,0.0005995477549731731,-0.0021749057341367006
1761431202313631200,7.27863134765625,-0.0025067217648029327,-0.001039082184433937,-0.0020781527273356915
1761431202333575200,7.2985751953125,-0.001123205991461873,-0.002314115408807993,0.0016440574545413256
1761431202353518300,7.318518310546875,-0.0005948555190116167,-0.002462316770106554,-0.000472787709441036
1761431202373462500,7.338462646484375,-0.0010618832893669605,-0.0014462112449109554,-0.0004202728741802275
1761431202393406500,7.358406494140625,0.00060466950526461,-0.0005080597475171089,-0.0009230361320078373
1761431202413349400,7.378349365234375,0.0009648792911320925,0.0013160556554794312,0.0002565779723227024
1761431202433293300,7.398293212890625,0.0005286572850309312,0.0026917289942502975,-0.002347388304769993
1761431202453237200,7.4182373046875,-0.0012145191431045532,-0.0009771976619958878,0.0009673762833699584
1761431202473180400,7.438180419921875,0.0001451590214855969,-0.0008639264851808548,-0.001552045694552362
1761431202493124400,7.458124267578125,-0.0020623416639864445,-0.0005142828449606895,0.00023168488405644894
1761431202513067300,7.4780673828125,0.0019237042870372534,0.0032962881959974766,-0.002695558127015829
1761431202533011500,7.498011474609375,0.0008662041509523988,0.0002750013954937458,-0.00001944915857166052
1761431202552955400,7.517955322265625,0.0011406643316149712,0.0009404942393302917,0.0014559357659891248
1761431202572898300,7.537898193359375,-0.0007787185604684055,-0.00011076219379901886,0.0009408917976543307
1761431202592842200,7.55784228515625,0.0009168374235741794,0.0009022052399814129,0.0002515101805329323
1761431202612785400,7.577785400390625,-0.0021314811892807484,-0.0007465402595698833,-0.0008461864781565964
1761431202632729300,7.597729248046875,0.0018995809368789196,-0.0007019666954874992,0.0007623934652656317
1761431202652673300,7.61767333984375,-0.0021775751374661922,-0.0009129666723310947,-0.0008077971870079637
1761431202672616200,7.6376162109375,0.0004348097136244178,-0.0020711361430585384,0.001259828801266849
1761431202692560400,7.657560302734375,0.002590274903923273,-0.0007001785561442375,0.0005322170909494162
1761431202712503600,7.677503662109375,-0.0010366304777562618,0.0002565067261457443,-0.0019415796268731356
1761431202732447500,7.697447509765625,0.0009552167030051351,-0.0003169556148350239,-0.0015667271800339222
1761431202752391400,7.717391357421875,0.0031181881204247475,-0.00038488488644361496,0.0023648254573345184
1761431202772334300,7.737334228515625,0.000651356705930084,0.0012793345376849174,-0.00023483275435864925
1761431202792278300,7.7572783203125,-0.002028305549174547,-0.001714248675853014,0.0004753870889544487
1761431202812221200,7.77722119140625,0.002509688725695014,-0.001710241660475731,0.002907141577452421
1761431202832165000,7.7971650390625,0.001586344325914979,0.0011920309625566006,0.0025464368518441916
1761431202852109300,7.817109375,-0.000037298304960131645,-0.00023840926587581635,0.000554168364033103
1761431202872052500,7.837052490234375,0.001892684493213892,-0.0007083769887685776,0.0024657470639795065
1761431202891996400,7.856996337890625,-0.0022079916670918465,0.002252809703350067,0.0015438265400007367
1761431202911940400,7.8769404296875,0.0009055993286892772,0.000057314056903123856,0.0008790206629782915
1761431202931883300,7.89688330078125,0.0017622862942516804,0.0005868952721357346,0.0014128632610663772
1761431202951827200,7.9168271484375,0.0004953255993314087,-0.00007499847561120987,-0.0027170120738446712
1761431202971770400,7.936770263671875,0.0007912730798125267,-0.0010510911233723164,-0.0004315647529438138
1761431202991714300,7.95671435546875,-0.0006163064390420914,0.0014422964304685593,0.0013091906439512968
1761431203011658500,7.976658447265625,0.0005831978050991893,-0.0044534276239573956,-0.0011853749165311456
1761431203031601400,7.996601318359375,-0.00022407755022868514,0.00009963102638721466,-0.0017032462637871504
1761431203051544300,8.01654443359375,0.0006511236424557865,-0.001156854908913374,-0.0032871472649276257
1761431203071488300,8.03648828125,0.0025665597058832645,0.000672211404889822,-0.0025810631923377514
1761431203091432400,8.056432373046874,-0.001107590040192008,0.0005956920795142651,0.0014699542662128806
1761431203111375400,8.076375244140625,0.001786605454981327,0.000343881081789732,0.0005180560983717442
1761431203131319300,8.0963193359375,-0.0003922880277968943,-0.00004805484786629677,-0.0007188202580437064
1761431203151262200,8.11626220703125,-0.0005552493967115879,0.0008282349444925785,-0.00013899977784603834
1761431203171205600,8.13620556640625,-0.001661072950810194,-0.0009155026637017727,-0.0016202933620661497
1761431203191149800,8.15614990234375,-0.0015220183413475752,-0.0008668983355164528,-0.001480471808463335
1761431203211092700,8.1760927734375,0.00048186370986513793,-0.0008339337073266506,-0.002226930810138583
1761431203231037000,8.196036865234374,-0.0021564695052802563,0.001305601093918085,-0.002016679383814335
1761431203250979800,8.215979736328125,0.0037779100239276886,-0.0019897357560694218,0.0032048881985247135
1761431203270923800,8.235923828125,0.0012212854344397783,-0.0011497801169753075,-0.00033646030351519585
1761431203290867700,8.25586767578125,0.00043087289668619633,0.0017834105528891087,0.001722535933367908
1761431203310811000,8.275810791015624,0.0007084309472702444,-0.0008297013118863106,-0.00045885128201916814
1761431203330754800,8.2957548828125,-0.002394537441432476,0.002805960364639759,-0.0023447098210453987
1761431203350697700,8.31569775390625,-0.0008411629241891205,0.000014154240489006042,-0.0015064909821376204
1761431203370641700,8.3356416015625,-0.00046752404887229204,-0.0024426220916211605,0.0025611580349504948
1761431203390585900,8.3555859375,-0.00013274222146719694,0.0008784658275544643,0.0016080981586128473
1761431203410530800,8.37553076171875,-0.0004822255577892065,-0.0023729223757982254,0.001190244103781879
1761431203430473700,8.3954736328125,0.0014427881687879562,0.00004067691043019295,0.0016765383770689368
1761431203450417700,8.415417724609375,-0.0005500103579834104,-0.00015916908159852028,-0.0012667099945247173
1761431203470360800,8.43536083984375,-0.0007313132518902421,-0.0005595944821834564,-0.00004111137241125107
1761431203490304800,8.4553046875,0.0012932026293128729,0.0009154430590569973,-0.00026988110039383173
1761431203510249000,8.4752490234375,-0.0013907270040363073,-0.0005993666127324104,0.0007022314239293337
1761431203530192000,8.49519189453125,-0.0017188556957989931,-0.0005080769769847393,0.0009164591319859028
1761431203550135800,8.5151357421875,-0.0001981800887733698,-0.0002845260314643383,0.0005143673624843359
1761431203570079000,8.535078857421874,0.00018767011351883411,-0.0017922553233802319,-0.0012450620997697115
1761431203590023000,8.55502294921875,0.00045834353659301996,-0.00042158225551247597,0.0001133145997300744
1761431203609966800,8.574966796875,0.0009830938652157784,-0.00007919641211628914,0.0010509295389056206
1761431203629909800,8.59490966796875,-0.002046218141913414,-0.000014921650290489197,0.00014953466597944498
1761431203649853700,8.614853759765625,-0.0013278464321047068,0.0013143564574420452,0.00034723663702607155
1761431203669796600,8.634796630859375,-0.0018578929593786597,0.0009499844163656235,0.00008028093725442886
1761431203689740800,8.65474072265625,0.0004763794131577015,-0.003187033114954829,0.0038100196979939938
1761431203709684700,8.674684814453125,-0.0017194678075611591,-0.0002457592636346817,-0.00019266316667199135
1761431203729628000,8.6946279296875,-0.0011193212121725082,-0.0004761707969009876,-0.0009081035386770964
1761431203749571800,8.71457177734375,0.00041967068682424724,-0.001054893247783184,0.0018732317257672548
1761431203769514800,8.7345146484375,-0.0013797663850709796,-0.001412282232195139,-0.0024498309940099716
1761431203789458700,8.754458740234375,-0.00041308836080133915,0.00034378794953227043,-0.0003782259882427752
1761431203809402600,8.774402587890625,-0.0003331060288473964,0.0009702104143798351,-0.0022353557869791985
1761431203829345800,8.794345703125,-0.0011786272516474128,-0.0007348433136940002,0.0010044084629043937
1761431203849290000,8.8142900390625,-0.0006469956133514643,-0.0007686344906687737,0.003539874218404293
1761431203869233000,8.83423291015625,0.001318611903116107,-0.001535110641270876,-0.0011294148862361908
1761431203889176800,8.8541767578125,-0.0006123065249994397,0.0007318686693906784,-0.0028696455992758274
1761431203909120800,8.874120849609374,0.000736476737074554,-0.0014661201275885105,0.0015678287018090487
1761431203929063700,8.894063720703125,-0.0012330743484199047,0.001323604490607977,-0.0009391961502842605
1761431203949008000,8.9140078125,0.00010374380508437753,-0.0014611068181693554,0.0014125863090157509
1761431203968950800,8.93395068359375,-0.0009102098410949111,-0.00014741579070687294,-0.0008054515928961337
1761431203988894700,8.953894775390625,-0.000336542259901762,0.001312997192144394,0.0010411178227514029
1761431204008839000,8.9738388671875,0.0019550162833184004,0.00032857758924365044,-0.0003678926732391119
1761431204028781800,8.99378173828125,0.00014625710900872946,0.0008266977965831757,-0.0002516113454475999
1761431204048725800,9.013725830078124,0.0008969036280177534,-0.002067078370600939,0.001459062215872109
1761431204068669000,9.0336689453125,-0.000026147288735955954,0.0003770105540752411,-0.00013112928718328476
1761431204088612900,9.05361279296875,-0.0014455602504312992,-0.0004847082309424877,0.00333600165322423
1761431204108556800,9.073556884765624,0.00030048060580156744,0.003018056508153677,-0.002028050133958459
1761431204128499700,9.093499755859375,0.0034261196851730347,-0.003103117924183607,0.0014547692844644189
1761431204148443600,9.113443603515625,-0.0020562983117997646,0.0005907355807721615,-0.0006789269973523915
1761431204168387000,9.133386962890626,0.0014704507775604725,0.0002927086316049099,-0.002163116354495287
1761431204188331000,9.1533310546875,-0.001467037247493863,0.0013423850759863853,-0.0005967653123661876
1761431204208274200,9.173274169921875,-0.0011904629645869136,-0.0022844825871288776,0.0013108516577631235
1761431204228218000,9.193218017578126,0.002128143794834614,-0.0025082072243094444,-0.0004107594722881913
1761431204248162300,9.213162353515624,-0.0004986405838280916,0.0003108507953584194,-0.001932517159730196
1761431204268105200,9.233105224609375,-0.0004412410198710859,0.0011154161766171455,0.0020397831685841084
1761431204288049200,9.253049072265625,0.0019481189083307981,-0.00011709518730640411,0.002227046526968479
1761431204307992300,9.272992431640626,-0.0005059511750005186,0.0014361506327986717,0.002598625374957919
1761431204327936300,9.292936279296875,0.0010836321162059903,0.00023914547637104988,0.003444004338234663
1761431204347880200,9.312880126953125,0.0025178147479891777,0.0013223784044384956,-0.00026074936613440514
1761431204367823000,9.332822998046876,0.0022046237718313932,0.0016363183967769146,0.0023753056302666664
1761431204387767000,9.35276708984375,0.00025872301193885505,0.0009985901415348053,0.0005336604081094265
1761431204407710000,9.3727099609375,0.0009755012579262257,-0.00020635314285755157,0.0007128225406631827
1761431204427654100,9.392654052734375,-0.0013781574089080095,-0.00048063695430755615,0.0010923045920208097
1761431204447598300,9.412598388671874,-0.0006898982683196664,-0.0006961417384445667,0.0008650671225041151
1761431204467541200,9.432541259765625,-0.0008941397536545992,-0.0009559262543916702,-0.0006480836309492588
1761431204487485200,9.452485107421875,0.00164484151173383,-0.00019075069576501846,0.0005243077175691724
1761431204507428000,9.472427978515626,0.0005587550112977624,-0.0018570730462670326,-0.000486343982629478
1761431204527372000,9.4923720703125,0.000481847848277539,-0.00016067270189523697,-0.0004896238096989691
1761431204547316000,9.51231591796875,-0.0006131906411610544,-0.0005555278621613979,0.0008932027267292142
1761431204567259100,9.532259033203125,0.00009049224900081754,-0.00003965478390455246,0.0005591168301180005
1761431204587203300,9.552203369140624,0.00043153419392183423,0.0003549042157828808,-0.0031323772855103016
1761431204607146200,9.572146240234375,0.0017753442516550422,-0.0013159951195120811,0.000467294012196362
1761431204627090200,9.592090087890625,-0.000021940853912383318,-0.00043472927063703537,0.002141942037269473
1761431204647034000,9.6120341796875,-0.001595516107045114,0.0017751646228134632,-0.0021331473253667355
1761431204666977300,9.631977294921874,-0.0004069134593009949,-0.0010426598601043224,0.00027254794258624315
1761431204686921200,9.651921142578125,-0.00042511214269325137,0.0004601101391017437,0.00008274475112557411
1761431204706864000,9.671864013671875,0.002960406942293048,0.0016312850639224052,-0.0016262257704511285
1761431204726808000,9.69180810546875,0.0004636202356778085,-0.0011773495934903622,-0.0011914425995200872
1761431204746751000,9.7117509765625,-0.00009221059735864401,-0.0012091281823813915,-0.002443976467475295
1761431204766695200,9.731695068359375,0.0008950921474024653,-0.00029845675453543663,0.00025739113334566355
1761431204786639000,9.75163916015625,-0.00009043567115440965,0.0010511144064366817,0.0006997562013566494
1761431204806582300,9.771582275390625,0.0020481590181589127,0.0005145687609910965,-0.0027797198854386806
1761431204826526200,9.791526123046875,0.00089972501154989,-0.002747845835983753,0.0005137128755450249
1761431204846469000,9.81146923828125,0.0010777341667562723,0.00011597992852330208,0.0005953810177743435
1761431204866413000,9.8314130859375,0.0008999424171634018,-0.0015302826650440693,0.0011118430411443114
1761431204886357000,9.85135693359375,-0.000488805933855474,-0.00031044892966747284,0.002160053700208664
1761431204906300200,9.871300048828125,0.00007868529064580798,-0.003528418019413948,0.0008463828125968575
1761431204926244400,9.891244384765624,0.002174646593630314,-0.001918066293001175,0.002048725727945566
1761431204946187300,9.911187255859375,0.003124024486169219,0.0005416669882833958,0.0018055958207696676
1761431204966131200,9.931131103515625,0.0019111419096589088,-0.0009470214135944843,-0.002706876490265131
1761431204986074000,9.95107421875,0.0008429869776591659,-0.012043377384543419,0.0016510613495483994
1761431205006018000,9.97101806640625,0.0029691490344703197,-0.011171024292707443,-0.007769102696329355
1761431205025962200,9.990962158203125,0.00025427984655834734,-0.014935106039047241,-0.0057287635281682014
1761431205045905200,10.0109052734375,-0.0017327775713056326,-0.008566909469664097,-0.004153348971158266
1761431205065849000,10.03084912109375,-0.00038840610068291426,0.0007644938305020332,0.0023267657961696386
