time,seconds_elapsed,z,y,x
1761509290099965700,0.070965576171875,-0.06380348686873913,0.006754351364728063,-0.005791963472822681
1761509290120123600,0.09112353515625,-0.05934241580665111,0.004731567699695006,0.00041791488481685517
1761509290140281600,0.111281494140625,-0.06204466050267219,0.0039531580725684756,-0.0007341412271372974
1761509290160440600,0.131440673828125,-0.06564882247447967,0.004072327472828328,0.0033209885157179085
1761509290180598500,0.1515986328125,-0.06819324626028538,-0.002136135245859623,-0.003137293378729373
1761509290200756500,0.171756591796875,-0.06385258670747279,-0.002630092775262892,0.00806606415095739
1761509290220914700,0.191914794921875,-0.05697217954397201,0.0004691336154006421,0.00493061566944234
1761509290241072600,0.21207275390625,-0.05981003331840038,-0.0073142502698116,-0.007751500042760744
1761509290261231600,0.232231689453125,-0.06129881057143211,0.0020256880081724374,0.01158087647203356
1761509290281389600,0.2523896484375,-0.0764011026352644,-0.008555345505243167,0.010793881679652258
1761509290301547500,0.272547607421875,-0.05260054033100605,-0.0008663071062881499,-0.0022273937258869407
1761509290321705500,0.29270556640625,-0.06666705960631371,0.0025849110598210245,-0.007588856826955452
1761509290341864700,0.31286474609375,-0.09284837956726551,0.0004477803001180291,0.004338084003236145
1761509290362022700,0.333022705078125,-0.051835985699296,-0.0024463611056562513,0.008380272066127509
1761509290382180600,0.3531806640625,-0.04539630804061889,0.0008086495017632842,0.004290956925880164
1761509290402338600,0.373338623046875,-0.06380348686873913,0.006722942446311935,0.012508037786930798
1761509290422496500,0.39349658203125,-0.059309098058938976,0.020718921802635303,0.005183220457332208
1761509290442655500,0.413655517578125,-0.059303837361931795,0.003312923940271139,0.004790120353363454
1761509290462813700,0.433813720703125,-0.0627414105951786,0.002438899318408221,0.005223470269329846
1761509290482971600,0.4539716796875,-0.06783259625434875,-0.004107864577090368,0.0007691029426641762
1761509290503129600,0.474129638671875,-0.058255789613723755,0.00015570201836526392,0.007264200583007186
1761509290523287600,0.49428759765625,-0.059300914752483364,-0.003992129242932424,0.002716638547554612
1761509290543446500,0.514446533203125,-0.06723112322986126,-0.016618477913597596,0.00354593811170198
1761509290563604500,0.5346044921875,-0.06513444321155548,0.006811926770862191,0.008468078213743865
1761509290583762700,0.5547626953125,-0.05900163954496383,-0.0011411602586042136,0.0005319605853874236
1761509290603920600,0.574920654296875,-0.04882452892363071,-0.004163732083328068,-0.005992299217358231
1761509290624079600,0.59507958984375,-0.07635609444975852,0.0012764314102940261,-0.0018422851321287452
1761509290644237600,0.615237548828125,-0.06109364338815212,0.002001731743849814,0.0013226634385064243
1761509290664395500,0.6353955078125,-0.049423079338669774,0.004198894728254527,0.0011432608841452747
1761509290684553700,0.6555537109375,-0.062443304431438446,0.007853042454784735,0.0008005483936984092
1761509290704711700,0.675711669921875,-0.0705272421658039,0.0022557795701548455,-0.002429556101327762
1761509290724870700,0.69587060546875,-0.0706798023790121,0.0015827939457260071,0.009667763726552947
1761509290745028600,0.716028564453125,-0.06394669473171234,0.011209056618111208,0.0023388730100356043
1761509290765186600,0.7361865234375,-0.07487608502507209,0.005110237419512122,-0.004701766216475516
1761509290785344500,0.756344482421875,-0.04584755893945694,-0.0007160210485570132,-0.0023166977108456193
1761509290805502700,0.776502685546875,-0.060954527178406714,-0.008717504663858563,0.0007267068393528462
1761509290825661700,0.79666162109375,-0.067390113183856,0.006757365305721759,0.0069211227663792665
1761509290845819400,0.8168193359375,-0.06470072796940803,0.0021274222164414823,0.003850711478246376
1761509290865977600,0.8369775390625,-0.05243161350488663,0.001234994288207963,0.006827827592892572
1761509290886135600,0.857135498046875,-0.07697334956526755,0.001990662360563874,-0.0021664755851961673
1761509290906293500,0.87729345703125,-0.06724748984277248,0.0013304540193174034,0.008960437441105022
1761509290926453500,0.89745361328125,-0.060816580012440676,-0.00743259768616408,0.005728387584164738
1761509290946611700,0.91761181640625,-0.0581271947979927,-0.001662973909312859,-0.007176915025198832
1761509290966769700,0.937769775390625,-0.0718956079095602,-0.002869417956471443,-0.004573226199671626
1761509290986927600,0.957927734375,-0.08925649255514144,-0.007754888443090021,0.00924509960138239
1761509291007085600,0.97808544921875,-0.06053133333027363,-0.001603316143946722,-0.005767130425665528
1761509291027244500,0.99824462890625,-0.047666591060161585,0.0019198438803665339,0.0046710422846488655
1761509291047402500,1.018402587890625,-0.056201195171475406,-0.014635533068608491,0.0036906438120175153
1761509291067560700,1.038560791015625,-0.05769464859962463,-0.0161378182571847,-0.010282379360403864
1761509291087718400,1.058718505859375,-0.06951251216530799,-0.005661331963632255,-0.002015111815230921
1761509291107876600,1.078876708984375,-0.056791562280058855,-0.0015441515689250081,0.0009711191876325756
1761509291128035600,1.09903564453125,-0.07444646143615245,-0.008801593617582693,0.013676241316087544
1761509291148193500,1.119193603515625,-0.07803542583882808,-0.0009121281425468623,0.007459942350815981
1761509291168351700,1.139351806640625,-0.06322188758850097,-0.0020670794644858685,0.011666061404300853
1761509291188509700,1.159509765625,-0.04900339262187481,-0.00044976219465024767,0.00721355724115856
1761509291208667400,1.17966748046875,-0.06082359427511692,0.0016645448118913918,0.007254090180946513
1761509291228826600,1.19982666015625,-0.05618190594911575,-0.0021343177481088784,-0.00583719085403718
1761509291248984600,1.219984619140625,-0.06455810462832451,-0.0052747346656862645,-0.00450149440402165
1761509291269142500,1.240142578125,-0.0662052873134613,0.006272385667217895,-0.009734152626805007
1761509291289300700,1.26030078125,-0.05154138666689396,-0.0035357820438686755,-0.00834746577506885
1761509291309458400,1.28045849609375,-0.053335284346342084,-0.0009332987947389483,0.007309227034822106
1761509291329617400,1.300617431640625,-0.06021627603173255,-0.0021393592494074252,-0.005700303133996203
1761509291349775600,1.320775634765625,-0.05991524725854396,0.010264734105858951,0.004433543734345585
1761509291369933600,1.34093359375,-0.05722410847842693,-0.005642362401681021,-0.0055732426882255815
1761509291390091800,1.361091796875,-0.062307695353031156,0.0010598751833196729,-0.007411801493307575
1761509291410249500,1.38124951171875,-0.04838672202825546,-0.012009011356765404,-0.007758578237518667
1761509291430407400,1.401407470703125,-0.06140402451157569,0.000047611134545877574,0.0016448171981144695
1761509291450566700,1.421566650390625,-0.07023381217718123,0.003607915698317811,0.008588023932138457
1761509291470724600,1.441724609375,-0.06619184330999851,0.006447605236805975,0.012142391945468262
1761509291490882600,1.461882568359375,-0.06484685844182968,0.0009349610288627445,0.008453629563283174
1761509291511040800,1.482040771484375,-0.04688917694687843,0.005642408067453653,0.0036217341611161826
1761509291531198500,1.502198486328125,-0.053773091241717336,-0.009315096097672358,0.010555935604777187
1761509291551357400,1.522357421875,-0.07187573416531086,0.0003882686652243137,-0.00032090251743793486
1761509291571515600,1.542515625,-0.054365211915969845,-0.001656863828934729,0.010134723651176318
1761509291591673600,1.562673583984375,-0.06304536197781563,0.0017260109418537467,0.0019727613776922225
1761509291611831600,1.58283154296875,-0.05810615200996399,0.0023555227507371453,0.004882173417834565
1761509291631989500,1.602989501953125,-0.056010056513547894,0.002135806452296674,0.00046435697558335956
1761509291652148500,1.6231484375,-0.08010171071887016,-0.0005586385297589003,0.002879720154777169
1761509291672306400,1.643306396484375,-0.05900514667630195,0.001968267865665257,-0.013136362285725772
1761509291692464600,1.663464599609375,-0.06319499958157539,0.003426101991161704,0.0010370879627764225
1761509291712622600,1.68362255859375,-0.06065525197088718,-0.0010268679628614335,-0.0033672296770848333
1761509291732780800,1.70378076171875,-0.054524786391854284,0.00721616019019857,-0.0016008775916881858
1761509291752939800,1.723939697265625,-0.05916647471785545,0.009102101800963281,-0.006690967272315174
1761509291773097500,1.744097412109375,-0.0573737460821867,-0.000588650075532496,0.009089644178189337
1761509291793255700,1.764255615234375,-0.050045010629296297,-0.0018501213787123559,-0.0023600710616912693
1761509291813413600,1.78441357421875,-0.06396423038840293,-0.002706135419849306,0.006712923375796527
1761509291833571600,1.804571533203125,-0.04541384369730949,0.0051413266775198274,0.00481867972756736
1761509291853729500,1.8247294921875,-0.06172784963846206,-0.005106575024547055,0.00019634455600753425
1761509291873888500,1.844888427734375,-0.059632923185825346,0.004006057303585112,0.0021741109023801983
1761509291894046500,1.86504638671875,-0.06352642349302769,-0.006287756766285747,0.000766225998988375
1761509291914204700,1.88520458984375,-0.07101239533424376,0.0034532913921866562,0.0029054847836960107
1761509291934361600,1.905361572265625,-0.07011807684302329,0.0010083824581000953,-0.0021287282575387506
1761509291954519800,1.925519775390625,-0.0596434445798397,-0.00029290939881466326,-0.004618608844513073
1761509291974678800,1.9456787109375,-0.06248480548560619,0.0018319098685868084,-0.00298679725844413
1761509291994836700,1.965836669921875,-0.043779520493745804,0.006255087472544983,-0.0005847319522406906
1761509292014995000,1.985994873046875,-0.060687400674819945,0.004789417100464925,-0.003728993927873671
1761509292035153000,2.00615283203125,-0.06412789651751517,-0.00024046682552434503,0.00021400807686150074
1761509292055310800,2.026310791015625,-0.0656254415988922,0.006702858639508485,-0.00793496685088612
1761509292075469800,2.0464697265625,-0.052910921454429626,0.003319317148439586,-0.0011883512680418789
1761509292095627800,2.066627685546875,-0.06667758100032806,-0.0030188911634497343,-0.0015339498353190719
1761509292115785700,2.08678564453125,-0.05799743093848228,0.0017518669023178517,0.004478917246032506
1761509292135944000,2.10694384765625,-0.06682604956030845,0.002562069040350616,-0.007017477546632289
1761509292156101600,2.1271015625,-0.07326046652197837,-0.0005158040350303054,-0.006676253760373219
1761509292176259800,2.147259765625,-0.06128828917741775,6.119213532656431e-7,-0.007478044263087212
1761509292196418800,2.167418701171875,-0.06398644222021102,-0.004009034711960703,0.0019080895104911177
1761509292216576800,2.18757666015625,-0.07072130343317985,-0.0036204829189460724,-0.005171292557520792
1761509292236735000,2.20773486328125,-0.061142158704996105,0.0008428257660008967,-0.00020448219669051468
1761509292256892700,2.227892578125,-0.05695172127783298,0.0033124764156993477,0.0037978305135387925
1761509292277050600,2.248050537109375,-0.06279109495580196,-0.0013927786658052355,0.0016079649196006356
1761509292297209900,2.2682099609375,-0.06548398730158805,0.003812279163999483,-0.0038966969112865625
1761509292317367800,2.288367919921875,-0.05740180313289165,0.0008880166145972907,-0.00041433468824252485
1761509292337525800,2.30852587890625,-0.05829436805844307,-0.0013820563423912972,-0.005738269657362252
1761509292357684000,2.32868408203125,-0.07385784789323806,0.006867328486219048,0.005357928570266813
1761509292377841700,2.348841552734375,-0.05515490098893642,-0.0004543105056043714,0.008909976762346923
1761509292397999900,2.368999755859375,-0.05171498966813087,-0.004323580553848296,-0.0037235505677759646
1761509292418158800,2.389158935546875,-0.06592880845963954,-0.008054784705117344,-0.004124130725301802
1761509292438316800,2.40931689453125,-0.05470423461198806,0.00008161386884748935,-0.0037775366441812363
1761509292458474800,2.429474853515625,-0.06936988882422447,-0.0009721603672485798,-0.0003705777449067682
1761509292478632700,2.4496328125,-0.08208908514380454,0.0007264602441806345,0.005384031125903129
1761509292498790700,2.469790771484375,-0.06069149232804775,-0.0027474812103901055,-0.012398860057722776
1761509292518949600,2.48994970703125,-0.06877192293107509,0.008621770938113331,-0.005522188354423269
1761509292539107800,2.51010791015625,-0.057252165529131885,-0.002469385788217187,0.0023980923839844763
1761509292559265800,2.530265869140625,-0.07416413736343383,0.0015275474939960986,-0.0076562595073599365
1761509292579424000,2.550424072265625,-0.053667292779684066,-0.003024891645973548,-0.004579646807303652
1761509292599581700,2.570581787109375,-0.06294482421278953,0.005261482458468527,-0.007204999475367367
1761509292619739600,2.59073974609375,-0.056660629376769064,-0.0014409651890862733,-0.000534764463827014
1761509292639899000,2.61089892578125,-0.054418987929821014,-0.003161386640369892,-0.01717700684550218
1761509292660056800,2.631056884765625,-0.06130056413710117,-0.007143094953987747,-0.0014646017930004746
1761509292680214800,2.65121484375,-0.062197805237770076,0.004523340909648686,-0.005881294857244939
1761509292700372700,2.671372802734375,-0.07102642385959625,0.006479005022067576,0.00401019462258555
1761509292720530700,2.69153076171875,-0.05950374384820461,-0.005496688586985692,0.0033210433146450666
1761509292740689700,2.711689697265625,-0.039897710624337196,-0.0005666665725875646,-0.002495862803189084
1761509292760848000,2.731847900390625,-0.05276420646011829,-0.0012995656907092779,0.0014465820791199802
1761509292781005800,2.752005859375,-0.07550912223160267,-0.0007955708244815468,0.007652542313467711
1761509292801164000,2.7721640625,-0.06743219875991344,-0.0029956564183346926,-0.009108513275440782
1761509292821321700,2.79232177734375,-0.06383855818212032,0.000021883038245141504,-0.005413485549250617
1761509292841479700,2.812479736328125,-0.06668225717544556,-0.0015944661172106861,0.007866367727238685
1761509292861639000,2.832638916015625,-0.0681833093881607,-0.003454524368047714,-0.0001853665042668581
1761509292881796900,2.852796875,-0.060552376118302345,0.0007827570086810738,-0.004606945806182921
1761509292901954800,2.872954833984375,-0.06294423969089985,-0.002522495081787929,-0.0038539720144122836
1761509292922112800,2.89311279296875,-0.05770341642796993,-0.006448956943675875,-0.0047495874135755
1761509292942270700,2.913270751953125,-0.06578501607477664,-0.008207491048797965,-0.006938612757297232
1761509292962428700,2.9334287109375,-0.06069499945938587,0.003700270156888291,0.005600541687104851
1761509292982587600,2.953587646484375,-0.07086977199316025,-0.006698209863854572,-0.00786219387562014
1761509293002745600,2.97374560546875,-0.06428279481828213,0.008419891690462826,-0.004313123091915622
1761509293022903800,2.99390380859375,-0.06518178948462008,-0.006413812565058469,-0.003786277073062956
1761509293043061800,3.014061767578125,-0.06443301694393158,-0.0006920191184617579,-0.008860301534878089
1761509293063219700,3.0342197265625,-0.06024433308243751,-0.003324395182356238,-0.003019192557549104
1761509293083378400,3.05437841796875,-0.06787526635229588,0.008190028457343578,-0.0041461233614012594
1761509293103536600,3.07453662109375,-0.054255321800708765,-0.0021819288826547562,0.00237644680775702
1761509293123694600,3.094694580078125,-0.05994038169980049,-0.004598990828590467,-0.0050966472855769095
1761509293143852800,3.114852783203125,-0.06607318536639213,-0.0029961770081426945,-0.005880335876019671
1761509293164010800,3.1350107421875,-0.06217910053730011,0.00010469335033558309,-0.008908195797214285
1761509293184168700,3.155168701171875,-0.053799394726753234,0.005628406941564753,-0.004299660822143778
1761509293204327700,3.17532763671875,-0.05619008925557136,0.005357755040330812,-0.0016669924973044543
1761509293224485600,3.195485595703125,-0.06546820521056651,0.001824502880265936,-0.008152920450503006
1761509293244643600,3.2156435546875,-0.05694003084003925,-0.0021979210362304,-0.00016936521753668784
1761509293264801800,3.2358017578125,-0.0738520026743412,0.0023383889528457076,-0.009029949880205093
1761509293284959500,3.25595947265625,-0.06487433097064495,0.0027302652141079306,-0.004264836103934794
1761509293305117700,3.27611767578125,-0.060385202857851976,0.007826793768675998,-0.004261420304141938
1761509293325276700,3.296276611328125,-0.05484510438740253,0.0005145619260147214,-0.007345467391982674
1761509293345434600,3.3164345703125,-0.0714507867515087,0.008353374926047399,-0.0038638997533824294
1761509293365592800,3.3365927734375,-0.06771218474507332,0.005751613196125254,-0.00563648065016605
1761509293385750800,3.356750732421875,-0.06023147360086441,-0.007968458128534257,-0.005288023405522107
1761509293405908500,3.376908447265625,-0.060230304557085036,0.0022400614112149924,-0.005848123240005224
1761509293426067700,3.397067626953125,-0.05020575414896011,-0.0073903020475525405,-0.004834635348524898
1761509293446225700,3.4172255859375,-0.056042789739370345,-0.0023205610352102666,-0.006382211850397289
1761509293466383600,3.437383544921875,-0.05709434461891651,0.005558574842056259,-0.0023055095965508372
1761509293486541800,3.457541748046875,-0.06427694959938526,0.00701427180939354,0.0000026029490400105715
1761509293506699500,3.477699462890625,-0.06996142497658729,-0.004684285358712077,-0.004422410418977961
1761509293526857700,3.497857666015625,-0.06771393831074238,-0.001223943171231076,-0.013851424353057518
1761509293547016700,3.5180166015625,-0.07115852580666542,0.005029043675772845,0.000989248499367386
1761509293567174700,3.538174560546875,-0.06188683959245681,-0.007350874219462275,-0.010892209221282973
1761509293587332600,3.55833251953125,-0.06397942795753479,0.009370580011419952,-0.010443680002493783
1761509293607490800,3.57849072265625,-0.054853287693858145,-0.0015605729807633905,-0.0015713044373318551
1761509293627648500,3.5986484375,-0.05993862813413143,-0.0004367109168320894,-0.00024557225890457627
1761509293647806700,3.618806640625,-0.054553427964448925,-0.006746880444325506,-0.011040312455082312
1761509293667965700,3.638965576171875,-0.06218202314674854,-0.004411660696100443,-0.010801672260463238
1761509293688123600,3.65912353515625,-0.05634674112200737,-0.00422332591661252,-0.005332721063774078
1761509293708281900,3.67928173828125,-0.05559621501564979,-0.00038960210578516124,-0.012087145493738353
1761509293728439600,3.699439453125,-0.06397533630430698,0.00006094554015435278,-0.00495943990512751
1761509293748597500,3.719597412109375,-0.05439969870746136,-0.001551293695764616,-0.0016346976628992705
1761509293768755700,3.739755615234375,-0.06293138020932675,-0.004115390296420082,-0.006062323113111779
1761509293788914700,3.759914794921875,-0.04841244099140167,-0.004869825392914935,-0.007016893024742603
1761509293809072600,3.78007275390625,-0.06935995195209979,0.0003158701492939144,0.0005353307194076478
1761509293829230800,3.80023095703125,-0.06906301483213902,0.010576302539370953,-0.006108546008169651
1761509293849388500,3.820388427734375,-0.051557168757915495,0.0019949458100367336,-0.0005901296465657651
1761509293869546800,3.840546630859375,-0.06008709669411182,0.005116922888625413,-0.007857837360911071
1761509293889704700,3.86070458984375,-0.06756605427265167,0.0009433726641815155,-0.0017910116026178002
1761509293909863700,3.88086376953125,-0.06831658037900924,0.008764494743896649,-0.005624169157864525
1761509293930021600,3.901021728515625,-0.060387540945410725,0.002088798105949536,-0.007173846285277977
1761509293950179600,3.9211796875,-0.06323182446062564,-0.001320581079274416,-0.0048004682174418115
1761509293970337500,3.941337646484375,-0.060088850259780884,0.0035548064047470685,-0.00866484289485961
1761509293990495700,3.961495849609375,-0.07445230665504932,-0.00578655664534308,-0.0009896503581665456
1761509294010653400,3.9816533203125,-0.07086100416481494,0.001333084367820993,-0.002388438639650121
1761509294030812400,4.0018125,-0.06293079568743705,0.0008533654263243079,-0.0032590474617201835
1761509294050967800,4.0219677734375,-0.06382862130999564,-0.003831385723268613,-0.009618645621510222
1761509294071125500,4.04212548828125,-0.05409983897805214,-0.005788447208330035,-0.007937907726643607
1761509294091283500,4.062283447265625,-0.06442483363747596,0.003769937859615311,0.0004156041967216879
1761509294111442700,4.082442626953125,-0.06262684430480003,-0.0011567414202261715,-0.006906875045318156
1761509294131600600,4.1026005859375,-0.05783727194070816,-0.001372813590010628,-0.009347107804287224
1761509294151758600,4.122758544921875,-0.062174424362182616,0.003989836821146309,-0.008478663539839908
1761509294171916500,4.14291650390625,-0.06411503703594207,0.0031471937182359394,-0.000567817350057885
1761509294192074500,4.163074462890625,-0.060820087143778796,0.007053206447139382,-0.003034645855007693
1761509294212232700,4.183232666015625,-0.06560732142031192,-0.004988665999611839,-0.010684676550980658
1761509294232391700,4.2033916015625,-0.06276596051454544,0.008358270296873525,-0.0011627693022135644
1761509294252549600,4.223549560546875,-0.05648410376608371,-0.002980056990403682,-0.009951339041441678
1761509294272707600,4.24370751953125,-0.072945993745327,0.0017000545166898518,-0.008941897137416527
1761509294292865500,4.263865478515625,-0.06412029773294925,-0.011377481120731682,-0.013584206517925485
1761509294313023500,4.2840234375,-0.06980594215393066,0.005209167749341577,-0.00497496626782231
1761509294333181700,4.304181640625,-0.05723462987244129,-0.0009371164533309638,-0.0027886260715313253
1761509294353340700,4.324340576171875,-0.0635211627960205,0.0052982616717461494,-0.00009066482498310506
1761509294373498600,4.34449853515625,-0.05618892021179199,0.0012514978984370826,-0.005636261454457417
1761509294393656600,4.364656494140625,-0.06591419541239738,0.0001581131711602211,-0.009877817147504537
1761509294413814500,4.384814453125,-0.06112462304830551,0.008683976853592321,-0.005678639291459694
1761509294433972500,4.404972412109375,-0.05394143354594707,-0.0012574435820337385,-0.002721369521599263
1761509294454130700,4.425130615234375,-0.05513678081035614,0.0007720529515761881,0.0011154504286125303
1761509294474288600,4.44528857421875,-0.061571197772026055,0.00570098812058568,-0.005065941620059311
1761509294494447400,4.465447265625,-0.05947627131938934,0.005470284637250006,0.0011861501778010278
1761509294514605600,4.48560546875,-0.05872983686625957,0.004874291505478323,-0.004044434818904846
1761509294534763500,4.505763427734375,-0.0677086776137352,-0.0029709695016499607,-0.006535475316504016
1761509294554921700,4.525921630859375,-0.05917933419942856,-0.004503686361107975,0.0029878841038327663
1761509294575079700,4.54607958984375,-0.061871057501435275,0.001150850535556674,-0.010869814726384356
1761509294595237400,4.5662373046875,-0.05917816515564918,0.002333429649937898,-0.0042167957111261785
1761509294615396600,4.586396728515625,-0.06650923869609833,0.004869268270488828,0.0008656951849348842
1761509294635554600,4.606554443359375,-0.053342298609018325,-0.002353568255668506,0.00763849552180618
1761509294655712500,4.62671240234375,-0.07204466099143028,-0.009254214489599689,0.0018249504048377275
1761509294675870700,4.64687060546875,-0.06336684901714325,0.003184146461449563,0.00006075374390929937
1761509294696028400,4.6670283203125,-0.07877835316061974,-0.002145661126030609,0.0006941288771573454
1761509294716186600,4.6871865234375,-0.06396364586651325,-0.0015667378600686787,-0.010444803380500524
1761509294736344600,4.707344482421875,-0.057979310759901995,0.006450710509344935,-0.0012339622417464851
1761509294756503600,4.727503662109375,-0.05962649344503879,-0.0009063651220407337,-0.0015960004871711133
1761509294776661800,4.747661865234375,-0.05154723188579082,0.009082976975385099,-0.0021958660764619707
1761509294796819700,4.76781982421875,-0.06740589527487754,-0.0036155144828837363,-0.005822614339413121
1761509294816977400,4.787977294921875,-0.062464931741356845,0.0035420656541828065,-0.0057446719986852255
1761509294837135600,4.808135498046875,-0.06800327664613723,-0.004938351451326161,-0.004327042019413784
1761509294857293600,4.82829345703125,-0.05902735850811004,0.004247254781471565,-0.003968921897280961
1761509294877452500,4.84845263671875,-0.06980009693503379,-0.0020003161048982292,-0.007080048788292333
1761509294897610800,4.86861083984375,-0.06171674372255802,0.007334407141851261,-0.0059647901559248566
1761509294917768400,4.8887685546875,-0.04570785820782184,-0.001985894853901118,-0.00710109157632105
1761509294937926700,4.9089267578125,-0.05588496882915497,0.0031814339145552367,-0.013266756332898512
1761509294958084400,4.92908447265625,-0.05348901360332965,-0.0024434110967442393,-0.002451859264681116
1761509294978242300,4.9492421875,-0.06096914022564888,-0.004272745415754616,-0.011384467983944341
1761509294998400500,4.969400390625,-0.059624155357480044,0.0018628529961220918,0.0034385139481630175
1761509295018559500,4.9895595703125,-0.06231704770326614,0.001722860003542155,-0.006474803770985454
1761509295038717400,5.009717529296875,-0.06770517048239708,-0.00045547954938374456,-0.012831826381199061
1761509295058875400,5.02987548828125,-0.06980185050070285,0.006386659696651622,0.0003384929730556905
1761509295079033300,5.050033447265625,-0.06231938579082489,-0.0010867814565543085,-0.0013283259943127632
1761509295099191600,5.070191650390625,-0.06531389143168925,0.006553677693475038,0.00009195259977132081
1761509295119349500,5.090349609375,-0.062174424362182616,0.0004777918458916247,-0.008478289080504327
1761509295139507500,5.110507568359375,-0.05484510438740253,-0.006513382215704768,-0.013341766931023447
1761509295159666200,5.130666259765625,-0.058140638801455494,0.00443475844389759,0.00413613169034943
1761509295179824400,5.150824462890625,-0.05380465542376041,0.0011319266393780708,-0.0011093951471615581
1761509295199982300,5.170982421875,-0.06024199499487876,0.000536992953531444,0.0004007080216892063
1761509295220140500,5.191140625,-0.06891863792538643,0.0019712087414227425,-0.009458925015153363
1761509295240298500,5.211298583984375,-0.04781915127336979,-0.0006199219966307282,-0.008270811209129168
1761509295260456400,5.23145654296875,-0.061436757737398144,-0.005116749358689412,-0.002957004908379167
1761509295280614400,5.251614501953125,-0.06413198817074299,0.006680592008773237,-0.0008449629241600632
1761509295300773400,5.2717734375,-0.05874737252295017,-0.0040122221828904,-0.0058584619709290565
1761509295320931300,5.291931396484375,-0.07191665069758892,0.001525282471673563,-0.010346758966660126
1761509295341089500,5.312089599609375,-0.060845221585035324,0.001904217052971944,-0.0009368241923861205
1761509295361247200,5.332247314453125,-0.06204290693700313,-0.0058204041160177435,0.004307442269800231
1761509295381405400,5.352405517578125,-0.07042261274755,-0.0017341303162276744,-0.002870742263877764
1761509295401563400,5.3725634765625,-0.05770516999363899,-0.00278636104920879,0.0022970157628413286
1761509295421721300,5.392721435546875,-0.04932897131443023,0.006860414688242599,0.0027419556519016623
1761509295441880600,5.412880615234375,-0.05756020856499672,-0.009302866803761571,-0.004398856013454497
1761509295462038500,5.43303857421875,-0.060407999211549754,0.015819801816577092,-0.009136880853399634
1761509295482196200,5.4531962890625,-0.06145546243786811,-0.012509316428564489,-0.0020067549788393077
1761509295502354400,5.4733544921875,-0.06983341468274593,-0.003557400220632553,0.005535888086212798
1761509295522512400,5.493512451171875,-0.06833820768892765,0.0001831745471805334,-0.006603800445515662
1761509295542670600,5.513670654296875,-0.05457213266491889,0.0031600349334999916,-0.011360137260286137
1761509295562828300,5.533828369140625,-0.06938333282768726,-0.0071125719515606756,-0.00411527156541124
1761509295582987300,5.5539873046875,-0.06489069758355617,-0.0008575940768700092,0.005139591378159821
1761509295603145500,5.5741455078125,-0.06339256798028946,0.0023995445555541665,0.0007135916294530034
1761509295623303400,5.594303466796875,-0.06519055731296539,0.005103926409734413,-0.0024315745284780857
1761509295643461400,5.61446142578125,-0.046935938698053355,-0.002997738777566701,-0.006352373834559694
1761509295663619600,5.63461962890625,-0.06384148079156875,-0.008944847146328538,-0.0010674648347310722
1761509295683777300,5.65477734375,-0.0644406157284975,-0.0006093184042256325,-0.0025000275216531006
1761509295703935500,5.674935546875,-0.06773322753310203,-0.005381172448536381,0.0010256806527730077
1761509295724094500,5.695094482421875,-0.05755787047743797,-0.008498829545034095,0.006556554637150838
1761509295744252400,5.71525244140625,-0.055313306421041486,-0.004350212832447141,-0.007739334680931642
1761509295764410400,5.735410400390625,-0.06907938144505024,0.011184241837263107,-0.0009567344692535698
1761509295784568300,5.755568359375,-0.06369359675347805,0.0009201196527574211,-0.010018111534183844
1761509295804726300,5.775726318359375,-0.058458618709445,0.003345894628111273,-0.0037229569127317516
1761509295824884500,5.795884521484375,-0.04873392803072929,-0.0018179635416250674,0.001505043401243165
1761509295845042400,5.81604248046875,-0.05756196213066578,0.0014001399883534758,0.0010965356655884533
1761509295865200600,5.83620068359375,-0.07222936990857123,-0.0006776161337736994,-0.006223459358420223
1761509295885359600,5.856359619140625,-0.06220481950044632,-0.0035799043133854865,-0.0031183786157052964
1761509295905517300,5.876517333984375,-0.0640004707455635,-0.007480144888628274,-0.0001228500615339726
1761509295925675500,5.896675537109375,-0.06399988622367382,0.003974538787314668,0.004948306589759886
1761509295945834500,5.91683447265625,-0.05666705911755562,-0.008952984787011519,-0.003387076021870598
1761509295965992200,5.9369921875,-0.05427227293550968,0.0038709596818313,-0.00109701972277835
1761509295986150100,5.957150146484375,-0.06489478923678398,0.006720604358753189,-0.0007136464283801615
1761509296006308400,5.977308349609375,-0.0512777672946453,-0.0030286819051019848,0.010494067616015672
1761509296026467300,5.99746728515625,-0.06174596981704235,-0.0027393344365525987,-0.012128381686424836
1761509296046625300,6.017625244140625,-0.06683131025731563,0.0011971464958507568,-0.005138285337062553
1761509296066783200,6.037783203125,-0.05410802228450775,-0.0004359619981609285,-0.006366265362594276
1761509296086941200,6.057941162109375,-0.06039163259863853,0.0006393116836901754,-0.007729543939279392
1761509296107099400,6.078099365234375,-0.0656301177740097,0.004456276155961677,-0.0020629512786399574
1761509296127257300,6.09825732421875,-0.07206628830134869,-0.002720209610974416,-0.003505405171914026
1761509296147415300,6.118415283203125,-0.06458616167902946,0.0015701171272434293,-0.0010059804384596645
1761509296167573200,6.1385732421875,-0.062189621931314464,0.004253912851121276,-0.004114230385795235
1761509296187732200,6.158732177734375,-0.06652969696223736,-0.0038830154458060857,-0.0006818995832465588
1761509296207890200,6.17889013671875,-0.05111585473120212,0.00331124343983829,-0.009006386341527103
1761509296228048400,6.19904833984375,-0.06862228532731533,0.010425249296659602,0.0030618169897235928
1761509296248206300,6.219206298828125,-0.06862286984920501,-0.0008676588131580501,0.0016659604508429764
1761509296268364300,6.2393642578125,-0.05814648402035236,-0.0004026442504487931,-0.0030040406541898845
1761509296288522200,6.259522216796875,-0.07670096236467361,0.00013602007036097347,-0.0037513792896177616
1761509296308680200,6.27968017578125,-0.06009469547867775,-0.003375093323132023,0.004858619012311101
1761509296328838400,6.29983837890625,-0.06458207002580166,0.0008254727724008262,-0.0076668539666105056
1761509296348997400,6.319997314453125,-0.06113631348609924,-0.004844636152731254,-0.0010517466757912189
1761509296369155300,6.3401552734375,-0.048565585726499556,0.003981342987436801,0.004510791955329477
1761509296389313300,6.360313232421875,-0.06667115125954151,0.004064326829463243,-0.0055544466562103476
1761509296409471200,6.38047119140625,-0.04916413614153862,-0.0063007715114858,-0.012829515693103893
1761509296429629400,6.40062939453125,-0.06697042646706104,0.001814173282496631,-0.004057458697259426
1761509296449787400,6.420787353515625,-0.05694762962460517,0.005148450538050383,-0.0001916227151174098
1761509296469945000,6.440945068359375,-0.06323065541684628,0.0003107738490682095,-0.0024027320264838636
1761509296490103300,6.461103271484375,-0.055896659266948694,0.004207616890827193,-0.005131882995739579
1761509296510261200,6.48126123046875,-0.0612818594366312,0.001145105781359598,-0.004198291940055787
1761509296530420200,6.501420166015625,-0.05948620819151401,0.0009960344331804661,0.00042538580521941184
1761509296550578400,6.521578369140625,-0.06083177758157253,0.0010160908405203372,0.004046234050346538
1761509296570736400,6.541736328125,-0.06876140153706073,0.004451517782453447,-0.000937974969856441
1761509296590894300,6.561894287109375,-0.05245148724913597,-0.003689164240984246,-0.005391036255424842
1761509296611052300,6.58205224609375,-0.06113280635476112,0.002935423264233395,-0.0038421719787642356
1761509296631210200,6.602210205078125,-0.07624737337827682,-0.004323260893439874,-0.0017255908167455344
1761509296651368400,6.622368408203125,-0.06113397539854049,-0.008202230351790785,0.010006567226862535
1761509296671526100,6.642526123046875,-0.06517652878761292,0.0036443387185689058,0.0060688807180617
1761509296691685000,6.66268505859375,-0.0627852497369051,0.0006933890916407107,-0.0008446341305971145
1761509296711843300,6.68284326171875,-0.06323591611385346,0.003137868767464533,-0.0002862695954740047
1761509296732001300,6.703001220703125,-0.06517886687517166,0.00354681489453651,0.0008805822268128394
1761509296752159200,6.7231591796875,-0.06802198134660721,-0.001833636034792289,-0.0007887118254322558
1761509296772317400,6.7433173828125,-0.05934416937232017,-0.006062103917403147,-0.00024058555653318762
1761509296792475100,6.76347509765625,-0.06802431943416595,0.0011469598117284476,-0.007992085599293932
1761509296812633300,6.78363330078125,-0.05560498284399509,0.00047043965649791057,-0.0020261629322078077
1761509296832791300,6.803791259765625,-0.06069324589371681,0.0054462005087640136,-0.0004183350099250674
1761509296852949500,6.823949462890625,-0.06293722542822361,-0.002985801744600758,0.0013879289607517421
1761509296873108500,6.8441083984375,-0.06518295852839946,0.005973009994998574,0.0018460023260209709
1761509296893266200,6.86426611328125,-0.048125440743565555,-0.0003648877896368503,0.0071886511287651954
1761509296913424100,6.884424072265625,-0.06189093124568462,-0.0043465595706366,-0.004872081282082945
1761509296933582800,6.904582763671875,-0.06308803207576275,0.0017192889401223509,-0.00551500056181103
1761509296953740500,6.924740478515625,-0.07057049678564072,-0.002893109359312802,0.011177054044650867
1761509296973898800,6.944898681640625,-0.04947042561173439,-0.003169177221180871,-0.004081140966946259
1761509296994056700,6.965056640625,-0.07026712992489338,-0.0011437175418715923,0.0024228614990599454
1761509297014214700,6.985214599609375,-0.05575520496964454,-0.0032981556294020263,0.0009991579720284788
1761509297034374000,7.005373779296875,-0.06607786154150963,0.00801753056780435,0.0019065003416035323
1761509297054531600,7.025531494140625,-0.07370996385514736,-0.001390130050992593,-0.008204778501903638
1761509297074689500,7.045689453125,-0.05485562578141689,0.0018438469015527516,0.0041316747109405695
1761509297094847700,7.06584765625,-0.05335924974381923,0.00253060532300733,0.0003917940628714859
1761509297115005700,7.086005615234375,-0.05994388883113861,-0.005192956400057301,-0.00446561023988761
1761509297135164000,7.106163818359375,-0.05306055905818939,0.0011304105357266962,0.000653769467305392
1761509297155321600,7.126321533203125,-0.05859831944108009,0.0012338343775831163,-0.011658252557180821
1761509297175479600,7.1464794921875,-0.0562058713465929,-0.0020392507426440715,0.0024729477184824646
1761509297195637800,7.1666376953125,-0.05650514655411243,-0.0012137323044706136,-0.0041438126733060925
1761509297215795700,7.186795654296875,-0.0524631776869297,0.00316697613094002,0.005841136376792564
1761509297235954700,7.20695458984375,-0.07640344072282314,-0.002384575315285474,0.003071534666139632
1761509297256112600,7.227112548828125,-0.06802431943416595,0.003166793467849493,0.00019004267938435077
1761509297276270600,7.2472705078125,-0.054261167019605636,0.002081692511728033,-0.0025642883969005195
1761509297296428800,7.2674287109375,-0.06473521476089954,-0.001280623528221622,-0.002864723515044898
1761509297316586800,7.287586669921875,-0.06518062044084072,-0.006694675333052873,-0.005664492035098373
1761509297336744700,7.30774462890625,-0.06009411095678806,0.002987591842887923,0.004733777923090383
1761509297356902700,7.327902587890625,-0.0699701928049326,0.006632168023474514,-0.007479870893992483
1761509297377060600,7.348060546875,-0.06248597452938556,0.002286978426016867,-0.007350572825362905
1761509297397218800,7.36821875,-0.05739829600155353,-0.007251386767206713,-0.007902781614335254
1761509297417377800,7.388377685546875,-0.06218436123430728,-0.0020025537277571855,-0.004131857374031096
1761509297437535700,7.40853564453125,-0.0723573802024126,0.0006027425329666584,-0.009574130626348779
1761509297457693700,7.428693603515625,-0.06158347273170948,-0.002729498029127717,0.0035975587010849265
1761509297477851600,7.4488515625,-0.05484861151874065,0.0013016754494048655,0.00747860138551332
1761509297498009600,7.469009521484375,-0.06442483363747596,0.00348170463591814,-0.009403450234560295
1761509297518167800,7.489167724609375,-0.05395137041807174,-0.002811449824692681,-0.00089395316503942
1761509297538325800,7.50932568359375,-0.06352993062436581,0.006748268683813512,0.00722132042250596
1761509297558483700,7.529483642578125,-0.05545008454322815,-0.0020751166404690594,-0.01079608276989311
1761509297578641700,7.5496416015625,-0.06128712013363838,0.0029136406906880435,0.002835899279359728
1761509297598800600,7.569800537109375,-0.057394788870215416,0.001068935272609815,0.0015110073511488734
1761509297618958600,7.58995849609375,-0.0521580572605133,0.005544071392668411,-0.006177409993298352
1761509297639116800,7.61011669921875,-0.06443243242204189,0.00954484973293729,-0.01549568442874588
1761509297659274500,7.6302744140625,-0.04812310265600681,-0.010274634445365518,0.0039186895473860206
1761509297679432700,7.6504326171875,-0.0629331337749958,0.0009650091072544455,-0.0008786733975168317
1761509297699590700,7.670590576171875,-0.06398118152320384,-0.0017346235065720974,-0.005606268174992874
1761509297719748600,7.69074853515625,-0.06218728384375572,0.00885814611040987,-0.0003901957608293742
1761509297739906600,7.710906494140625,-0.05994330430924892,-0.0030336777406278995,-0.0015516316224820912
1761509297760064500,7.731064453125,-0.05246083959937095,0.00009640957918018102,-0.009302364480262622
1761509297780222700,7.75122265625,-0.06308627851009369,-0.004695016815280542,0.002231019588233903
1761509297800381700,7.771381591796875,-0.05081541047990322,0.004081880752462894,0.00018964082058519125
1761509297820539600,7.79153955078125,-0.05335924974381923,-0.0012955197032541036,-0.008234342523105441
1761509297840697900,7.81169775390625,-0.07131693123877048,-0.007960073892679064,0.0009894128961488605
1761509297860855600,7.83185546875,-0.05919570081233978,0.0006841463392600417,0.0014951978606637566
1761509297881013500,7.852013427734375,-0.06278641878068447,0.0065703822331037364,-0.007678416540240868
1761509297901171700,7.872171630859375,-0.06517945139706134,-0.000504743784898892,-0.0033652021167799827
1761509297921329700,7.89232958984375,-0.06338263110816478,0.0039814251858275385,-0.005915608118800446
1761509297941486800,7.91248681640625,-0.04198737637996673,0.005450730553409084,-0.003948034372879192
1761509297961644800,7.932644775390625,-0.039893618971109386,0.001655877448245883,-0.011320408038096502
1761509297981802800,7.952802734375,-0.05006897602677345,0.00010621858714148401,-0.010463992138160391
1761509298001960700,7.972960693359375,-0.06099369014501571,-0.008499249670142307,0.004397686969675124
1761509298022119700,7.99311962890625,-0.08269289625585079,0.012656478947447612,-0.007285206838417798
1761509298042278000,8.01327783203125,-0.061441433912515636,-0.018781355035910382,-0.0022929606422316283
1761509298062435800,8.033435791015625,-0.06308861659765243,0.0020899123508017507,-0.007022500781621784
1761509298082593800,8.05359375,-0.062490066182613366,-0.008453136372938751,-0.014832051154552026
1761509298102751700,8.073751708984375,-0.07072714865207672,0.006939361675968393,-0.0041610743353608995
1761509298122909700,8.09390966796875,-0.05292144284844398,-0.001136849409667775,-0.005655431945808232
1761509298143068000,8.11406787109375,-0.06175532216727733,0.007952182847168296,-0.012443932175310328
1761509298163225900,8.134225830078124,-0.05861351701021194,-0.0028596180816646663,-0.015521896582236513
1761509298183383800,8.1543837890625,-0.05442600219249725,0.00037475159652531145,-0.008282392049068584
1761509298203541800,8.174541748046876,-0.05307692567110062,0.0014682185221929103,0.003011246713111177
1761509298223700700,8.19470068359375,-0.06998480585217476,-0.002630220639426261,0.0019171678660903125
1761509298243858700,8.214858642578125,-0.06145487791597843,-0.006243954157177358,-0.008353932048473506
1761509298264017000,8.235016845703125,-0.06085632750093937,-0.003480973983556032,-0.0063484283118043095
1761509298284174600,8.255174560546875,-0.05815934350192546,0.0004835822658613324,0.001377261436264962
1761509298304332800,8.275332763671875,-0.0541144520252943,0.004968828787980601,-0.00008218012442812323
1761509298324490800,8.29549072265625,-0.07296586748957634,-0.007365816060267388,-0.004184984933910891
1761509298344649000,8.31564892578125,-0.053366848528385157,0.005223917793901637,-0.0008035532015375793
1761509298364807000,8.335806884765624,-0.05785422307550907,0.001218636808451265,-0.0017351988953072577
1761509298384964600,8.355964599609376,-0.06024608664810657,-0.0030873076240066437,-0.009578779402002692
1761509298405122800,8.376122802734375,-0.06054360828995704,-0.0004689509523101151,0.0013831523209344595
1761509298425280800,8.39628076171875,-0.06608078415095806,0.0025967476280871777,-0.0033157643513288346
1761509298445439700,8.416439697265625,-0.07356207981705665,-0.005892857430875301,-0.0012130016521085052
1761509298465599700,8.436599853515625,-0.06233925953507423,-0.0024792678614147007,-0.0011176515188533812
1761509298485758000,8.456758056640625,-0.06039513972997665,0.006527346808975562,-0.006931150970049202
1761509298505916000,8.476916015625,-0.060544777333736415,-0.0009132789200171828,-0.0019046097786165773
1761509298526075000,8.497074951171875,-0.06278875686824321,-0.0026906729892361906,0.00026263299155980345
1761509298546232600,8.517232666015625,-0.06009586452245712,-0.006202772763418033,0.002224571581138298
1761509298566390800,8.537390869140625,-0.06608136867284774,-0.0017672288682311773,0.005294042154354975
1761509298586548700,8.557548828125,-0.06308861659765243,-0.007119841942563652,0.0008006671247072517
1761509298606707000,8.57770703125,-0.06338906084895134,0.00651963842655532,0.002791439083125442
1761509298626865000,8.597864990234376,-0.06488894401788711,0.0027128574215807017,-0.003614318039640784
1761509298647022800,8.61802294921875,-0.06878185980319976,0.0004046444112900644,-0.0074291453537531195
1761509298667180800,8.638180908203125,-0.07566518957614898,-0.004690386305935681,-0.004464724323898554
1761509298687338800,8.6583388671875,-0.05950257480442524,0.005950688565336168,-0.0007510375630110502
1761509298707497000,8.6784970703125,-0.0620487521559,-0.0003852090584579855,-0.0013019311777316034
1761509298727654700,8.698654541015625,-0.06324351489841938,-0.0012633892656303942,0.006721755136223509
1761509298747813600,8.718813720703125,-0.05621054752171039,0.006598457550117746,-0.0002722867358941585
1761509298767971800,8.738971923828124,-0.0735644179046154,-0.006938959817169234,-0.002927961476985365
1761509298788129800,8.7591298828125,-0.06698153238296509,0.005238156381808221,-0.0028828345604706555
1761509298808287700,8.779287841796876,-0.05860182657241821,-0.0006979830683674663,-0.007737891642516479
1761509298828446000,8.799446044921876,-0.07072305699884891,-0.00007343056239187717,0.0022469752091914415
1761509298848603600,8.819603759765625,-0.0571077886223793,-0.005551186120044439,-0.008541335246199742
1761509298868761900,8.839761962890625,-0.05740647930800914,0.007007613739743828,-0.010731977158272638
1761509298888919800,8.859919921875,-0.05935410624444484,0.006908738208841532,0.0038133660093881186
1761509298909077800,8.880077880859375,-0.052020694616436956,-0.0028953926479443905,-0.01048909004679881
1761509298929235700,8.900235595703125,-0.0705751729607582,-0.0019067834693938493,0.0005738178325816989
1761509298949393700,8.9203935546875,-0.06982464685440062,-0.002969910055724904,0.004637185680819675
1761509298969552000,8.9405517578125,-0.051421559679508205,-0.0036078152336180207,0.002809732791641727
1761509298989710800,8.9607109375,-0.05995031857192516,0.0010620671404059975,-0.012508202183712272
1761509299009868800,8.980868896484376,-0.0723702396839857,0.002512329880800098,-0.0055226541453041135
1761509299030027000,9.001027099609376,-0.05561024354100227,0.0018472079024184494,-0.005049045284185558
1761509299050184700,9.021184814453125,-0.053961307290196416,0.0004448668238241225,-0.004855559405544773
1761509299070342700,9.0413427734375,-0.060844637063145635,-0.001418725957814604,0.0016658143203705548
1761509299090500900,9.0615009765625,-0.06099252110123634,0.001972770510846749,-0.005749823097838089
1761509299110658800,9.081658935546875,-0.0627893413901329,-0.003383578023687005,-0.0071361080907750875
1761509299130816800,9.101816650390624,-0.0524631776869297,0.0031766664078924805,-0.006841563857300207
1761509299150974700,9.121974609375,-0.06518178948462008,0.0018992303506005553,-0.011027224644646049
1761509299171133000,9.1421328125,-0.06308627851009369,-0.0034056528581771998,0.0009513915738556533
1761509299191291000,9.162290771484376,-0.05351122543513775,-0.004515376798901707,-0.00336005101762712
1761509299211448800,9.18244873046875,-0.06757599114477635,-0.0003705868780612945,-0.00428748632716015
1761509299231607600,9.202607666015625,-0.05710018983781338,-0.0006662544895429164,-0.002648286019079387
1761509299251765800,9.222765869140625,-0.06098433779478073,-0.0044717203202657395,-0.0027452070549130437
1761509299271923700,9.242923828125,-0.0656213499456644,-0.002714236527914181,0.00017934775543399154
1761509299292082000,9.26308203125,-0.060981415185332295,-0.0015137290311977266,-0.002915567786293104
1761509299312239900,9.283239990234375,-0.0686146865427494,-0.004308090723771601,-0.009120843034051359
1761509299332397800,9.303397705078124,-0.05634791016578674,-0.0030804577581118792,0.0023944482553284615
1761509299352555800,9.3235556640625,-0.06936755073666573,-0.0013885408821050077,-0.004313826344814151
1761509299372713700,9.343713623046876,-0.06203823076188564,-0.0036729346253909167,0.0018372710302937774
1761509299392872000,9.363871826171875,-0.06174012459814548,0.008287671012384817,-0.005487427568295971
1761509299413030000,9.38402978515625,-0.06144260295629501,-0.004864108038181439,-0.003956583005515858
1761509299433187800,9.404187744140625,-0.05934884554743766,0.00761530644246377,-0.009879132321756332
1761509299453345800,9.424345703125,-0.049019759234786034,0.0031821554337628185,-0.01405065498589538
1761509299473503700,9.444503662109375,-0.05739771147966385,-0.005900264419196173,-0.0023839633939322083
1761509299493662700,9.464662841796875,-0.06143734225928783,-0.004890055330190807,-0.0035034506768453866
1761509299513821000,9.484821044921874,-0.062035892674326895,0.0034130963791161773,0.00030489209755323824
1761509299533978600,9.504978515625,-0.06892039149105549,0.0018904168564826249,-0.0021643018944188953
1761509299554136800,9.52513671875,-0.06937105786800384,-0.0055187086225487285,-0.006814675850374624
1761509299574294800,9.545294677734375,-0.05111351664364338,-0.0021104802147950976,-0.0025713209258858114
1761509299594452700,9.56545263671875,-0.06966799498796462,-0.007248098831577226,-0.0038451950529124587
1761509299614611000,9.58561083984375,-0.06009060382544994,0.0010302563631907106,-0.004314273869385943
1761509299634768600,9.6057685546875,-0.05410685324072838,-0.01066346023301594,-0.009843111160304396
1761509299654926800,9.6259267578125,-0.06308394042253494,-0.0026538389770314097,-0.0021220153889618815
1761509299675084800,9.646084716796874,-0.06502981379330158,-0.005528599828900769,-0.00973990651415661
1761509299695243000,9.666242919921874,-0.06607435441017151,-0.0032241131456568835,-0.005054616508446633
1761509299715400700,9.686400634765626,-0.05904021798968315,-0.0034833942695055155,-0.006190771798370406
1761509299735558700,9.70655859375,-0.0647282004982233,-0.0019751999299507587,-0.0010365399735048414
1761509299755716900,9.726716796875,-0.08777765217423439,-0.010060973428376018,-0.01406946015106514
1761509299775875800,9.746875732421875,-0.12667992202043532,-0.0004461180659942329,0.003395277594635263
1761509299796033800,9.76703369140625,-0.08538169694840908,-0.012813697069464251,0.005721364188333973
1761509299816192000,9.78719189453125,-0.08837386450171471,-0.018049341833777724,0.000006448007095605135
1761509299836349700,9.807349609375,-0.0895721343755722,-0.011595471252966671,-0.0008714399391319602
1761509299856508000,9.8275078125,-0.06817629512548447,-0.009188793703727424,-0.005568219453236088
1761509299876665900,9.847665771484374,-0.05934884554743766,-0.004023720824439078,0.0005379428016021847
1761509299896823800,9.86782373046875,-0.055309799289703365,-0.005311422547418624,-0.00739826615829952
1761509299916981800,9.887981689453126,-0.06428571742773055,-0.0005030084855388849,-0.008669519069977105
1761509299937140200,9.90814013671875,-0.06069558398127556,-0.0029595530584920196,-0.002744257206842303
1761509299957298200,9.928298095703125,-0.0666805036097765,-0.006357890259893611,-0.011790482368413359
1761509299977456400,9.948456298828125,-0.07116904720067978,-0.004168435657909139,-0.008148235142230988
1761509299997614300,9.9686142578125,-0.07072188795506953,0.001279381419206038,-0.008022873463202268
1761509300017772300,9.988772216796875,-0.06593406915664672,-0.002854320852039382,0.001998115014657378
1761509300037930200,10.00893017578125,-0.06727963854670524,-0.007771556450100615,-0.009239656241284682
1761509300058088200,10.029088134765624,-0.05740180313289165,-0.0010676383646670729,0.004444576585013419
1761509300078247400,10.049247314453124,-0.06188859315812587,0.0029258243188261986,-0.011015844734106212
1761509300098405400,10.0694052734375,-0.06472878502011299,-0.003300338453333825,0.00027527327742427586
1761509300118563000,10.08956298828125,-0.061136898007988924,-0.009325334363896398,-0.009408857062039895
1761509300138721300,10.10972119140625,-0.06742109284400939,-0.007266456472175196,-0.0023693686129990965
1761509300158879200,10.129879150390625,-0.0651730216562748,-0.003815183507138863,-0.003979753818549215
1761509300179037400,10.150037353515625,-0.06487140836119651,0.00039915538541972635,-0.009602489071153103
1761509300199195400,10.1701953125,-0.05394260258972645,0.0035965997198596595,-0.0008982914134394377
1761509300219353000,10.19035302734375,-0.06845511206686496,-0.003872357054473832,-0.00133239024807699
1761509300239511300,10.21051123046875,-0.06486264053285122,-0.0029598179199732838,-0.004743112007016316
1761509300259669200,10.230669189453126,-0.06232055483460426,-0.003395277594635263,0.00041782355327159163
1761509300279827500,10.250827392578126,-0.05917874967753887,-0.008688223770447074,-0.00035821145367808635
1761509300299985400,10.2709853515625,-0.06336334188580513,-0.00260104934386909,-0.005215003835083916
1761509300320143000,10.29114306640625,-0.06785013191103935,0.007433355737989768,-0.0014445088530424981
1761509300340301300,10.31130126953125,0.015652327162027357,0.001396030068816617,-0.009422584193293004
1761509300360459300,10.331459228515625,-0.007691139024496078,-0.006872114259190857,-0.019477867666399105
1761509300380618200,10.3516181640625,-0.01981061588525772,0.0037622020777314897,-0.014486306456802413
1761509300400776400,10.3717763671875,-0.042402386921644206,-0.004524062428856268,0.005224648446263745
1761509300420934100,10.39193408203125,-0.07800619974434375,-0.010047392427595331,-0.00516132828593254
1761509300441092400,10.41209228515625,-0.04878770404458046,-0.0030977102870121597,0.015174498783517627
1761509300461250300,10.432250244140626,-0.27799919525682926,-0.01705861376337707,0.033127421904960645
1761509300481408300,10.452408203125,-0.185950441634655,-0.014395148441474884,-0.01214348335743416
1761509300501566500,10.47256640625,-0.060543023768067354,-0.008352991333557292,-0.008498441385966725
1761509300521724200,10.49272412109375,-0.09152502200901508,-0.006152558679832145,0.0035233061547856777
1761509300541882400,10.51288232421875,-0.1099503210157156,-0.0005411622385727242,0.0021987384535605086
1761509300562040300,10.533040283203125,-0.05550619864463806,0.00538672083991114,-0.01497721351259388
1761509300582198300,10.5531982421875,-0.04460837253332138,-0.0037907705850899216,-0.0006177757053170352
1761509300602356200,10.573356201171874,-0.04403086490631103,0.00709936541011557,0.0007937259272672235
