time,seconds_elapsed,z,y,x
1761509290099965700,0.070965576171875,0.002717428607866168,0.003862929530441761,0.0019065371016040444
1761509290120123600,0.09112353515625,-0.0018222054932266474,0.002398102544248104,0.0021948048379272223
1761509290140281600,0.111281494140625,0.00019504595547914505,0.001642654649913311,-0.0010346153285354376
1761509290160440600,0.131440673828125,0.0012646084651350975,0.0028736554086208344,0.0011823296081274748
1761509290180598500,0.1515986328125,0.001264655962586403,0.0020336024463176727,0.001981589011847973
1761509290200756500,0.171756591796875,0.0024483203887939453,0.0009331861510872841,0.0012203375808894634
1761509290220914700,0.191914794921875,0.0016372078098356724,0.0030480921268463135,0.0002705417573451996
1761509290241072600,0.21207275390625,-0.00017975387163460255,0.005314706824719906,0.0024950553197413683
1761509290261231600,0.232231689453125,-0.0024971445091068745,0.004251041449606419,0.004677419550716877
1761509290281389600,0.2523896484375,0.0003988437820225954,0.0040971944108605385,0.002069170121103525
1761509290301547500,0.272547607421875,0.0004646396264433861,0.0014187656342983246,0.0024518852587789297
1761509290321705500,0.29270556640625,0.0011329078115522861,0.002746881917119026,0.0004999074153602123
1761509290341864700,0.31286474609375,0.0016707808244973421,0.002212126739323139,0.0008641835302114487
1761509290362022700,0.333022705078125,-0.0008884603157639503,-0.000863831490278244,0.0002221397589892149
1761509290382180600,0.3531806640625,-0.0005959075642749667,-0.00012515299022197723,-0.001958630746230483
1761509290402338600,0.373338623046875,-0.00014738691970705986,0.0005957596004009247,0.0012060492299497128
1761509290422496500,0.39349658203125,-0.0015050137881189585,-0.0005582738667726517,-0.0003084458876401186
1761509290442655500,0.413655517578125,0.0013678432442247868,-0.0018676696345210075,-0.0011686026118695736
1761509290462813700,0.433813720703125,-0.00032521889079362154,0.00031763315200805664,-0.00031157699413597584
1761509290482971600,0.4539716796875,-0.001671946025453508,-0.0009001344442367554,0.0016035663429647684
1761509290503129600,0.474129638671875,0.0011069532483816147,-0.0013108011335134506,0.0017455769702792168
1761509290523287600,0.49428759765625,-0.002344400156289339,-0.0008095866069197655,-0.00028781057335436344
1761509290543446500,0.514446533203125,0.0007152918260544538,0.0010508084669709206,0.0005341782234609127
1761509290563604500,0.5346044921875,0.0007112480234354734,0.0001566065475344658,-0.0019838581793010235
1761509290583762700,0.5547626953125,-0.0013585188426077366,-0.0009385738521814346,-0.0015064817853271961
1761509290603920600,0.574920654296875,0.0004867434035986662,0.003436373546719551,-0.0018398419488221407
1761509290624079600,0.59507958984375,0.000004482455551624298,-0.0008426681160926819,0.001281011151149869
1761509290644237600,0.615237548828125,-0.0011455859057605267,-0.0036042407155036926,0.001453238190151751
1761509290664395500,0.6353955078125,0.0012890852522104979,-0.002876906655728817,-0.0004568689037114382
1761509290684553700,0.6555537109375,0.0026708324439823627,0.0005919653922319412,-0.0013426532968878746
1761509290704711700,0.675711669921875,0.00011651241220533848,-0.001606084406375885,0.000833011232316494
1761509290724870700,0.69587060546875,-0.0005511986091732979,-0.000562482513487339,-0.001148270908743143
1761509290745028600,0.716028564453125,-0.0004693819209933281,-0.0022994037717580795,0.0008036531507968903
1761509290765186600,0.7361865234375,-0.000985827879048884,-0.0026690540835261345,-0.0025990956928581
1761509290785344500,0.756344482421875,-0.0008345779497176409,-0.0005307663232088089,0.0008120322600007057
1761509290805502700,0.776502685546875,-0.0004324766341596842,0.0016084853559732437,0.0007994130719453096
1761509290825661700,0.79666162109375,0.0006467520724982023,0.0007623843848705292,-0.0011616982519626617
1761509290845819400,0.8168193359375,0.003339780494570732,-0.0020302068442106247,0.001216698670759797
1761509290865977600,0.8369775390625,0.0010584848932921886,0.0009493213146924973,0.00006135436706244946
1761509290886135600,0.857135498046875,0.0008147151675075293,-0.00034907087683677673,0.00046102283522486687
1761509290906293500,0.87729345703125,-0.0008307029493153095,-0.0021980078890919685,0.0009654306340962648
1761509290926453500,0.89745361328125,0.0013200556859374046,-0.0008808253332972527,-0.002413809532299638
1761509290946611700,0.91761181640625,0.00015597534365952015,-0.0013733776286244392,-0.00003445451147854328
1761509290966769700,0.937769775390625,0.003273972077295184,0.002136044204235077,-0.001029433449730277
1761509290986927600,0.957927734375,-0.0002978336997330189,-0.000905696302652359,-0.0036463350988924503
1761509291007085600,0.97808544921875,0.0009027747437357903,-0.003937713801860809,-0.0013320641592144966
1761509291027244500,0.99824462890625,-0.0007238087709993124,-0.003643861971795559,-0.001460548723116517
1761509291047402500,1.018402587890625,0.0008123719599097967,-0.0013373801484704018,0.00028066011145710945
1761509291067560700,1.038560791015625,0.0025036674924194813,0.0022799884900450706,0.0010928069241344929
1761509291087718400,1.058718505859375,0.0019095928873866796,0.0013042055070400238,0.0026811447460204363
1761509291107876600,1.078876708984375,-0.0015474925749003887,-0.0006147976964712143,0.0020796554163098335
1761509291128035600,1.09903564453125,-0.000548033625818789,0.0022074896842241287,0.0003843295853585005
1761509291148193500,1.119193603515625,-0.00164929055608809,0.0012409938499331474,0.001422860543243587
1761509291168351700,1.139351806640625,0.0021927575580775738,0.0005428334698081017,-0.0017149322666227818
1761509291188509700,1.159509765625,0.0002965035382658243,0.0012832218781113625,-0.0014416538178920746
1761509291208667400,1.17966748046875,0.000372378621250391,-0.000050535425543785095,-0.002206673612818122
1761509291228826600,1.19982666015625,0.0027750039007514715,-0.00009004306048154831,0.001323989126831293
1761509291248984600,1.219984619140625,0.0015238516498357058,-0.0009466409683227539,0.001389396726153791
1761509291269142500,1.240142578125,0.0010886373929679394,-0.0036194678395986557,-0.00025509693659842014
1761509291289300700,1.26030078125,0.0013213655911386013,0.0037249894812703133,-0.0018801747355610132
1761509291309458400,1.28045849609375,0.002081151818856597,0.0006882501766085625,-0.0013560783118009567
1761509291329617400,1.300617431640625,-0.00027698848862200975,0.0014502713456749916,0.001016589580103755
1761509291349775600,1.320775634765625,0.0025817363057285547,-0.001993047073483467,0.0016984879039227962
1761509291369933600,1.34093359375,0.0019999442156404257,0.0016419095918536186,0.0019631453324109316
1761509291390091800,1.361091796875,-0.003514243522658944,0.0019893720746040344,0.00001699826680123806
1761509291410249500,1.38124951171875,0.0003535086289048195,0.001498905010521412,-0.0013926962856203318
1761509291430407400,1.401407470703125,0.0012118613813072443,0.0007471172139048576,0.0013509478885680437
1761509291450566700,1.421566650390625,0.0015236630570143461,-0.0005443748086690903,0.0019099756609648466
1761509291470724600,1.441724609375,-0.0014256243593990803,-0.0007507307454943657,-0.0012779433745890856
1761509291490882600,1.461882568359375,0.0007636602967977524,-0.0011361343786120415,-0.0011006207205355167
1761509291511040800,1.482040771484375,-0.0002528220647946,-0.0004422226920723915,-0.00012290757149457932
1761509291531198500,1.502198486328125,0.0011371350847184658,0.000257173553109169,-0.0013308431953191757
1761509291551357400,1.522357421875,-0.0004946445114910603,-0.0006487816572189331,0.0011732496786862612
1761509291571515600,1.542515625,0.00145810772664845,0.0013512130826711655,-0.0027690480928868055
1761509291591673600,1.562673583984375,0.0013180191162973642,-0.00013512559235095978,-0.0016460223123431206
1761509291611831600,1.58283154296875,0.0026587145403027534,0.0018805637955665588,-0.0013159892987459898
1761509291631989500,1.602989501953125,0.0014109178446233273,0.0011576712131500244,0.0008753461297601461
1761509291652148500,1.6231484375,-0.0036939550191164017,-0.0008306587114930153,-0.0015010179486125708
1761509291672306400,1.643306396484375,-0.0025213337503373623,-0.000888630747795105,0.0009313649497926235
1761509291692464600,1.663464599609375,0.00021556206047534943,0.0007903175428509712,0.0005012666806578636
1761509291712622600,1.68362255859375,0.00033400231041014194,-0.0005267765372991562,-0.002937115030363202
1761509291732780800,1.70378076171875,0.00014763162471354008,-0.0015950500965118408,0.00044696172699332237
1761509291752939800,1.723939697265625,-0.0011692402185872197,-0.002848563715815544,0.0041808015666902065
1761509291773097500,1.744097412109375,0.0012719884980469942,0.00028227549046278,0.00042095640674233437
1761509291793255700,1.764255615234375,0.0009536589495837688,0.0004921620711684227,-0.003614976769313216
1761509291813413600,1.78441357421875,-0.000609244336374104,-0.0005798982456326485,-0.0007964542601257563
1761509291833571600,1.804571533203125,-0.00030026095919311047,-0.00037208106368780136,-0.0009228424169123173
1761509291853729500,1.8247294921875,0.00023405766114592552,-0.0007534343749284744,-0.0014171679504215717
1761509291873888500,1.844888427734375,0.0003188755363225937,-0.00034008361399173737,-0.00018765940330922604
1761509291894046500,1.86504638671875,-0.0013270333874970675,0.0010958602651953697,-0.00089875771664083
1761509291914204700,1.88520458984375,-0.0022369951475411654,0.0007704412564635277,-0.0008017576765269041
1761509291934361600,1.905361572265625,-0.0014414809411391616,-0.00031383614987134933,-0.00043517304584383965
1761509291954519800,1.925519775390625,0.00015894859097898006,-0.0025452235713601112,0.00013689068146049976
1761509291974678800,1.9456787109375,0.0003427907358855009,-0.0017000753432512283,-0.0007887186948210001
1761509291994836700,1.965836669921875,0.0005935486406087875,0.0005615679547190666,-0.0004469873383641243
1761509292014995000,1.985994873046875,0.00042897299863398075,0.0012825988233089447,-0.0003500250168144703
1761509292035153000,2.00615283203125,-0.0011895422358065844,0.0018938463181257248,0.00021237856708467007
1761509292055310800,2.026310791015625,-0.0021413241047412157,-0.002662278711795807,-0.0025483095087110996
1761509292075469800,2.0464697265625,-0.0010188185842707753,-0.0004890160635113716,-0.00024937791749835014
1761509292095627800,2.066627685546875,0.00007078680209815502,0.0009153624996542931,0.001415544655174017
1761509292115785700,2.08678564453125,0.001265808241441846,0.0019242344424128532,0.00021971971727907658
1761509292135944000,2.10694384765625,0.001478056889027357,0.0014074239879846573,0.000063279177993536
1761509292156101600,2.1271015625,0.0010023252107203007,-0.0004126913845539093,0.001521724509075284
1761509292176259800,2.147259765625,0.00011989939957857132,-0.0014265542849898338,-0.0002641447354108095
1761509292196418800,2.167418701171875,-0.0005130007630214095,-0.0005420297384262085,-0.0006572895217686892
1761509292216576800,2.18757666015625,0.0026042568497359753,0.0020704129710793495,-0.0015669818967580795
1761509292236735000,2.20773486328125,-0.00039261276833713055,0.0006974153220653534,0.00020040571689605713
1761509292256892700,2.227892578125,0.000049683498218655586,0.0003363983705639839,-0.0001589690800756216
1761509292277050600,2.248050537109375,0.00002333754673600197,0.0007800580933690071,-0.0018705532420426607
1761509292297209900,2.2682099609375,0.0011728883255273104,0.0005850913003087044,0.00017409119755029678
1761509292317367800,2.288367919921875,-0.0010907551040872931,-0.0006658518686890602,0.0004922160878777504
1761509292337525800,2.30852587890625,0.000014312798157334328,-0.00038827117532491684,0.000284313689917326
1761509292357684000,2.32868408203125,0.0014332213904708624,-0.000928548164665699,0.0005179282743483782
1761509292377841700,2.348841552734375,-0.00008075614459812641,-0.0011026542633771896,-0.0007153491023927927
1761509292397999900,2.368999755859375,-0.002182797994464636,-0.0022186385467648506,-0.000010889722034335136
1761509292418158800,2.389158935546875,-0.0004458060720935464,0.0015063220635056496,-0.0024544494226574898
1761509292438316800,2.40931689453125,-0.0010058014886453748,-0.0012128744274377823,0.0023286817595362663
1761509292458474800,2.429474853515625,-0.0007219576509669423,0.0006195753812789917,0.00007195165380835533
1761509292478632700,2.4496328125,-0.0009957649745047092,-0.0003085331991314888,-0.002519387984648347
1761509292498790700,2.469790771484375,0.00017232215031981468,0.00011481717228889465,0.0012543457560241222
1761509292518949600,2.48994970703125,-0.00007633375935256481,0.00008453521877527237,0.0008273082785308361
1761509292539107800,2.51010791015625,0.0006250834558159113,-0.0013626385480165482,-0.0012187378015369177
1761509292559265800,2.530265869140625,-0.00006971973925828934,0.0008771130815148354,-0.0008155039977282286
1761509292579424000,2.550424072265625,-0.0010038753971457481,-0.0014352081343531609,-0.002050847979262471
1761509292599581700,2.570581787109375,-0.0008996642427518964,0.0005331989377737045,-0.00022427760995924473
1761509292619739600,2.59073974609375,-0.0014769735280424356,0.0007974635809659958,-0.002881776774302125
1761509292639899000,2.61089892578125,-0.00038733799010515213,0.0007242672145366669,-0.0018326856661587954
1761509292660056800,2.631056884765625,0.0009565232321619987,0.0022748950868844986,-0.0004643090069293976
1761509292680214800,2.65121484375,0.002331884577870369,-0.0014523649588227272,-0.000560317886993289
1761509292700372700,2.671372802734375,-0.0015716394409537315,0.0013360101729631424,-0.001864277757704258
1761509292720530700,2.69153076171875,-0.0007910500280559063,0.0018164915964007378,-0.001368837896734476
1761509292740689700,2.711689697265625,-0.0006997284945100546,0.0004943963140249252,-0.0005514712538570166
1761509292760848000,2.731847900390625,0.0005939772818237543,0.0025845058262348175,-0.0003111693076789379
1761509292781005800,2.752005859375,0.0005796842742711306,-0.002808455377817154,-0.0003129777032881975
1761509292801164000,2.7721640625,0.00010327971540391445,0.000239676795899868,-0.0024269267451018095
1761509292821321700,2.79232177734375,0.0005704381037503481,0.0014498820528388023,0.0015263003297150135
1761509292841479700,2.812479736328125,0.0008131263311952353,0.0010912995785474777,-0.0023534998763352633
1761509292861639000,2.832638916015625,-0.0021002914290875196,-0.003737153485417366,-0.0006190759595483541
1761509292881796900,2.852796875,0.0007734473329037428,0.0014718053862452507,-0.0032832196447998285
1761509292901954800,2.872954833984375,0.0003069820813834667,-0.0001897895708680153,-0.0009166935924440622
1761509292922112800,2.89311279296875,0.00033495458774268627,0.0003001578152179718,-0.0004262498114258051
1761509292942270700,2.913270751953125,0.0004401004407554865,0.0012075193226337433,0.0007857773452997208
1761509292962428700,2.9334287109375,-0.000037839869037270546,0.0005726991221308708,0.002152740955352783
1761509292982587600,2.953587646484375,0.00010953005403280258,-0.0002748863771557808,0.00022844853810966015
1761509293002745600,2.97374560546875,0.0014178233686834574,0.00046447571367025375,-0.0014791118446737528
1761509293022903800,2.99390380859375,-0.00048016326036304235,0.00046700146049261093,0.0015656680334359407
1761509293043061800,3.014061767578125,0.00036658020690083504,-0.00034987088292837143,-0.0011345385573804379
1761509293063219700,3.0342197265625,0.002334585413336754,0.00017271563410758972,-0.001999379601329565
1761509293083378400,3.05437841796875,0.00016974774189293385,0.0006136437878012657,0.000026755034923553467
1761509293103536600,3.07453662109375,-0.0012204783270135522,-0.00006049312651157379,0.0007473521400243044
1761509293123694600,3.094694580078125,-0.000036861514672636986,0.00021358206868171692,-0.00048019387759268284
1761509293143852800,3.114852783203125,-0.000909610535018146,0.002042851410806179,0.00023776176385581493
1761509293164010800,3.1350107421875,0.000029429560527205467,-0.000059577636420726776,-0.00006109243258833885
1761509293184168700,3.155168701171875,0.0008347118273377419,-0.000607524998486042,-0.0013592476025223732
1761509293204327700,3.17532763671875,0.0018561226315796375,0.0006052926182746887,-0.0009603817015886307
1761509293224485600,3.195485595703125,-0.001243710401467979,-0.0007709972560405731,-0.00006449874490499496
1761509293244643600,3.2156435546875,-0.0015585285145789385,0.001518862321972847,0.000747608719393611
1761509293264801800,3.2358017578125,-0.0007037576287984848,0.0012982804328203201,0.00014613568782806396
1761509293284959500,3.25595947265625,0.0003271810710430145,0.000291542150080204,-0.0018067581113427877
1761509293305117700,3.27611767578125,0.0005325721576809883,0.001750175841152668,0.0009449080098420382
1761509293325276700,3.296276611328125,0.0013564890250563622,0.00019467342644929886,-0.001892636762931943
1761509293345434600,3.3164345703125,0.0020581958815455437,0.0021149730309844017,0.0010377857834100723
1761509293365592800,3.3365927734375,0.0008344836533069611,0.0003968849778175354,-0.0016476477030664682
1761509293385750800,3.356750732421875,-0.0016277144895866513,-0.0023139985278248787,-0.0014162124134600163
1761509293405908500,3.376908447265625,-0.00018204329535365105,0.000028274022042751312,-0.0015730629675090313
1761509293426067700,3.397067626953125,-0.00137808988802135,0.0014081690460443497,0.0006655585020780563
1761509293446225700,3.4172255859375,-0.0005075670778751373,-0.0009331097826361656,-0.0009046692866832018
1761509293466383600,3.437383544921875,0.00009340234100818634,-0.0007033701986074448,0.0004556186031550169
1761509293486541800,3.457541748046875,-0.0015321883838623762,-0.0005204593762755394,-0.0025217088405042887
1761509293506699500,3.477699462890625,0.0022186257410794497,-0.001858728937804699,0.002890427364036441
1761509293526857700,3.497857666015625,-0.001869943575002253,0.001145985908806324,-0.0004047919064760208
1761509293547016700,3.5180166015625,-0.001051957719027996,-0.0019974401220679283,-0.002313198521733284
1761509293567174700,3.538174560546875,-0.0008268991950899363,-0.0019902465865015984,0.0009840470738708973
1761509293587332600,3.55833251953125,0.0006179027259349823,-0.00028135906904935837,0.00012681656517088413
1761509293607490800,3.57849072265625,0.0011103644501417875,0.000799291767179966,0.00034084171056747437
1761509293627648500,3.5986484375,-0.000993874971754849,-0.00048300158232450485,-0.0009921216405928135
1761509293647806700,3.618806640625,0.0010613074991852045,-0.00025556888431310654,-0.00020888261497020721
1761509293667965700,3.638965576171875,-0.002447806065902114,0.0013768533244729042,0.001082210335880518
1761509293688123600,3.65912353515625,0.00010379566811025143,-0.0019060838967561722,-0.0015058850403875113
1761509293708281900,3.67928173828125,0.00039601209573447704,-0.001246918924152851,0.0017628902569413185
1761509293728439600,3.699439453125,0.0007724273018538952,-0.0009518861770629883,0.0011415746994316578
1761509293748597500,3.719597412109375,-0.0018088025972247124,0.0008738283067941666,0.0002381748054176569
1761509293768755700,3.739755615234375,0.0006375627126544714,-0.0009479867294430733,0.0016853102715685964
1761509293788914700,3.759914794921875,-0.0010966111440211535,0.0010499106720089912,-0.0006083361804485321
1761509293809072600,3.78007275390625,-0.0016913262661546469,0.0007464922964572906,-0.00007450324483215809
1761509293829230800,3.80023095703125,0.0011168799828737974,-0.0010640854015946388,0.0007800040766596794
1761509293849388500,3.820388427734375,-0.0009794842917472124,-0.00004726182669401169,-0.0003291440661996603
1761509293869546800,3.840546630859375,0.0013470591511577368,0.0006514061242341995,0.0003543614875525236
1761509293889704700,3.86070458984375,-0.0006265514530241489,-0.0007129078730940819,0.0022992112208157778
1761509293909863700,3.88086376953125,0.0010423758067190647,-0.0028099631890654564,0.00042095943354070187
1761509293930021600,3.901021728515625,-0.0005759317427873611,0.0002063121646642685,0.0010287445038557053
1761509293950179600,3.9211796875,-0.0004151965258643031,-0.0007722144946455956,0.0028938341420143843
1761509293970337500,3.941337646484375,0.00248028920032084,0.0007456773892045021,0.0026589955668896437
1761509293990495700,3.961495849609375,0.0026977036613970995,-0.00001754891127347946,0.0011163260787725449
1761509294010653400,3.9816533203125,-0.002468598075211048,-0.002565319649875164,-0.0007287957705557346
1761509294030812400,4.0018125,0.003385598072782159,-0.0004400135949254036,-0.0010550920851528645
1761509294050967800,4.0219677734375,-0.0017487367149442434,0.0011914744973182678,-0.0016793969552963972
1761509294071125500,4.04212548828125,0.00008982676081359386,0.0008720709010958672,0.000516361789777875
1761509294091283500,4.062283447265625,0.0003041462041437626,0.0017886804416775703,-0.00016720173880457878
1761509294111442700,4.082442626953125,0.0008095114026218653,-0.0009121503680944443,-0.002218512585386634
1761509294131600600,4.1026005859375,-0.0017140288837254047,-0.0005350736901164055,-0.00040667736902832985
1761509294151758600,4.122758544921875,0.003791379276663065,0.0008744867518544197,0.004013140220195055
1761509294171916500,4.14291650390625,-0.0019393812399357557,0.002363298088312149,-0.001370804151520133
1761509294192074500,4.163074462890625,-0.0011454725172370672,-0.0012207049876451492,-0.000008424278348684311
1761509294212232700,4.183232666015625,0.00012064469046890736,-0.0015190765261650085,0.0020730530377477407
1761509294232391700,4.2033916015625,0.001440210035070777,-0.00016200914978981018,0.0014000874944031239
1761509294252549600,4.223549560546875,0.0013621896505355835,0.0009799320250749588,-0.002273817081004381
1761509294272707600,4.24370751953125,0.0019201471004635096,-0.0007448121905326843,-0.0015684212557971478
1761509294292865500,4.263865478515625,0.00046151201240718365,0.00039691850543022156,0.0006726777646690607
1761509294313023500,4.2840234375,-0.0020385796669870615,-0.000191408209502697,-0.000836577033624053
1761509294333181700,4.304181640625,0.0004952738527208567,-0.000305897556245327,-0.0012626207899302244
1761509294353340700,4.324340576171875,-0.0004983191611245275,-0.0016953423619270325,0.0004886507522314787
1761509294373498600,4.34449853515625,-0.00044366728980094194,0.001051158644258976,-0.0007551561575382948
1761509294393656600,4.364656494140625,0.0019404753111302853,0.002053096890449524,0.0006598518230021
1761509294413814500,4.384814453125,0.0007862143684178591,-0.0005603041499853134,-0.000893943477421999
1761509294433972500,4.404972412109375,-0.0017964430153369904,0.00006874557584524155,-0.0008796087931841612
1761509294454130700,4.425130615234375,-0.0006940898019820452,0.0006026746705174446,-0.00005367584526538849
1761509294474288600,4.44528857421875,0.0006710465531796217,0.00014727376401424408,0.0009215737227350473
1761509294494447400,4.465447265625,0.001169578405097127,0.0011112447828054428,-0.003236330347135663
1761509294514605600,4.48560546875,-0.00021130545064806938,-0.0007510781288146973,-0.00014936504885554314
1761509294534763500,4.505763427734375,-0.00025449448730796576,-0.003346480429172516,0.0011167258489876986
1761509294554921700,4.525921630859375,0.0006744100246578455,-0.000030211172997951508,0.0027469713240861893
1761509294575079700,4.54607958984375,-0.00320924399420619,0.0011298907920718193,-0.00012107030488550663
1761509294595237400,4.5662373046875,-0.0007088799029588699,0.0025496454909443855,-0.00019497121684253216
1761509294615396600,4.586396728515625,0.0010378716979175806,-0.0012965621426701546,-0.0002101459540426731
1761509294635554600,4.606554443359375,0.0013473930303007364,-0.0009174980223178864,0.001347081270068884
1761509294655712500,4.62671240234375,0.0002669587265700102,-0.0014615301042795181,0.002004970796406269
1761509294675870700,4.64687060546875,0.0004233985673636198,0.001162828877568245,0.00044545577839016914
1761509294696028400,4.6670283203125,-0.0000306260772049427,0.002109285444021225,-0.0005518682301044464
1761509294716186600,4.6871865234375,-0.0009092409163713455,-0.0015250276774168015,0.0004499470815062523
1761509294736344600,4.707344482421875,-0.0009796898812055588,0.0006422223523259163,-0.0010651741176843643
1761509294756503600,4.727503662109375,0.0004582325927913189,-0.0001901276409626007,0.0005413726903498173
1761509294776661800,4.747661865234375,0.00036670267581939697,0.00045784842222929,-0.0003047375939786434
1761509294796819700,4.76781982421875,0.0010241358540952206,0.004201127216219902,0.0021393620409071445
1761509294816977400,4.787977294921875,-0.00011104298755526543,0.0010461322963237762,0.0012454488314688206
1761509294837135600,4.808135498046875,-0.001865547033958137,-0.0014287307858467102,-0.004423867911100388
1761509294857293600,4.82829345703125,0.0002699254546314478,0.0014700358733534813,-0.00025218119844794273
1761509294877452500,4.84845263671875,0.0010278772097080946,0.0012979377061128616,0.0015171798877418041
1761509294897610800,4.86861083984375,-0.0005373141029849648,-0.0017218450084328651,0.0004687672480940819
1761509294917768400,4.8887685546875,-0.001942124217748642,-0.0022554686293005943,0.00024696020409464836
1761509294937926700,4.9089267578125,0.004815368913114071,-0.0026293639093637466,0.0016147262649610639
1761509294958084400,4.92908447265625,0.0015030927024781704,0.0001563969999551773,0.0017902808031067252
1761509294978242300,4.9492421875,0.001604926073923707,-0.0009345784783363342,0.000041122082620859146
1761509294998400500,4.969400390625,0.00016461452469229698,-0.0019176239147782326,-0.00033377623185515404
1761509295018559500,4.9895595703125,-0.0005798791535198689,0.0003987979143857956,-0.00110530573874712
1761509295038717400,5.009717529296875,0.0006724598351866007,0.0014502378180623055,-0.00020609190687537193
1761509295058875400,5.02987548828125,0.00010155932977795601,-0.00006376393139362335,-0.000048158690333366394
1761509295079033300,5.050033447265625,0.0008161652367562056,0.00018712598830461502,0.0031742930877953768
1761509295099191600,5.070191650390625,-0.001566184451803565,0.0003580525517463684,-0.0008030713070183992
1761509295119349500,5.090349609375,0.0003634465392678976,0.0009256340563297272,-0.0009641817305237055
1761509295139507500,5.110507568359375,0.0010837537702172995,-0.0005313055589795113,-0.0010850690305233002
1761509295159666200,5.130666259765625,-0.0008906131843104959,0.000026081688702106476,-0.0009635027963668108
1761509295179824400,5.150824462890625,0.0008821070659905672,-0.0019252561032772064,-0.0007081239018589258
1761509295199982300,5.170982421875,0.0010355585254728794,-0.00014806073158979416,-0.0021772608160972595
1761509295220140500,5.191140625,0.0005337567999958992,0.00013485457748174667,-0.0013590101152658463
1761509295240298500,5.211298583984375,-0.0009265166008844972,-0.0011523133143782616,-0.0013072281144559383
1761509295260456400,5.23145654296875,-0.0003171440912410617,0.0010411599650979042,0.0008544423617422581
1761509295280614400,5.251614501953125,0.0005451187025755644,-0.0024873046204447746,0.001044984208419919
1761509295300773400,5.2717734375,0.0026664044708013535,0.0006243176758289337,0.0008432017639279366
1761509295320931300,5.291931396484375,0.00264462037011981,0.0008418699726462364,0.00040218187496066093
1761509295341089500,5.312089599609375,-0.00042782456148415804,-0.00074008759111166,-0.003571935696527362
1761509295361247200,5.332247314453125,-0.0015117592411115766,0.00048284512013196945,0.0011033960618078709
1761509295381405400,5.352405517578125,-0.0011385873658582568,-0.00011549796909093857,0.0023623716551810503
1761509295401563400,5.3725634765625,0.0008283676579594612,0.0006947610527276993,-0.0024477187544107437
1761509295421721300,5.392721435546875,-0.00026442331727594137,-0.00007813796401023865,0.0003754408098757267
1761509295441880600,5.412880615234375,0.001843735110014677,-0.0017190175130963326,0.0016088220290839672
1761509295462038500,5.43303857421875,0.000029993243515491486,0.0030708368867635727,-0.00024187983945012093
1761509295482196200,5.4531962890625,0.00028016441501677036,0.0012134453281760216,-0.0003534585703164339
1761509295502354400,5.4733544921875,-0.001760075450874865,-0.0000608367845416069,0.0014484799467027187
1761509295522512400,5.493512451171875,0.0008172737434506416,-0.0020204605534672737,0.00034447922371327877
1761509295542670600,5.513670654296875,-0.0004006776725873351,0.0013322215527296066,0.0023858044296503067
1761509295562828300,5.533828369140625,-0.0003928516525775194,-0.0013024862855672836,0.0030146425124257803
1761509295582987300,5.5539873046875,0.003686915384605527,0.0026778820902109146,-0.0003467148635536432
1761509295603145500,5.5741455078125,-0.0001203073188662529,-0.0025460263714194298,-0.0011924367863684893
1761509295623303400,5.594303466796875,-0.0007665939629077911,-0.0016870824620127678,-0.0022103239316493273
1761509295643461400,5.61446142578125,-0.0001378369051963091,0.0007853945717215538,0.0018100719898939133
1761509295663619600,5.63461962890625,0.0003235845360904932,0.0015125880017876625,-0.0011233622208237648
1761509295683777300,5.65477734375,0.0001547026913613081,-0.0018568187952041626,-0.002844603266566992
1761509295703935500,5.674935546875,-0.000056921737268567085,0.000015543773770332336,-0.0010339745786041021
1761509295724094500,5.695094482421875,-0.000319995335303247,-0.00022769905626773834,0.0005584165919572115
1761509295744252400,5.71525244140625,0.001749558374285698,-0.0008160518482327461,0.0033429288305342197
1761509295764410400,5.735410400390625,0.0012711910530924797,-0.0008397465571761131,-0.0012632857542484999
1761509295784568300,5.755568359375,-0.00035134260542690754,-0.0004606405273079872,-0.0010570257436484098
1761509295804726300,5.775726318359375,0.00043831649236381054,-0.0014638928696513176,-0.0013408358208835125
1761509295824884500,5.795884521484375,-0.0010497485054656863,0.0025298455730080605,0.00010207272134721279
1761509295845042400,5.81604248046875,0.0011194110848009586,-0.0023593371734023094,-0.0001807671505957842
1761509295865200600,5.83620068359375,0.001972653204575181,-0.0006018476560711861,-0.002186005236580968
1761509295885359600,5.856359619140625,-0.0032189073972404003,0.0011073797941207886,-0.0006217879708856344
1761509295905517300,5.876517333984375,0.0006421033758670092,0.0009193476289510727,-0.00021548126824200153
1761509295925675500,5.896675537109375,-0.0010505396639928222,-0.0002479180693626404,-0.000770229147747159
1761509295945834500,5.91683447265625,-0.0008928312454372644,0.0028961654752492905,0.002254142425954342
1761509295965992200,5.9369921875,0.0007674244698137045,0.0018134377896785736,0.0018233289010822773
1761509295986150100,5.957150146484375,0.0017867893911898136,0.0025358153507113457,-0.00025256630033254623
1761509296006308400,5.977308349609375,0.0007441805209964514,0.0008226735517382622,0.002284000627696514
1761509296026467300,5.99746728515625,0.000042600324377417564,0.0010480927303433418,0.0019291512435302138
1761509296046625300,6.017625244140625,0.0012455296237021685,0.0008205631747841835,0.0002027438022196293
1761509296066783200,6.037783203125,0.00035080546513199806,-0.00014798622578382492,-0.0005859406664967537
1761509296086941200,6.057941162109375,-0.00033917324617505074,-0.00001132860779762268,-0.00042579672299325466
1761509296107099400,6.078099365234375,-0.0012577451998367906,-0.0025507500395178795,-0.0005726634990423918
1761509296127257300,6.09825732421875,0.001536843366920948,0.0007999492809176445,0.0009892317466437817
1761509296147415300,6.118415283203125,0.0007034321315586567,-0.0005338005721569061,0.002193253953009844
1761509296167573200,6.1385732421875,0.0016387111973017454,0.0015344731509685516,-0.0001160206738859415
1761509296187732200,6.158732177734375,-0.0013479402987286448,-0.002630341798067093,0.0007534271571785212
1761509296207890200,6.17889013671875,-0.00015131698455661535,0.001674978993833065,-0.0014974747318774462
1761509296228048400,6.19904833984375,-0.00028521823696792126,-0.0000067176297307014465,0.0017015845514833927
1761509296248206300,6.219206298828125,0.0007819994352757931,0.0005933633074164391,0.0018841613782569766
1761509296268364300,6.2393642578125,0.00037872535176575184,0.0018139593303203583,0.0036103855818510056
1761509296288522200,6.259522216796875,-0.0012405691668391228,-0.0029990170150995255,0.0007053022272884846
1761509296308680200,6.27968017578125,-0.0011154632084071636,-0.0008521825075149536,-0.0016052185092121363
1761509296328838400,6.29983837890625,0.00018820678815245628,0.00013569463044404984,-0.0008608200587332249
1761509296348997400,6.319997314453125,-0.00037086906377226114,0.00028095487505197525,-0.000145740807056427
1761509296369155300,6.3401552734375,-0.0012471997179090977,0.0016513150185346603,-0.0008376161567866802
1761509296389313300,6.360313232421875,0.0011248160153627396,0.0006004553288221359,-0.002823087153956294
1761509296409471200,6.38047119140625,-0.00020503450650721788,-0.0005181655287742615,0.0017731223488226533
1761509296429629400,6.40062939453125,0.0008623572066426277,0.0008636945858597755,-0.0008078829851001501
1761509296449787400,6.420787353515625,0.000825332710519433,0.0007498189806938171,0.0010966304689645767
1761509296469945000,6.440945068359375,0.002187649253755808,0.00048037711530923843,0.000049435533583164215
1761509296490103300,6.461103271484375,0.0010941114742308855,-0.00013746973127126694,0.001067665871232748
1761509296510261200,6.48126123046875,0.0002837043721228838,-0.0005177250131964684,-0.00010585971176624298
1761509296530420200,6.501420166015625,0.001612392719835043,-0.0010551242157816887,0.0018972227117046714
1761509296550578400,6.521578369140625,0.000006645452231168747,0.0018345527350902557,0.0012814125511795282
1761509296570736400,6.541736328125,0.0011744273360818624,-0.001958596520125866,-0.000497451750561595
1761509296590894300,6.561894287109375,0.0006541716866195202,0.00022437144070863724,-0.0007379616145044565
1761509296611052300,6.58205224609375,0.001753008458763361,-0.0013640513643622398,-0.0018572714179754257
1761509296631210200,6.602210205078125,0.0035326299257576466,0.000243370421230793,0.0013090551365166903
1761509296651368400,6.622368408203125,0.002241633366793394,0.0005214568227529526,0.0003622272051870823
1761509296671526100,6.642526123046875,0.0014840958174318075,-0.0026886407285928726,-0.0006750880274921656
1761509296691685000,6.66268505859375,-0.00034870149102061987,-0.0006368448957800865,0.0009325218852609396
1761509296711843300,6.68284326171875,0.0004436394665390253,-0.0013794628903269768,0.0002840592060238123
1761509296732001300,6.703001220703125,0.0009692637249827385,0.00017529726028442383,0.0013099184725433588
1761509296752159200,6.7231591796875,-0.0007452197605744004,-0.00150966364890337,0.00003128545358777046
1761509296772317400,6.7433173828125,0.002020343439653516,0.0020098621025681496,0.0023728562518954277
1761509296792475100,6.76347509765625,0.002552082296460867,-0.0009419666603207588,0.00017067929729819298
1761509296812633300,6.78363330078125,-0.0011883797124028206,-0.0013378448784351349,0.0016424674540758133
1761509296832791300,6.803791259765625,0.0010553279425948858,0.0009042397141456604,0.0008064955472946167
1761509296852949500,6.823949462890625,-0.0012537859147414565,0.00009200256317853928,0.00008903862908482552
1761509296873108500,6.8441083984375,0.000010406598448753357,-0.0018057739362120628,0.0011375707108527422
1761509296893266200,6.86426611328125,-0.00141407479532063,0.0023774439468979836,-0.0007607433944940567
1761509296913424100,6.884424072265625,0.00073441700078547,0.0006497558206319809,0.00019750348292291164
1761509296933582800,6.904582763671875,-0.003012408735230565,0.0013038692995905876,0.0002789993304759264
1761509296953740500,6.924740478515625,-0.001986966235563159,-0.0005501732230186462,-0.0010629275348037481
1761509296973898800,6.944898681640625,0.001117658568546176,0.0006201742216944695,0.00021431781351566315
1761509296994056700,6.965056640625,0.0007424624636769295,-0.001585136167705059,-0.0005257241427898407
1761509297014214700,6.985214599609375,0.00012710317969322205,-0.0012849653139710426,0.00019022217020392418
1761509297034374000,7.005373779296875,0.0009692627936601639,0.0017010299488902092,0.002079115714877844
1761509297054531600,7.025531494140625,-0.003200659528374672,-0.0006221514195203781,0.00033133430406451225
1761509297074689500,7.045689453125,0.0010637191589921713,-0.0002424493432044983,-0.0006093834526836872
1761509297094847700,7.06584765625,0.0014813861344009638,0.0005586771294474602,-0.0013251332566142082
1761509297115005700,7.086005615234375,0.0011236919090151787,-0.0005367100238800049,0.0015337095828726888
1761509297135164000,7.106163818359375,0.0015156371518969536,-0.0010611684992909431,-0.000848537078127265
1761509297155321600,7.126321533203125,0.0009067393839359283,0.0017334790900349617,-0.000788417411968112
1761509297175479600,7.1464794921875,0.003648742102086544,-0.0009341249242424965,0.0009562382474541664
1761509297195637800,7.1666376953125,-0.001608057296834886,-0.0002011926844716072,-0.00045599183067679405
1761509297215795700,7.186795654296875,0.0011777353938668966,0.0015850290656089783,0.002049485221505165
1761509297235954700,7.20695458984375,-0.0001288620987907052,0.002078304998576641,-0.000630923779681325
1761509297256112600,7.227112548828125,0.00018504168838262558,-0.0017650909721851349,-0.0045880284160375595
1761509297276270600,7.2472705078125,0.0011059099342674017,0.0011606980115175247,-0.0016990259755402803
1761509297296428800,7.2674287109375,9.292270988225937e-7,0.001507786102592945,0.0016966147813946009
1761509297316586800,7.287586669921875,-0.001850943430326879,0.00024674274027347565,-0.0011081979610025883
1761509297336744700,7.30774462890625,-0.0022946421522647142,0.00021929573267698288,-0.00010256306268274784
1761509297356902700,7.327902587890625,-0.0005048690363764763,-0.00006487779319286346,0.0014362768270075321
1761509297377060600,7.348060546875,0.001405402785167098,0.0005597583949565887,-0.0012131014373153448
1761509297397218800,7.36821875,0.0018993769772350788,-0.0023926198482513428,0.00004647555761039257
1761509297417377800,7.388377685546875,0.0006313156336545944,-0.001317715272307396,0.0017510809702798724
1761509297437535700,7.40853564453125,0.0017071017064154148,-0.00023198314011096954,-0.0025517805479466915
1761509297457693700,7.428693603515625,0.0004068443085998297,0.0021391771733760834,-0.000846565468236804
1761509297477851600,7.4488515625,-0.00044857372995465994,-0.00017460808157920837,-0.0024822023697197437
1761509297498009600,7.469009521484375,-0.0003135934239253402,0.0022253524512052536,-0.0022270784247666597
1761509297518167800,7.489167724609375,0.00013006594963371754,-0.002414420247077942,0.0015085110208019614
1761509297538325800,7.50932568359375,0.001965463627129793,-0.0002591470256447792,-0.0006744633428752422
1761509297558483700,7.529483642578125,0.002679539378732443,0.00104479119181633,0.0008577536791563034
1761509297578641700,7.5496416015625,-0.00007096026092767715,0.0019661663100123405,-0.00020370143465697765
1761509297598800600,7.569800537109375,-0.0003919793525710702,-0.0019493382424116135,0.00040193693712353706
1761509297618958600,7.58995849609375,0.0004236432723701,-0.0015693726018071175,0.0003093315754085779
1761509297639116800,7.61011669921875,-0.00023678469005972147,-0.0019600912928581238,-0.0016654697246849537
1761509297659274500,7.6302744140625,0.001097175758332014,-0.0005809729918837547,0.002290728036314249
1761509297679432700,7.6504326171875,0.0026411956641823053,0.0012375805526971817,-0.002026619855314493
1761509297699590700,7.670590576171875,0.0010992488823831081,0.00013578031212091446,-0.0003231035079807043
1761509297719748600,7.69074853515625,-0.0010250339983031154,-0.0003213062882423401,-0.0007717425469309092
1761509297739906600,7.710906494140625,-0.0014021327951923013,0.0006171353161334991,-0.0011109260376542807
1761509297760064500,7.731064453125,-0.00017981347627937794,0.0010225428268313408,0.0014613722451031208
1761509297780222700,7.75122265625,0.0004897715989500284,-0.0003736671060323715,0.0011025900021195412
1761509297800381700,7.771381591796875,0.001510172849521041,0.00010987557470798492,0.0001887937542051077
1761509297820539600,7.79153955078125,-0.00001746346242725849,0.0019270097836852074,0.00004167575389146805
1761509297840697900,7.81169775390625,0.0008240751922130585,0.0002449154853820801,-0.001154489815235138
1761509297860855600,7.83185546875,0.0011438862420618534,0.0004871273413300514,-0.002038633218035102
1761509297881013500,7.852013427734375,0.0005006350111216307,0.0012791641056537628,0.0004566849675029516
1761509297901171700,7.872171630859375,-0.0024431573692709208,0.0008929036557674408,0.00045874854549765587
1761509297921329700,7.89232958984375,-0.0007242909632623196,-0.00006232596933841705,-0.000761732691898942
1761509297941486800,7.91248681640625,-0.0020334564615041018,-0.004113991744816303,0.00004419637843966484
1761509297961644800,7.932644775390625,0.002976843388751149,-0.0006837807595729828,0.000441025011241436
1761509297981802800,7.952802734375,-0.0023515387438237667,-0.00029807165265083313,-0.00017208163626492023
1761509298001960700,7.972960693359375,-0.00013579963706433773,0.0029602395370602608,0.002217684406787157
1761509298022119700,7.99311962890625,-0.0025200387462973595,-0.003046957775950432,0.0023989123292267323
1761509298042278000,8.01327783203125,-0.0008230997482314706,0.0030404506251215935,-0.0005916086956858635
1761509298062435800,8.033435791015625,0.0004009581170976162,-0.001789480447769165,0.00019985460676252842
1761509298082593800,8.05359375,-0.0002380551304668188,0.000675540417432785,-0.001965748379006982
1761509298102751700,8.073751708984375,0.00041764858178794384,-0.0011404966935515404,-0.0010156119242310524
1761509298122909700,8.09390966796875,0.0026910605374723673,-0.001209530048072338,-0.00229604821652174
1761509298143068000,8.11406787109375,0.0008366128895431757,-0.001018531620502472,0.0005595830734819174
1761509298163225900,8.134225830078124,-0.0017933370545506477,0.001542920246720314,-0.002435741014778614
1761509298183383800,8.1543837890625,-0.00022419437300413847,0.0024498216807842255,-0.001550199929624796
1761509298203541800,8.174541748046876,0.00031171063892543316,-0.00011816807091236115,-0.0007532632444053888
1761509298223700700,8.19470068359375,0.0019845005590468645,-0.0006347019225358963,0.002701933728531003
1761509298243858700,8.214858642578125,0.0026870095171034336,0.0001977076753973961,0.0022729523479938507
1761509298264017000,8.235016845703125,0.0005067316815257072,-0.0007064873352646828,-0.002366401953622699
1761509298284174600,8.255174560546875,-0.0011991120409220457,0.0009378576651215553,0.0017534370999783278
1761509298304332800,8.275332763671875,-0.0004152953624725342,0.0017302865162491798,0.000389499356970191
1761509298324490800,8.29549072265625,0.0016883865464478731,0.0009706299751996994,0.0004309907089918852
1761509298344649000,8.31564892578125,0.0021744375117123127,-0.0001446995884180069,0.00008714827708899975
1761509298364807000,8.335806884765624,-0.00014637771528214216,-0.0007201256230473518,0.0005541257560253143
1761509298384964600,8.355964599609376,0.0024880666751414537,0.0009282464161515236,0.0012385975569486618
1761509298405122800,8.376122802734375,-0.0023584149312227964,0.00048230402171611786,-0.0003594879526644945
1761509298425280800,8.39628076171875,-0.0005755311576649547,0.0023559685796499252,-0.0004918240010738373
1761509298445439700,8.416439697265625,0.0012160739861428738,0.0010714568197727203,-0.00008736038580536842
1761509298465599700,8.436599853515625,0.00009434856474399567,0.0008409470319747925,-0.004544764291495085
1761509298485758000,8.456758056640625,-0.00012005690950900316,-0.002002342604100704,-0.00021369988098740578
1761509298505916000,8.476916015625,0.0014395758043974638,0.00014469027519226074,0.0014753621071577072
1761509298526075000,8.497074951171875,0.0003781062550842762,-0.0007056547328829765,-0.000020434148609638214
1761509298546232600,8.517232666015625,0.0003310050815343857,0.002111019566655159,-0.000838869484141469
1761509298566390800,8.537390869140625,-0.0007091836305335164,0.0005735727027058601,0.0012493941467255354
1761509298586548700,8.557548828125,0.0026754802092909813,0.00009659677743911743,-0.0015189277473837137
1761509298606707000,8.57770703125,-0.0018875785171985626,0.00007617473602294922,-0.002337472280487418
1761509298626865000,8.597864990234376,0.000753969419747591,0.0016359034925699234,-0.0008548875339329243
1761509298647022800,8.61802294921875,-0.0013902094215154648,-0.00039306655526161194,-0.0012843797449022532
1761509298667180800,8.638180908203125,0.00002186419442296028,0.0004850076511502266,-0.001575495582073927
1761509298687338800,8.6583388671875,-0.0024398101959377527,-0.0009259022772312164,-0.0005853234324604273
1761509298707497000,8.6784970703125,-0.0006988586392253637,-0.00007685180753469467,0.0022153884638100863
1761509298727654700,8.698654541015625,0.002599530853331089,0.00034873560070991516,0.0015689184656366706
1761509298747813600,8.718813720703125,0.0012596023734658957,0.0019253389909863472,0.0017615935066714883
1761509298767971800,8.738971923828124,0.0015058836434036493,0.00007532909512519836,0.0003850527573376894
1761509298788129800,8.7591298828125,-0.00003058859147131443,0.002255079336464405,0.0016219232929870486
1761509298808287700,8.779287841796876,-0.0007531839655712247,0.0008168304339051247,0.00011407746933400631
1761509298828446000,8.799446044921876,0.0022767563350498676,-0.0015334924682974815,0.0004739926662296057
1761509298848603600,8.819603759765625,0.0010324150789529085,-0.002254514954984188,-0.000058614881709218025
1761509298868761900,8.839761962890625,0.002368783811107278,0.0011655082926154137,-0.0033487651962786913
1761509298888919800,8.859919921875,-0.00042008981108665466,0.0005109226331114769,0.001354969572275877
1761509298909077800,8.880077880859375,-0.0011035981588065624,0.00037809088826179504,0.00006089615635573864
1761509298929235700,8.900235595703125,-0.0013094720197841525,-0.0016918880864977837,0.0012294522020965815
1761509298949393700,8.9203935546875,0.0002674688585102558,0.0015377113595604897,-0.0019630223978310823
1761509298969552000,8.9405517578125,0.0037707737646996975,0.0008588423952460289,-0.0011967355385422707
1761509298989710800,8.9607109375,0.00007874867878854275,0.00044081825762987137,0.0015688262647017837
1761509299009868800,8.980868896484376,0.003456181613728404,-0.0005595870316028595,-0.00003554695285856724
1761509299030027000,9.001027099609376,-0.0024562119506299496,0.0011953618377447128,-0.00034276535734534264
1761509299050184700,9.021184814453125,0.0005597879644483328,0.003177243284881115,-0.001197943463921547
1761509299070342700,9.0413427734375,-0.0018060291185975075,-0.0006013223901391029,-0.0013702132273465395
1761509299090500900,9.0615009765625,0.0007003690116107464,-0.00001645553857088089,0.0001330359373241663
1761509299110658800,9.081658935546875,0.0014797814656049013,-0.0005303937941789627,0.0006099671591073275
1761509299130816800,9.101816650390624,0.0015099146403372288,0.00330218393355608,-0.0013146898709237576
1761509299150974700,9.121974609375,-0.002111864509060979,0.000748438760638237,-0.002749198116362095
1761509299171133000,9.1421328125,0.0010164955165237188,-0.00002527330070734024,0.00008828938007354736
1761509299191291000,9.162290771484376,-0.001841653953306377,0.0007872153073549271,-0.0008970897179096937
1761509299211448800,9.18244873046875,0.0002363512758165598,0.0018235556781291962,-0.0013127401471138
1761509299231607600,9.202607666015625,0.0007339427247643471,0.0011455006897449493,0.0021409422624856234
1761509299251765800,9.222765869140625,0.0012312284670770168,-0.0011129248887300491,0.0003089921083301306
1761509299271923700,9.242923828125,0.0011355469468981028,0.00044018495827913284,-0.0009596955496817827
1761509299292082000,9.26308203125,-0.0028634676709771156,-0.00019363220781087875,0.0011462667025625706
1761509299312239900,9.283239990234375,-0.0033049823250621557,-0.0018293363973498344,-0.0017123182769864798
1761509299332397800,9.303397705078124,-0.000902097555808723,-0.0012095561251044273,0.0011560413986444473
1761509299352555800,9.3235556640625,-0.0005067110760137439,-0.0011537671089172363,0.001499083824455738
1761509299372713700,9.343713623046876,0.0013022155035287142,0.0006055347621440887,-0.0003987625241279602
1761509299392872000,9.363871826171875,0.0019314037635922432,0.0010990984737873077,-0.0013952276203781366
1761509299413030000,9.38402978515625,0.0006350686307996511,-0.0006687473505735397,0.00009857094846665859
1761509299433187800,9.404187744140625,0.00004584668204188347,0.0007058531045913696,0.0005343947559595108
1761509299453345800,9.424345703125,-0.0018972487887367606,0.0007773581892251968,-0.0010222848504781723
1761509299473503700,9.444503662109375,-0.0017916954820975661,0.0006005000323057175,0.0013602243270725012
1761509299493662700,9.464662841796875,0.0015052428934723139,0.0011830739676952362,-0.0002745422534644604
1761509299513821000,9.484821044921874,0.0015371681656688452,0.0006859628483653069,-0.00095149758271873
1761509299533978600,9.504978515625,-0.00004608789458870888,-0.0003008916974067688,-0.0010731960646808147
1761509299554136800,9.52513671875,-0.0017775457818061113,-0.00020458735525608063,-0.00030219508334994316
1761509299574294800,9.545294677734375,0.0002843060065060854,0.0019939150661230087,-0.000006137648597359657
1761509299594452700,9.56545263671875,-0.0003320554969832301,-0.0014047026634216309,-0.0011236441787332296
1761509299614611000,9.58561083984375,0.0011795952450484037,-0.001086680218577385,0.0003747120499610901
1761509299634768600,9.6057685546875,-0.00043803220614790916,0.0011192234233021736,-0.0018348107114434242
1761509299654926800,9.6259267578125,0.0013030620757490396,0.0007548164576292038,0.001638993970118463
1761509299675084800,9.646084716796874,0.00209277612157166,0.0027670729905366898,0.0005215231794863939
1761509299695243000,9.666242919921874,0.0004640731494873762,0.004105671308934689,0.0004707886837422848
1761509299715400700,9.686400634765626,0.0012320051901042461,-0.0016711661592125893,0.00009335414506494999
1761509299735558700,9.70655859375,0.002377841155976057,-0.0005533471703529358,0.0010018020402640104
1761509299755716900,9.726716796875,0.001298028277233243,0.00016496144235134125,-0.0003890814259648323
1761509299775875800,9.746875732421875,0.0020724600180983543,0.0016574384644627571,-0.0035093112383037806
1761509299796033800,9.76703369140625,0.0003448973875492811,0.006822176277637482,0.0009486326016485691
1761509299816192000,9.78719189453125,0.00031431904062628746,0.0024192705750465393,-0.0002625745255500078
1761509299836349700,9.807349609375,0.0002136554103344679,-0.0006064614281058311,-0.0017936748918145895
1761509299856508000,9.8275078125,-0.0021870608907192945,-0.0001769326627254486,-0.0030180129688233137
1761509299876665900,9.847665771484374,0.0013466582167893648,-0.00155623909085989,-0.0006919195875525475
1761509299896823800,9.86782373046875,0.0009776281658560038,-0.0018637701869010925,0.0011803763918578625
1761509299916981800,9.887981689453126,0.0025067187380045652,-0.00019342172890901566,-0.0011672952678054571
1761509299937140200,9.90814013671875,0.0011040507815778255,0.0000941641628742218,0.002233622595667839
1761509299957298200,9.928298095703125,-0.001682825619354844,0.00018745195120573044,-0.00043448503129184246
1761509299977456400,9.948456298828125,-0.0007348490180447698,-0.0002679666504263878,0.00009797862730920315
1761509299997614300,9.9686142578125,-0.001271848101168871,-0.00013208389282226562,-0.0005848431028425694
1761509300017772300,9.988772216796875,0.0001685027964413166,-0.0006856685504317284,0.0013016120065003633
1761509300037930200,10.00893017578125,0.003663337090983987,0.0004751356318593025,0.001276257447898388
1761509300058088200,10.029088134765624,0.0012284202966839075,0.0007438976317644119,0.002106161555275321
1761509300078247400,10.049247314453124,0.002141618635505438,-0.0007905913516879082,-0.0004817198496311903
1761509300098405400,10.0694052734375,0.00014629983343183994,0.00045438390225172043,-0.001283921068534255
1761509300118563000,10.08956298828125,-0.0013847008813172579,-0.0002901805564761162,0.00110807572491467
1761509300138721300,10.10972119140625,0.0008000913076102734,0.001022104173898697,0.002307569608092308
1761509300158879200,10.129879150390625,0.0001706141047179699,0.0008671162649989128,0.0007745563052594662
1761509300179037400,10.150037353515625,0.002180799376219511,0.00025149714201688766,0.0003987089730799198
1761509300199195400,10.1701953125,-0.00017165089957416058,0.0006708409637212753,0.002407340332865715
1761509300219353000,10.19035302734375,-0.0024135229177773,-0.0028703920543193817,0.0015239953063428402
1761509300239511300,10.21051123046875,-0.00246225344017148,0.000009785406291484833,-0.00016249576583504677
1761509300259669200,10.230669189453126,0.0005450739990919828,0.0008655181154608727,-0.000894979340955615
1761509300279827500,10.250827392578126,0.0009124921634793282,0.00317943561822176,-0.0022951955907046795
1761509300299985400,10.2709853515625,0.0031919346656650305,0.0031742025166749954,0.0007045557722449303
1761509300320143000,10.29114306640625,0.001029360806569457,-0.0026927581056952477,-0.001940558198839426
1761509300340301300,10.31130126953125,0.0007858546450734138,-0.0016388818621635437,-0.00022559030912816525
1761509300360459300,10.331459228515625,0.003053333144634962,-0.0026627900078892708,-0.0012789154425263405
1761509300380618200,10.3516181640625,-0.00025511730927973986,0.0002782326191663742,0.002192803891375661
1761509300400776400,10.3717763671875,-0.0001697090920060873,0.005128028802573681,0.004035855643451214
1761509300420934100,10.39193408203125,0.0026312132831662893,0.01546157244592905,0.008663954213261604
1761509300441092400,10.41209228515625,0.00255556870251894,0.029269978404045105,0.03259899467229843
1761509300461250300,10.432250244140626,0.00201346050016582,0.005206686444580555,0.014407292008399963
1761509300481408300,10.452408203125,-0.0010532696032896638,-0.00043213553726673126,0.008019611239433289
1761509300501566500,10.47256640625,-0.001276644179597497,0.00047100987285375595,0.003688829718157649
1761509300521724200,10.49272412109375,0.0006249719299376011,-0.001170906238257885,-0.002265951130539179
1761509300541882400,10.51288232421875,-0.0011263429187238216,-0.009180853143334389,-0.00905830878764391
1761509300562040300,10.533040283203125,0.0005675379652529955,-0.008318795822560787,-0.009071524254977703
1761509300582198300,10.5531982421875,0.001251384150236845,-0.00771021144464612,-0.007047802209854126
1761509300602356200,10.573356201171874,0.0007659182883799076,-0.0014127492904663086,-0.003269404172897339
