time,seconds_elapsed,z,y,x
1761481553913904400,0.065904296875,0.5669932472586632,0.5595388395994901,-0.03614599797457922
1761481553933846500,0.085846435546875,1.0157651887625456,0.08744447469711303,-0.2655179541452788
1761481553953789400,0.10578955078125,1.4342705868184566,-0.2734352483421564,-0.2525872704994865
1761481553973731300,0.1257314453125,1.3569833489984273,-0.48007718034982677,-0.13325400318112224
1761481553993674200,0.14567431640625,1.1363929711371659,-0.5337766218334437,-0.0072004328981041905
1761481554013616400,0.165616455078125,1.0573211879879236,-0.529355882781744,-0.12417283457033336
1761481554033559300,0.185559326171875,0.8114186742156744,-0.8260632856398821,-0.36218693318031725
1761481554053502200,0.205502197265625,0.13675707939863205,-0.9157897337943315,-0.8098723946217447
1761481554073444400,0.2254443359375,-0.2323094572275877,-0.8388222294479608,-0.904292407419905
1761481554093387300,0.24538720703125,-0.08195698319673538,-0.9111626585155725,-0.55593723491095
1761481554113329400,0.265329345703125,0.40263504422903057,-1.0610849244356155,-0.10398045282587408
1761481554133272300,0.285272216796875,0.6221972480863333,-1.5326666636407373,0.05137209451459348
1761481554153215500,0.305215576171875,0.8014572521716355,-1.5888497386336327,-0.16190072687491774
1761481554173157400,0.325157470703125,0.869456437164545,-1.128891801726818,-0.3258247762709856
1761481554193100500,0.3451005859375,0.5724328079640865,-0.967611690968275,-0.1968112236712128
1761481554213042200,0.365042236328125,0.3643313247978687,-0.7471405555725097,0.00741429484449327
1761481554232985600,0.384985595703125,0.3264098826825619,-0.7671914099544286,0.18311123615335673
1761481554252928000,0.404927978515625,0.2591010180413723,-0.9269903422445058,0.31910993493273854
1761481554272870100,0.4248701171875,0.08866495640277862,-0.6501134290158749,0.5226098425876349
1761481554292813000,0.44481298828125,-0.09342296458482742,-0.46159693628549575,0.8213339190304279
1761481554312755200,0.464755126953125,0.02362520573735237,-0.5177186364799737,0.9190869487088174
1761481554332698000,0.484697998046875,0.7459235809981822,-0.7899620446890592,0.7186831804383546
1761481554352640300,0.50464013671875,1.4182044181585312,-0.6014601650059223,0.12201261519598774
1761481554372583200,0.524583251953125,0.9831418530553578,-0.05481646281480789,0.009305579350655898
1761481554392526000,0.544526123046875,-0.4093237282127142,0.4280179072886705,0.17418335840813814
1761481554412468000,0.564468017578125,-0.8917384115993976,0.8587140938758849,-0.37915808785594995
1761481554432411000,0.584410888671875,-0.06809095492959022,0.9449977081000804,-0.9834291455641389
1761481554452353000,0.60435302734375,1.0475368760764598,0.8218325162023306,-0.9802152980841695
1761481554472296000,0.6242958984375,0.9270762669622897,0.40896716986000536,-0.20318576367180793
1761481554492239000,0.644239013671875,0.45809331207871434,-0.5041711726427078,0.5452975482791662
1761481554512181000,0.664180908203125,0.3032318361908197,-1.434775029209256,1.1682065978966654
1761481554532124200,0.684124267578125,0.6284831964880228,-1.0891104109585286,0.8626784674622118
1761481554552066000,0.704066162109375,0.38834056141674517,0.46589609478414057,-0.6187022455774247
1761481554572009000,0.724009033203125,0.16550678854286668,0.6686246527403593,0.3543385577674955
1761481554591951000,0.743951171875,0.19742928250432012,0.5466378569722176,0.9687495358917861
1761481554611894000,0.76389404296875,-0.07880348760187625,0.689953271973133,0.8318756982456892
1761481554631837200,0.783837158203125,0.17042261763513086,0.7434077987849712,1.0016172017488627
1761481554651778800,0.80377880859375,0.6800795282125472,0.5404249738067388,1.0900777216207236
1761481554671722000,0.823721923828125,0.6090075116455554,0.3536532789170742,0.9071662823557853
1761481554691664000,0.843663818359375,0.7484130597263574,0.06741700119078159,0.7936698131658136
1761481554711607000,0.86360693359375,0.8482751174479722,0.002806289592385292,0.8872998446300625
1761481554731550000,0.883550048828125,0.6954156290322542,0.2179085914313793,0.9598139497641474
1761481554751492000,0.9034921875,0.5934346794605255,0.28080256223976613,0.8759957027401775
1761481554771435000,0.92343505859375,0.3539350184679031,-0.03957973071634769,0.9288617621395736
1761481554791377200,0.943377197265625,0.21576748774945734,-0.19477555312514305,0.8182244817730039
1761481554811320000,0.963320068359375,0.16892916420698165,-0.3092494890451431,0.6668558895021677
1761481554831263000,0.983262939453125,-0.2647983529001474,-0.5457435384809971,0.2569147965760901
1761481554851205000,1.003205078125,-0.47684068264663215,-0.4782505494445562,-0.23476240333765744
1761481554871148000,1.02314794921875,-0.31722587475180625,-0.32288521568775175,-0.19208647843794896
1761481554891090200,1.043090087890625,-0.25844518448114395,-0.3879647138416767,0.42626558372862633
1761481554911033000,1.063033203125,-0.31059330486953257,0.03175239809155464,0.30034968661693856
1761481554930976300,1.082976318359375,-0.3938707230150699,-0.10438742619156836,0.4051665720006451
1761481554950918000,1.10291796875,-0.22024317185878753,-0.26907588408887384,0.5048900980344042
1761481554970861000,1.122861083984375,-0.0467336941242218,-0.3056768912553787,0.4725811620386317
1761481554990803000,1.142802978515625,-0.049775546038150785,-0.21880349444448946,0.38856348345242436
1761481555010746000,1.16274609375,0.016328034466505048,-0.15757131936848162,0.340903212535195
1761481555030688000,1.18268798828125,0.06617956835031509,-0.18507775045335292,0.42796946503706274
1761481555050631200,1.202631103515625,-0.14622808757722378,-0.3014116350263357,0.3283426043108105
1761481555070574000,1.222573974609375,-0.29401801764369007,-0.3660498191535473,0.012293406372272874
1761481555090516000,1.242515869140625,-0.05006897602677345,-0.38500294142663477,-0.00815984109834535
1761481555110459100,1.262459228515625,0.3463888408720493,-0.2941536267220974,-0.16023920513717457
1761481555130401000,1.282401123046875,0.5517939245611428,-0.3005827829867601,-0.23081481648935004
1761481555150344200,1.30234423828125,0.508413632518053,-0.357141121032834,-0.1899906386698596
1761481555170287000,1.322287109375,0.31076106265187264,-0.15119652363955974,-0.1305437030428089
1761481555190229000,1.34222900390625,0.10066694436371326,-0.024675591573119163,-0.11029101507901214
1761481555210172000,1.362171875,0.2149590939760208,-0.07602057888507843,-0.23663902913080526
1761481555230114000,1.382114013671875,0.16179565906524657,-0.1672048246324062,-0.2812874414135702
1761481555250058000,1.40205810546875,0.10392448485493659,-0.13401684077978132,-0.20418527783686294
1761481555269999900,1.421999755859375,0.19521277549862862,-0.12508826891481875,-0.050622321893484326
1761481555289943000,1.441943115234375,0.530616696497798,0.12843757934272287,0.005586335065239109
1761481555309886000,1.461885986328125,0.7654442740261554,0.3487082237303257,-0.02490289295639377
1761481555329827800,1.481827880859375,0.8995604835271834,0.46777182552814484,-0.056189226172468625
1761481555349770800,1.501770751953125,0.9886159005522728,0.4548007002741098,0.0578141878926428
1761481555369713000,1.521712890625,1.2143173378169536,0.44437867498099803,0.0357141641622642
1761481555389655800,1.54165576171875,1.4067898746967316,0.5583306328535079,-0.06212870379062369
1761481555409598700,1.5615986328125,1.3262445118635893,0.7972761670947074,-0.22466140842614693
1761481555429540900,1.581540771484375,1.010433764606714,1.2116846512258053,-0.34458040321059524
1761481555449483800,1.60148388671875,0.901308788499236,1.6828589786738157,-0.4204662132674828
1761481555469426000,1.621426025390625,1.1235276443451643,2.456490650808811,-0.8574166014112532
1761481555489368800,1.641368896484375,1.241771161931753,3.155127579975128,-0.9709282681703567
1761481555509312000,1.66131201171875,1.1724649859935043,3.377362217912078,-0.5372998275235294
1761481555529254000,1.68125390625,1.3278642220199108,3.121482500004768,-0.13919961371254175
1761481555549197000,1.701197021484375,1.936571873936057,2.6423750414699314,-0.5338748945761471
1761481555569138700,1.721138671875,2.00309046498239,0.08624971195459365,0.1767286589767784
1761481555589081900,1.741081787109375,1.0409089823693036,-1.1632593507528304,0.9023868660595268
1761481555609023700,1.761023681640625,-1.2000514965772628,-2.666570740571618,1.4447637776516378
1761481555628967000,1.780966796875,-1.1365297492593527,-3.702437637120485,0.21547972031664103
1761481555648909800,1.800909912109375,-2.1354104387164115,-5.577119164332747,-0.5301300820246339
1761481555668852000,1.82085205078125,-3.508623037981987,-5.54641539851129,-0.37519868270568546
1761481555688795000,1.840794921875,-4.722667988598347,-4.412096895560622,0.4740586507126689
1761481555708737000,1.860737060546875,-4.3271220258474345,-2.5321248607248066,0.37811570266354827
1761481555728680000,1.880679931640625,-2.779522873751819,-2.8041736231446266,1.341092244644463
1761481555748622800,1.900622802734375,-0.8865840975761413,-3.114492787247896,1.3865709702715276
1761481555768565000,1.92056494140625,0.7684528081923723,-3.7705642478853463,0.9644145754273981
1761481555788508000,1.9405078125,0.88489862870723,-3.414717258316278,1.1045745220720766
1761481555808450000,1.960449951171875,0.4419157919988036,-2.3034014452904463,0.8970297229405492
1761481555828393000,1.98039306640625,0.5411246465086936,-1.7174387091457843,0.5134728156037628
1761481555848334800,2.0003349609375,0.0947305400520563,-1.2737404176443814,0.09754336898308247
1761481555868277800,2.02027783203125,-0.02426525720655918,-0.7381406720370054,-0.03513286170954816
1761481555888220700,2.040220703125,-0.15949205829799173,0.019553426253795622,-0.5859201025793328
1761481555908162800,2.060162841796875,-0.046750352998077865,0.3567757948517799,-1.2016320437669754
1761481555928105700,2.080105712890625,0.010465279912948608,0.8824953669577836,-1.6304584909595548
1761481555948048000,2.1000478515625,-0.16024667605757711,1.6731494855642317,-1.4751939872287212
1761481555967990800,2.11999072265625,0.02976473140567541,2.5636878737241027,-0.8907257274255156
1761481555987934000,2.139933837890625,0.5172714772343635,3.032545740923285,-0.23233652789760378
1761481556007875800,2.159875732421875,1.025281789648533,3.219465319851041,-0.20858097377885132
1761481556027819000,2.179819091796875,1.3572680111587048,3.3867665905952453,-0.5516281760727987
1761481556047761000,2.199760986328125,1.5776777717560528,3.5991339145123957,-0.3992077731940895
1761481556067704000,2.2197041015625,1.7790899864166974,3.420732573083043,0.6284498787403107
1761481556087645700,2.239645751953125,2.2577660677969456,2.7056992203891275,1.570027987655252
1761481556107588900,2.2595888671875,2.457478492802381,1.5604180093973874,1.1553344029724597
1761481556127531800,2.27953173828125,1.6820856562137603,0.7474877615749835,0.03175968634886667
1761481556147474000,2.299473876953125,0.6294768837004899,-0.4511667276859283,0.30836386531703175
1761481556167416800,2.319416748046875,-0.4580740228563547,-1.067898696103692,0.4730225125979632
1761481556187359000,2.33935888671875,-1.1148273282781243,-0.9351683880031109,-0.06062473810161464
1761481556207302000,2.359302001953125,-1.2616598114892839,-0.9259329421460628,-0.7917839263539761
1761481556227244800,2.379244873046875,-0.785475254663825,-1.2772247526288032,-1.0792103637129067
1761481556247190300,2.399190185546875,0.010188216537237166,-1.3121072654396295,-0.6742821670453996
1761481556267133200,2.41913330078125,0.37105157296359537,-1.0120184034496544,-0.07894249421376734
1761481556287075000,2.439074951171875,0.31077684474289413,-0.3318307386875152,0.17495686353128403
1761481556307018000,2.45901806640625,0.525972670084238,0.33024960697591305,0.23530226410171015
1761481556326960000,2.478960205078125,1.4050216959804296,0.693355189371109,0.5999641908271238
1761481556346903000,2.498903076171875,2.2774206163376567,1.1395645869106055,1.139390107126534
1761481556366846200,2.51884619140625,2.3519436501413584,1.7737281671226024,0.8524600749824196
1761481556386788000,2.5387880859375,1.9387454185828565,2.2105144872784614,0.42761590235903857
1761481556406731000,2.55873095703125,1.6521318319767713,2.613423672273755,-0.16991777338553218
1761481556426673200,2.578673095703125,1.744455895408988,3.0862393371880055,-0.6550421175897121
1761481556446616000,2.598615966796875,1.8762179429993033,3.6161511002868414,-0.6980551837556064
1761481556466559200,2.618559326171875,1.5704408062398432,4.216965953126549,-0.360199595288001
1761481556486501000,2.638501220703125,1.3620792108327149,5.0500288883954285,-0.37903493640031666
1761481556506444300,2.6584443359375,1.6274661772757768,5.273407435670495,-0.5469199253166094
1761481556526386000,2.678385986328125,2.269333171471953,4.282164693745971,-0.4521341479459777
1761481556546329000,2.6983291015625,2.153065337872505,2.6295792727828022,0.14555000565256923
1761481556566271000,2.71827099609375,0.5837240173071623,0.7276783147335052,1.1172708489727228
1761481556586214100,2.738214111328125,-0.1859714844226837,-2.7084873898029325,1.2750640674635767
1761481556606157000,2.758156982421875,-1.726540299490094,-6.127105747210979,0.2632493333598599
1761481556626099200,2.77809912109375,-5.451887687554955,-7.328910224935412,-0.897978913424164
1761481556646042000,2.7980419921875,-8.020838596373796,-8.190642205327748,0.030592341336235403
1761481556665984300,2.817984375,-5.481561525806784,-9.380483273535967,2.9640771848529575
1761481556685927200,2.83792724609375,-5.716438203173875,-9.816261877954005,3.977998791575432
1761481556705870000,2.8578701171875,-7.730100915575027,-9.602660043805837,3.814863700599968
1761481556725812200,2.877812255859375,-6.0750979120761155,-8.860608920326829,2.2670655188009143
1761481556745755100,2.897755126953125,-2.6953169425845145,-7.117094689682125,0.3797954724440351
1761481556765697300,2.917697265625,-0.1946680010974407,-4.408355955466628,-0.390194993644394
1761481556785640200,2.93764013671875,-0.21700959676504133,-0.7997884421765804,-0.622202362652868
1761481556805582000,2.95758203125,-0.6194494106829166,2.1572651276499033,-0.9623704293139278
1761481556825525000,2.97752490234375,1.051841295272112,3.147107939648628,-2.2417960529878735
1761481556845468200,2.99746826171875,3.588997135901451,3.4985160699874163,-3.0071050101965664
1761481556865410000,3.01741015625,5.7194239409863945,3.973752824568748,-2.213995315131545
1761481556885353200,3.037353271484375,6.2842655631691215,5.204831912094354,-1.5650072368837893
1761481556905295000,3.057295166015625,5.614994429218768,6.2369222127139565,-0.5702594459803775
1761481556925238000,3.077238037109375,4.57967055350542,6.554812104332447,0.2508844486369751
1761481556945181200,3.09718115234375,4.3051580313205715,6.5633443703562016,0.34188846071287987
1761481556965123000,3.117123046875,4.678120406341552,6.160523448166251,0.25114625964462756
1761481556985066200,3.137066162109375,5.07182746322751,5.765021909078955,-0.14488452748116104
1761481557005008100,3.157008056640625,4.669486433508992,5.460480743855237,-0.3151868066722527
1761481557024951300,3.176951416015625,3.5037656610786914,5.766867829206586,-0.08223013758230954
1761481557044894200,3.196894287109375,2.6335698037236925,5.513227999180555,0.16072824902944266
1761481557064836000,3.216836181640625,2.3355963264524937,4.989428581482172,0.44444786775968964
1761481557084779000,3.236779052734375,1.8183493991374968,3.552144199800491,0.08828680727276951
1761481557104721200,3.25672119140625,1.0509311946898698,1.1188947238475084,0.22633608190640805
1761481557124664000,3.2766640625,1.7480781775593757,-1.6044775158762932,1.8571264351688324
1761481557144606200,3.296606201171875,1.0575129111677408,-3.8312639235198493,2.090625540572405
1761481557164549000,3.316549072265625,-4.330258862568438,-6.542101675841212,-0.5015264302875846
1761481557184492000,3.336491943359375,-8.544584238058329,-8.727674029564858,-2.074231016740948
1761481557204434200,3.35643408203125,-7.35202046688795,-7.976929312020539,-1.5715234869100152
1761481557224377000,3.376377197265625,-3.9834190630584954,-7.368454299816489,0.7894310065522789
1761481557244319200,3.3963193359375,-2.818441802471876,-7.4826757222801445,1.418241827559471
1761481557264259000,3.416259033203125,-3.5508325326800345,-7.55614661668241,0.7431039935328065
1761481557284202000,3.436201904296875,-2.132036870630085,-6.9245870814889665,1.4567068750321863
1761481557304144100,3.45614404296875,0.6578425619632006,-5.720528102836012,2.2271673697851595
1761481557324087000,3.476087158203125,2.130457200223207,-4.233100510847568,0.7800286796957254
1761481557344029200,3.496029296875,3.255807968342304,-2.2821488139033317,-0.753916479448229
1761481557363972000,3.51597216796875,3.042953153169155,-0.05974339782297611,-1.1063723652742803
1761481557383914200,3.535914306640625,2.6219734739542004,1.923749801763892,-0.5881476789683103
1761481557403857200,3.555857177734375,1.8258020532310009,3.1033716737747192,-0.5198482689198106
1761481557423800300,3.57580029296875,1.9067992514848708,3.887420695027709,-0.8090412775598466
1761481557443742000,3.595741943359375,1.9364584766894577,4.208142010679841,-0.9472875726029276
1761481557463685000,3.61568505859375,1.975366007232666,4.678212176278233,-0.9561594458445906
1761481557483627000,3.635626953125,2.5116139876157044,5.4767193464726205,-0.3231508078213781
1761481557503570200,3.655570068359375,3.029821284395456,6.275836172997951,0.970460139201954
1761481557523513000,3.67551318359375,3.0917654071331024,6.791690769171715,1.6131016979672015
1761481557543455200,3.695455322265625,3.4767543200343844,6.924704570388793,1.541218803408742
1761481557563398100,3.715398193359375,4.130082034921646,6.44018268558979,0.46980070100724697
1761481557583340300,3.73534033203125,4.69147731604278,5.486540483263135,-0.43659247808419166
1761481557603283200,3.755283203125,5.258099391901493,5.102407310408354,-0.4712970770448446
1761481557623226000,3.77522607421875,4.3857238524198525,4.729990294310451,0.3661037047652527
1761481557643168300,3.795168212890625,2.0354571955800056,3.0661037271320817,1.1755227661289274
1761481557663111200,3.815111083984375,0.22603578378558156,0.2514636550307274,1.6307504596434532
1761481557683053000,3.835052978515625,0.1272387249469757,-3.2826427837759256,1.4990484716773032
1761481557702996000,3.854995849609375,-0.8969681289464235,-6.417133818435668,0.19072730064764618
1761481557722938000,3.874938232421875,-5.410423458266258,-8.310909922218322,-1.6307286862030623
1761481557742881000,3.894881103515625,-9.214495423477887,-8.484162794843316,-1.685663222439587
1761481557762824000,3.914823974609375,-9.831422037684916,-8.82155409026742,-0.1952965082593262
1761481557782766000,3.93476611328125,-6.102641168040037,-8.595225461015104,-0.1538420331796631
1761481557802709000,3.954708984375,-4.508690891396999,-8.81250744498074,-0.2131093013908714
1761481557822651100,3.974651123046875,-6.058984981665015,-8.669063435164093,-0.46870574537739157
1761481557842594000,3.994593994140625,-6.282153101059794,-8.055749750757217,-0.6402228802509605
1761481557862537200,4.014537109375,-3.900052213063836,-6.549400600677728,-0.3217581844191998
1761481557882479000,4.03447900390625,-1.1275479859024287,-4.889064419457316,0.15605112406387925
1761481557902422300,4.05442236328125,0.11681085443496704,-3.0249668301016093,-0.476062574413605
1761481557922364200,4.0743642578125,0.6881681421220303,-0.958247650295496,-1.0274293961364775
1761481557942307300,4.094307373046875,1.6027724655240774,1.2135288177877663,-0.9714349025182425
1761481557962250200,4.114250244140625,1.8393015862733124,2.9260242253124713,-0.5909606905624271
1761481557982192000,4.134192138671875,1.4744395155996084,4.2030648535460235,-0.49715815207548436
1761481558002135000,4.154135009765625,2.095264890810847,4.856435823053121,-0.6331043534826487
1761481558022077200,4.1740771484375,3.8435020583242174,5.359726121208071,-0.5494004535533488
1761481558042020000,4.19402001953125,5.636552765554189,6.016646892151236,-0.29428395683718844
1761481558061962200,4.213962158203125,6.419513991570472,6.52444326955378,-0.026484303229209034
1761481558081905200,4.2339052734375,5.700722747647762,6.562870323103666,0.3558122470492497
1761481558101848000,4.25384814453125,4.6318718653857704,6.417618387082219,0.21688257285188883
1761481558121790200,4.273790283203125,4.4983302409023045,6.10157324654758,-0.1790942921295762
1761481558141733000,4.293733154296875,4.596255193081498,5.784796284607053,-0.5496344084396958
1761481558161675300,4.31367529296875,4.382412535914779,5.369764115619659,-0.4573200992165133
1761481558181618200,4.3336181640625,3.558733515062928,4.215823212832213,0.38414212334621695
1761481558201561000,4.35356103515625,2.461932549601793,2.1474457444250583,0.37662630435600875
1761481558221503000,4.3735029296875,1.8516963729441165,-0.706309363490343,0.8786937827177346
1761481558241446100,4.393446044921875,0.5020750771462917,-4.217005700615048,1.9987230635531246
1761481558261388000,4.413387939453125,-1.9972341401696203,-7.279692312780022,0.9167788909621536
1761481558281331000,4.4333310546875,-4.980245742595195,-9.489640982869266,-0.34936434955149887
1761481558301274000,4.453274169921875,-10.455048441791535,-8.639867735818028,-0.9890428937926888
1761481558321216000,4.473216064453125,-13.024092289590834,-6.9321309209972615,-0.13961500784670933
1761481558341159200,4.4931591796875,-9.0527927033931,-6.599075608950853,0.4845359498569742
1761481558361100800,4.513100830078125,-6.015962417018414,-6.788187729486823,-0.6157831432603299
1761481558381044000,4.5330439453125,-5.296490789616108,-6.167100488469004,-1.4353019756928085
1761481558400985900,4.55298583984375,-3.886155205136537,-5.100309461346268,-1.2980974447876215
1761481558420929000,4.572928955078125,-1.3900211107254028,-3.6331460742294786,-0.9670333065584301
1761481558440872000,4.592871826171875,1.4514058460146189,-1.6887082892239094,-1.2815278566502033
1761481558460814000,4.61281396484375,3.9717917536288496,-0.3510305291980505,-0.880082679792866
1761481558480757000,4.632757080078125,5.332769725221395,1.1214245345860718,-1.030262135344371
1761481558500699100,4.65269921875,5.205851318269968,2.4130875624120236,-1.7035412628270685
1761481558520642000,4.67264208984375,3.6894063061118123,3.416870052435994,-2.581516668142378
1761481558540585000,4.6925849609375,2.411276713597774,4.395902716606855,-2.7040190122172234
1761481558560527000,4.712527099609375,2.603345345851779,5.509139268562198,-1.5860158303819596
1761481558580470000,4.732469970703125,4.393736478483676,5.993194704893231,0.021482458087615668
1761481558600412000,4.752411865234375,5.885793483838438,6.361234821081161,0.6067056644439697
1761481558620354800,4.772354736328125,6.054532678431272,5.943600360640883,0.656407926050201
1761481558640298000,4.792298095703125,5.481300244522094,5.7123424582928415,0.963184229914844
1761481558660240000,4.812239990234375,4.83448702609539,5.808206386289,1.5785520703725515
1761481558680183000,4.83218310546875,3.71481196552515,5.785242859330773,1.48632123818174
1761481558700125000,4.852125,1.8705027802228926,5.0649546548485755,0.08598843066990375
1761481558720068000,4.872068115234375,0.8153443232268095,4.792358779940009,0.3144164433542639
1761481558740011000,4.892010986328125,-0.24636662415266036,4.497011559519171,1.2713986768238246
1761481558759953000,4.911952880859375,0.33226153132021424,2.935494064447284,2.4680545396134255
1761481558779896000,4.93189599609375,2.429071313485503,-0.0157288995295763,2.857334135445952
1761481558799838000,4.951837890625,3.951895213025808,-0.7202379355996846,0.6616565672934055
1761481558819781000,4.971781005859375,-0.29148177716434,-3.93534915189445,1.3863188952066003
1761481558839723000,4.991722900390625,-5.258706125622988,-7.5844912521570915,3.29736747469902
1761481558859666200,5.011666259765625,-5.5118748310059305,-7.760617634391784,1.9007567564502357
1761481558879609000,5.031609130859375,-2.931556140476465,-8.732339683288336,1.347421301535517
1761481558899551000,5.051551025390625,-4.708023961696028,-9.902291809678077,1.2685337889119983
1761481558919494000,5.071493896484375,-8.55629162698686,-10.006028078484535,0.27460257508847863
1761481558939436000,5.09143603515625,-8.63549726564884,-9.502393496936559,-0.1445152740436606
1761481558959379000,5.11137890625,-3.9959026970565317,-7.814041766065358,-1.7659744842559097
1761481558979321900,5.13132177734375,0.8346037349700928,-6.1799237296849485,-2.157085971690714
1761481558999264000,5.151263916015625,3.7571465479075905,-4.963294023272395,-1.687935697416216
1761481559019207000,5.17120703125,2.9530209533095357,-2.422019641408324,-2.4009257077142596
1761481559039149000,5.191149169921875,1.428577928134799,0.6124111826092005,-2.348380696962774
1761481559059092000,5.211092041015625,0.8340952009260654,3.2709172746688124,-1.6985946002051233
1761481559079035100,5.23103515625,1.7111048299491405,4.949546652948856,-0.41053189842607823
1761481559098978000,5.25097802734375,3.4518291376143693,5.970753155982494,0.13089606927759012
1761481559118920200,5.270920166015625,4.949436762833595,7.0519386191606515,-0.5277105632601305
1761481559138863000,5.290863037109375,5.573528446364403,7.861343030944466,-0.7528659474819898
1761481559158805000,5.310804931640625,5.145419353660941,8.01945094140768,-0.6805016260821372
1761481559178748000,5.330747802734375,4.559517407792806,7.73067374702692,-0.559568942476809
1761481559198690800,5.35069091796875,4.480906227892637,7.525713484495878,-1.454680629901588
1761481559218633000,5.370633056640625,5.134711497163773,7.409427530717849,-1.7233038017868996
1761481559238575900,5.390575927734375,5.731995837789774,7.119519871002435,-0.9176943983718753
1761481559258517200,5.410517333984375,4.963666363716126,6.159205935826897,0.6962630396418273
1761481559278460200,5.430460205078125,3.2457214586138723,4.025370783603191,1.264468439169228
1761481559298402300,5.45040234375,1.154423717868328,0.006886836904287338,1.3364723297588526
1761481559318345200,5.47034521484375,0.7956605485916137,-3.8914457127600905,0.7584424324400723
1761481559338288400,5.490288330078125,-0.8832721965491771,-5.820004376110434,-0.5814730235099792
1761481559358230300,5.510230224609375,-5.042331319630145,-6.533689236804842,1.4249509698092937
1761481559378173400,5.53017333984375,-6.697263595980405,-8.00908269212842,3.3902854123711585
1761481559398115300,5.550115234375,-4.790243979743122,-9.572808510899543,2.200788627555966
1761481559418058500,5.57005859375,-3.3576708444923162,-10.457026463866233,1.23068044359684
1761481559438001400,5.59000146484375,-5.491017920938134,-11.030146669572591,2.212697968797386
1761481559457943600,5.609943603515625,-7.93007871351838,-10.294781891989707,3.2967394059285517
1761481559477886500,5.629886474609375,-9.16874080351889,-6.925248175746202,3.5882474865779277
1761481559497828600,5.64982861328125,-7.182319149264693,-3.620800971919298,2.6957702393099665
1761481559517771500,5.669771484375,-1.1143676018118858,-2.10616973118484,1.2617270315065978
1761481559537714400,5.68971435546875,4.701610587522387,-1.0297942986369133,0.03952309602512978
1761481559557656300,5.70965625,5.593896696132421,1.0106348401367664,-0.6244322405967861
1761481559577599200,5.72959912109375,3.9552714114606378,3.162739224022627,-0.28941130929952485
1761481559597541400,5.749541259765625,2.9093408015370366,3.677612992465496,0.15160367966834454
1761481559617484300,5.769484375,2.46203191832304,3.665093118110299,-0.1793494724670425
1761481559637427500,5.789427490234375,2.4095348383665085,4.916154086434841,-0.779762722235918
1761481559657369300,5.809369384765625,4.612656292784214,5.873626076182723,-0.6475025158651173
1761481559677312300,5.829312255859375,6.89421941575408,6.448651823249459,-0.6854233734585344
1761481559697254400,5.84925439453125,7.522329102754592,6.177817112794518,-0.7607711676485837
1761481559717197300,5.869197265625,6.496978339523077,5.213948115485906,-1.1242156266093253
1761481559737140500,5.889140380859375,4.748469953852892,4.777203880906105,-1.4123475088238715
1761481559757082400,5.909082275390625,3.3752047476172446,4.996996970909834,-1.311720311948657
1761481559777025500,5.929025634765625,2.365603342181444,4.913652917268872,-1.0708311693590133
1761481559796967200,5.94896728515625,2.3979753334760665,4.07479620102942,-0.2624346194434911
1761481559816910300,5.968910400390625,2.7610698099553583,1.892212507727742,0.9981916842795908
1761481559836853200,5.988853271484375,1.426623286935687,-0.05409983897805214,1.2481836593225597
1761481559856795400,6.00879541015625,-0.9899901115149259,-2.5006004261702297,-0.41263621376156806
1761481559876738300,6.02873828125,-4.104661177939176,-5.451242375388741,-2.90753492115885
1761481559896680400,6.048680419921875,-7.870911069756746,-7.243650693061947,-1.1651211991019546
1761481559916623400,6.068623291015625,-9.029420595633983,-5.638533710238337,2.855136333140731
1761481559936565500,6.0885654296875,-5.973722527182102,-4.446550369304418,4.168035918001831
1761481559956508400,6.10850830078125,-5.180766561374068,-6.126188047844171,1.613336237375438
1761481559976451300,6.128451416015625,-6.679812694963813,-8.48668909845054,-3.158958536440134
1761481559996393500,6.1483935546875,-7.0702937755405895,-8.65168735294938,-3.609396949851513
1761481560016336400,6.16833642578125,-5.0015521499961615,-7.1340616065740585,-0.6958824428264051
1761481560036278500,6.188278564453125,-1.7115648486763237,-4.997642867597937,-0.18186580266952512
1761481560056221400,6.208221435546875,0.7893605716645717,-3.1797207539618015,-0.7118467585470527
1761481560076164600,6.22816455078125,2.148563350278139,-0.8703203605175018,-0.5305256937460974
1761481560096106200,6.248106201171875,2.9046207872778176,1.9751485650897025,0.6702988695628941
1761481560116049400,6.26804931640625,3.3255057739466425,3.949683966717124,1.8378578172057867
1761481560135991300,6.2879912109375,3.5098803445667026,4.86934498898685,1.2713165514983236
1761481560155934200,6.307934326171875,2.382444586867094,4.549335620996356,-0.916307327927649
1761481560175877400,6.32787744140625,1.7041875979065895,4.366411249184608,-2.2440701353996992
1761481560195819300,6.3478193359375,2.42985983351469,4.95409014159739,-2.7261419966980815
1761481560215762400,6.367762451171875,3.489194699412584,5.193800230470299,-1.1618651199154555
1761481560235704300,6.387704345703125,4.2246202672719955,5.864412842157483,-0.11756291491128504
1761481560255647500,6.4076474609375,5.360355651283264,5.5772384067982435,0.7060995931971817
1761481560275590400,6.42759033203125,6.499200107225775,5.033154910483956,0.2150563438054174
1761481560295532500,6.447532470703125,6.618883886748552,4.172351150852442,-0.4047573701452464
1761481560315475500,6.467475341796875,4.189018792536855,3.206348064124584,-0.4059381408950314
1761481560335417300,6.487417236328125,-0.34350656343400476,2.26646726064682,-0.23105784973129628
1761481560355360300,6.5073603515625,-3.3465134906619785,0.5614899736672639,0.3531592483224347
1761481560375303200,6.52730322265625,-2.9427532417953013,-1.5753887840360403,0.7138226617299019
1761481560395245300,6.547245361328125,-1.9333675249367952,-2.969893762177229,-0.4710120860910043
1761481560415188200,6.567188232421875,-3.1952672826617956,-2.6680910820066925,-2.9669530325502156
1761481560435130400,6.58713037109375,-4.269659432438016,-2.769725994619727,-1.0162428162116557
1761481560455073300,6.6070732421875,-3.776726862168312,-3.8000101226001974,2.783385102137923
1761481560475016400,6.627016357421875,-2.082475551864505,-4.979665896880626,3.794328569832444
1761481560494958300,6.646958251953125,-0.36474750438332554,-5.407068887141347,2.7330791024848815
1761481560514901500,6.666901611328125,-0.7468810278534889,-6.222735281929373,1.8303852893680332
1761481560534843400,6.686843505859375,-1.5454250229269266,-6.808356072768569,1.7467025052919982
1761481560554786600,6.70678662109375,-1.8828239171355963,-6.978387645259499,2.1317733973883093
1761481560574729500,6.7267294921875,-2.4478373887538907,-5.221638085466623,0.1559961790062487
1761481560594671400,6.74667138671875,-2.1624434070706364,-2.9899060381144285,-1.7016246155507861
1761481560614614500,6.766614501953125,0.8610784849196672,-0.5524024118483066,-0.8540458828691393
1761481560634556400,6.786556396484375,4.411160491493344,1.6677800674855707,0.3537811430804431
1761481560654499300,6.806499267578125,5.54333964432776,3.5508278565049167,0.5685857771471142
1761481560674442200,6.826442138671875,4.4585026729047295,4.7584056569337845,0.2924137242522091
1761481560694384400,6.84638427734375,2.154879693818092,5.329345011469721,0.07607961559593678
1761481560714327300,6.866327392578125,1.086479477933049,5.360022473806143,-0.13264025519695133
1761481560734269400,6.88626953125,1.0826631345152855,5.147842196893691,0.06777520351130514
1761481560754212400,6.90621240234375,2.7870681745648382,4.794816109964251,0.6381723043967038
1761481560774155300,6.9261552734375,4.415390091887116,4.960573658397793,0.6058419237541034
1761481560794097400,6.946097412109375,5.4945396653234955,4.7811388822674745,0.735945353949815
1761481560814040300,6.966040283203125,4.2858530268698924,3.8392835638463496,1.0572023839138447
1761481560833982500,6.985982421875,2.3180372888863086,3.0865923884093758,0.37498376131337136
1761481560853925400,7.00592529296875,0.7736158900439739,3.02442439378798,-0.544003014956601
1761481560873868500,7.02586865234375,0.16936229492723942,2.8301217188715935,-1.1392401772618292
1761481560893810200,7.04581005859375,-0.10681669916510582,1.3203724049597978,0.25128533932175484
1761481560913753300,7.06575341796875,0.4142331275641918,-0.7845575552970171,1.7002483587615191
1761481560933695200,7.0856953125,0.7566834599435329,-1.4711948345899581,2.034587719269097
1761481560953638400,7.105638427734375,1.576401760470867,-1.8554501725196837,0.9178465201936662
1761481560973581300,7.125581298828125,0.08177928854227065,-3.604618483403325,0.8931223402384668
1761481560993523500,7.1455234375,-3.1041210308372973,-5.768779215785861,2.7772832781314847
1761481561013466400,7.16546630859375,-5.928066691422462,-6.488385283222794,1.2960107016414404
1761481561033408500,7.185408447265625,-5.844567739480733,-7.293975689676404,-1.2613885933324693
1761481561053351400,7.205351318359375,-6.23958295635581,-7.461169992914796,-2.3205703144952654
1761481561073293600,7.22529345703125,-8.319021917003393,-6.435550934135914,-1.3426280759096145
1761481561093236500,7.245236572265625,-9.312151495587825,-6.11238982411623,0.08539698584908618
1761481561113179400,7.265179443359375,-5.92348228624165,-6.170362705135345,-1.3950512138471007
1761481561133121500,7.28512158203125,-1.269724167740345,-4.881643329545855,-2.275395978642255
1761481561153064400,7.305064453125,1.3372411221742628,-2.222199664375186,-0.6869888692095876
1761481561173007600,7.325007568359375,2.451869420748949,0.641228111770749,0.5935037261087447
1761481561192949200,7.34494921875,3.654016428300738,2.3155641767710446,0.30946181662157174
1761481561212892400,7.364892333984375,4.322698364186286,3.2645278658926484,-0.45964474277179684
1761481561232834300,7.384834228515625,3.3614597153812644,3.657317807933688,-0.5681058846756816
1761481561252777200,7.404777099609375,2.964633649691939,4.063254231795669,-0.8656218274377286
1761481561272720100,7.42472021484375,3.8364205756306644,4.274769322797656,-1.119560348149389
1761481561292662000,7.444662109375,4.911465051835775,4.751726325300336,-1.038620652236417
1761481561312605200,7.464605224609375,5.358295211622119,5.173220383778214,-0.6624419455174356
1761481561332547000,7.484547119140625,5.5610290302753445,5.287582091495395,-0.26149931135475635
1761481561352490200,7.504490234375,5.80676963148415,4.472655701419711,-0.5188421606171876
1761481561372433200,7.52443310546875,5.390626286384463,4.198302169188857,-1.613922220569849
1761481561392375300,7.544375244140625,3.532635781732201,3.771894035184383,-1.6889229548878966
1761481561412318200,7.564318115234375,2.2315753954857587,3.149234430283308,-1.030144281118363
1761481561432260000,7.584260009765625,1.3514075946927069,2.0553052208662033,-0.2993089636586606
1761481561452203000,7.604203125,0.018029577687382697,0.6365127736866474,-0.05575520496964454
1761481561472146000,7.62414599609375,-1.8425562041550874,-2.5054069496691227,0.48328419623021035
1761481561492088000,7.644088134765625,-1.9860610042482614,-4.27140364575684,-1.207329159430042
1761481561512031000,7.664031005859375,-1.2320049701988696,-3.3543402387648817,-2.1923042923271656
1761481561531973000,7.68397314453125,-2.432518239068985,-2.143635830748081,1.9754136457666753
1761481561551916000,7.703916015625,-3.3215000454366206,-3.9053456432968376,4.842240124440193
1761481561571859200,7.723859130859375,-3.1706811229377982,-7.189936638531089,2.480692779651284
1761481561591801000,7.743801025390625,-2.2318016054570675,-8.426061319008468,0.193700471239537
1761481561611744300,7.763744140625,-3.128142542415857,-7.870984719514846,0.6642823857523501
1761481561631686100,7.78368603515625,-5.498759328845143,-6.727851626467705,1.8592501493245361
1761481561651629300,7.80362939453125,-6.591021481832861,-5.645943109712005,1.2073434071511029
1761481561671572200,7.823572265625,-4.761352816301584,-5.235636800202727,-0.7743680235855281
1761481561691514000,7.84351416015625,-0.7895598936289548,-3.4148955374926326,-3.0534412294358013
1761481561711457000,7.86345703125,1.5564175415843724,-1.0654343518167733,-2.1053158908344805
1761481561731399200,7.883399169921875,2.682395501691103,1.389660460719466,0.8209791873086243
1761481561751342000,7.903342041015625,3.2955297378778456,2.0244705221414563,1.0920244717743246
1761481561771285000,7.923284912109375,2.3199153577178717,2.5003864911586047,-1.79570268304348
1761481561791227100,7.94322705078125,0.3907926307439804,3.541066340947151,-2.4118517370067534
1761481561811170000,7.963170166015625,-0.28037644578218457,4.510958251807093,-1.3729222380168735
1761481561831112200,7.9831123046875,1.3950479989767073,5.119215821868181,-0.3892664075573906
1761481561851055000,8.00305517578125,3.5743887648344037,5.660674814897775,0.18737546946909278
1761481561870998300,8.022998291015625,4.937482121145725,6.029758302658796,0.5151678194859997
1761481561890940200,8.042940185546875,4.672116197490692,5.896598955491185,0.5818867188774048
1761481561910883000,8.062883056640626,4.530357364282012,5.321055906552076,0.25326544375568627
1761481561930825200,8.0828251953125,3.938620136389136,5.049790987986326,-0.4986598618753254
1761481561950768000,8.10276806640625,3.2573592894375323,4.735665417337417,-0.7522963309004902
1761481561970711300,8.122711181640625,1.8483143292903899,3.9987621781408786,0.1825622605010867
1761481561990653000,8.14265283203125,0.713635176333785,2.2038450925171373,1.1074233356319367
1761481562010596000,8.16259619140625,0.03729658821523189,-0.3697024964421987,0.9838296161238104
1761481562030538000,8.1825380859375,-1.0466624313294888,-3.499730706474185,-1.19911268135719
1761481562050481200,8.202481201171874,-4.102278082194924,-5.082883694770932,-4.066093839135766
1761481562070424000,8.222424072265625,-6.415913336730003,-3.8765719687551257,-1.8496797724246978
1761481562090366200,8.2423662109375,-5.368593318274617,-3.157654468104243,2.0829681576870382
1761481562110309000,8.26230908203125,-1.9863848293751476,-4.607191013115644,2.7876313614055515
1761481562130251300,8.282251220703126,0.4385615131348371,-6.161155900850892,0.9338198960036039
1761481562150194200,8.302194091796874,1.191772036270797,-6.748026984012126,0.8704222134567796
1761481562170137000,8.32213720703125,1.083022030955553,-7.726506690475344,2.503505792222917
1761481562190079200,8.342079345703125,0.5797755719423294,-7.039653722605109,1.0988725841034204
1761481562210022100,8.362022216796875,-0.9436813648045063,-5.095299524229764,-1.3160980886414646
1761481562229965300,8.38196533203125,-1.924697311747074,-1.955997874417901,-0.8861172107167542
1761481562249908700,8.40190869140625,-1.546733767437935,0.5365232901930809,0.9419624320574104
1761481562269851600,8.4218515625,0.04146656737625599,2.044766291195154,1.213875950725004
1761481562289793800,8.441793701171875,1.3451333367288112,2.8454110579401255,-0.6002250702530145
1761481562309736700,8.46173681640625,2.6555606862574814,3.7820483494520185,-2.1200331291034815
1761481562329679600,8.4816796875,3.1709044102996584,4.032623531210422,-0.9626024114388972
1761481562349621500,8.50162158203125,3.1971956203758713,4.678620172557235,0.23292473958171903
1761481562369564400,8.521564453125,2.723334245800972,4.657882504954934,0.5890173014096916
1761481562389506600,8.541506591796875,2.144609644216299,4.975210671037435,0.023161241487413643
1761481562409449500,8.561449462890625,1.8238351370722055,5.454098349341749,0.06425992539934813
1761481562429392600,8.581392578125,1.974061938896775,5.349425676468014,0.4951085991345346
1761481562449334500,8.60133447265625,2.5338836870908734,4.984858789348602,0.7107531180914491
1761481562469277700,8.621277587890624,2.8842683196008205,4.498042071610689,0.3955667132779956
1761481562489219600,8.641219482421874,2.77906373180747,4.08833489703834,-0.1578249288033694
1761481562509162800,8.661162841796875,0.7801169425010681,2.9173271241158245,0.24712869456633924
1761481562529105700,8.681105712890625,-1.1389447014465928,0.30683424459695813,-0.3484222829284146
1761481562549047800,8.7010478515625,-0.9979846174001693,-1.5073399146825075,-0.54054392401129
1761481562568990700,8.72099072265625,0.3310176687389612,-1.7618606191962956,0.8520546359866857
1761481562588933600,8.74093359375,1.3101432718902826,-1.9241706575244664,0.8095641323901712
1761481562608875500,8.76087548828125,-0.11497837831079959,-3.9064170719206333,1.0737214839730411
1761481562628818400,8.780818359375,-1.5147192112788557,-5.987451192805171,1.7036834477767346
1761481562648760600,8.800760498046875,-2.129739991864562,-7.091779046639799,2.0629601195335385
1761481562668703500,8.820703369140626,-0.9835141934990882,-8.167469419533013,0.8670562441550195
1761481562688646700,8.840646728515624,-0.2882265747606754,-8.95870279933214,-0.8198048097670078
1761481562708588500,8.860588623046874,-1.8353791521325706,-8.110960765847564,0.04541324090911075
1761481562728530700,8.88053076171875,-3.661055240896344,-6.434125869768858,-0.1630454399306327
1761481562748473600,8.9004736328125,-3.658130877882242,-5.09277263610065,-1.325528764809668
1761481562768416800,8.920416748046875,-1.5155705674111841,-3.1982904298752546,-1.6274838590629397
1761481562788358700,8.940358642578126,1.0413497118741273,-0.4300093733668327,-0.9278863412361591
1761481562808301600,8.960301513671874,2.7999510370135305,1.6891291449844836,-0.4849492433656007
1761481562828243700,8.98024365234375,3.492623212556541,2.449111061951518,-1.536241014996171
1761481562848186600,9.0001865234375,2.513819388705492,3.0468747105270624,-2.649626912294328
1761481562868129800,9.0201298828125,0.5741822819799185,3.9820255628734826,-2.3331992021828887
1761481562888071400,9.040071533203125,-0.8643225814074278,4.8292105469971895,-1.0474141995448618
1761481562908014600,9.0600146484375,-0.09447393494248389,5.341496637034416,-0.19364077694155274
1761481562927956500,9.07995654296875,1.8760405406057834,5.888245553165674,-0.34651071368604897
1761481562947899600,9.099899658203125,2.699322671094537,6.651645169621705,0.4741979130528867
1761481562967842600,9.119842529296875,3.0633512135535477,6.614860038059949,0.7411293324589728
1761481562987784700,9.13978466796875,2.690394683751464,6.278856397601961,0.5805609501663596
1761481563007727600,9.1597275390625,2.522389064130187,5.216787722826004,0.632979338863492
1761481563027669800,9.179669677734376,2.4529241904988885,4.212850334501266,0.2257413126173429
1761481563047612700,9.19961279296875,1.1706956382334233,2.8649750055879353,-0.048088780261296774
1761481563067555600,9.2195556640625,-0.6436924560576677,-0.30042203946709634,0.9993733683448284
1761481563087497700,9.239497802734375,-1.0882108317703008,-2.057374428355694,0.5485542119875549
1761481563107440600,9.259440673828125,-0.9833382524102926,-1.6149281827419995,-0.6511690755486488
1761481563127383800,9.2793837890625,-2.114187617945671,-2.169029215201735,0.023883966271393
1761481563147325400,9.299325439453124,-2.579098501084745,-3.7403041341781615,-0.16159273863798007
1761481563167268600,9.3192685546875,-1.9602493943825363,-5.555985775411129,1.7464434159643947
1761481563187210500,9.33921044921875,0.5357169422462582,-6.579059241360426,2.2311396344169974
1761481563207153700,9.359153564453125,3.1324837864905595,-7.989673642781376,1.2466266391389071
1761481563227096600,9.3790966796875,2.4026737204253674,-8.107949309071898,0.9841638165142387
1761481563247038700,9.399038818359376,-1.179263560092449,-6.9208800436645745,2.2930099612660704
1761481563266980400,9.41898046875,-3.4285464617043733,-6.258159646531939,1.3316548464745281
1761481563286922500,9.438922607421874,-2.829133876878023,-5.874772323608398,-1.799461012663692
1761481563306865400,9.458865478515625,-0.16394377700984478,-4.631493095201254,-3.352603624230623
1761481563326808600,9.47880859375,2.595168469136953,-1.721620378744602,-2.3165187010169026
1761481563346750200,9.498750244140625,4.191533990228176,1.935184218969941,0.009088950058445334
1761481563366693400,9.518693359375,4.443583920714259,3.9772973653078076,1.2922307447113095
1761481563386636500,9.538636474609374,3.6243902285829184,4.430363204613328,0.14767470618896186
1761481563406578200,9.558578125,2.4435598575651643,4.27330684902966,-1.2264116802364586
1761481563426521300,9.578521240234375,1.4339765723079443,5.003042680814862,-1.8861961700476706
1761481563446463200,9.598463134765625,0.909848653307557,5.777928152403235,-0.8482713911209255
1761481563466406400,9.618406494140626,1.2517325839757918,6.0224786670446395,-0.23185338402315972
1761481563486349300,9.638349365234374,2.2439754428535696,5.380298953637481,-0.4009373734656721
1761481563506291500,9.65829150390625,3.4712732582747936,4.52228511698544,-1.1754662136361003
1761481563526234400,9.678234375,3.665478902557492,4.746661443126201,-1.255131432633847
1761481563546176500,9.698176513671875,2.31902279279232,5.5615866641581055,-0.4735667755424976
1761481563566119400,9.718119384765625,0.9483785827100276,5.184508085989952,0.04730360296666622
1761481563586062300,9.738062255859376,0.518234769308567,2.9802579198032615,0.03357362216934562
1761481563606004500,9.75800439453125,0.368750894805789,0.346527372559905,0.18392149309031663
1761481563625947400,9.777947509765625,-0.2927922752410173,-2.155824281191826,0.17466580816283822
1761481563645890600,9.797890625,0.05639584096074104,-3.8251018937587737,-1.0170981178667395
1761481563665832200,9.817832275390625,-1.4459090021640062,-3.559996082344651,-1.2584867344111204
1761481563685775400,9.837775390625,-5.113650004434585,-3.1731577421844004,2.3210151356533166
1761481563705717200,9.85771728515625,-6.108590431833266,-3.84623937433362,3.453720650449395
1761481563725660400,9.877660400390624,-4.814136311984062,-6.269975172010064,1.9523340912133453
1761481563745603300,9.897603271484375,-1.2062979897513986,-7.472660524222254,-0.006785203160718083
1761481563765545500,9.91754541015625,1.3922075148537754,-7.026124378946423,1.2873786285050213
1761481563785488400,9.93748828125,1.5491490118861198,-6.621977761110663,3.96067590085268
1761481563805430500,9.957430419921875,1.512805194351077,-6.177359432154893,2.6613755100160836
1761481563825373400,9.97737353515625,1.6580004317492245,-5.6803387157887215,-0.5559753749642521
