time,seconds_elapsed,z,y,x
1761432031358833400,0.08383349609375,0.6821427345275879,0.26844707131385803,-0.16247080266475677
1761432031378776300,0.1037763671875,0.6444796919822693,0.161381796002388,-0.19887112081050873
1761432031398718500,0.123718505859375,0.5910125374794006,0.07350292056798935,-0.11787080019712448
1761432031418661400,0.143661376953125,0.5913302302360535,0.05996121093630791,0.054911281913518906
1761432031438604300,0.163604248046875,0.5825631618499756,0.018498755991458893,0.20308534801006317
1761432031458546400,0.18354638671875,0.5092499256134033,-0.11925015598535538,0.30074700713157654
1761432031478489300,0.2034892578125,0.49909764528274536,-0.1790013611316681,0.382372111082077
1761432031498432500,0.2234326171875,0.5766302943229675,-0.0804138109087944,0.4107922911643982
1761432031518374100,0.2433740234375,0.6243036389350891,0.15268215537071228,0.363454133272171
1761432031538317300,0.2633173828125,0.6434647440910339,0.3428812623023987,0.23819483816623688
1761432031558259200,0.28325927734375,0.6868977546691895,0.39814653992652893,0.15323621034622192
1761432031578202400,0.303202392578125,0.7084532976150513,0.30565911531448364,0.1861667037010193
1761432031598143000,0.32314306640625,0.7020943760871887,0.12850049138069153,0.3435507118701935
1761432031618084600,0.343084716796875,0.6343837380409241,0.07742554694414139,0.44104859232902527
1761432031638027800,0.36302783203125,0.46911895275115967,0.12079382687807083,0.3386232554912567
1761432031657969700,0.3829697265625,0.10297109186649323,-0.013605487532913685,-0.0005688921082764864
1761432031677912800,0.402912841796875,-0.34954947233200073,-0.3498431444168091,-0.2516949474811554
1761432031697855700,0.422855712890625,-0.625929057598114,-0.6198233962059021,-0.17602752149105072
1761432031717797600,0.442797607421875,-0.5549430251121521,-0.4722445607185364,0.13592129945755005
1761432031737740800,0.46274072265625,-0.18791800737380981,-0.18935014307498932,0.4564306139945984
1761432031757682700,0.4826826171875,0.07453003525733948,-0.10065846145153046,0.6143193244934082
1761432031777625900,0.5026259765625,0.1139388233423233,-0.2374933809041977,0.5901501178741455
1761432031797568800,0.52256884765625,-0.0911395400762558,-0.3525979518890381,0.41617611050605774
1761432031817511000,0.542510986328125,-0.37932220101356506,-0.3968689739704132,0.12294702231884003
1761432031837453800,0.562453857421875,-0.4994085431098938,-0.39638879895210266,-0.05307993292808533
1761432031857396700,0.582396728515625,-0.3667772710323334,-0.3131708800792694,-0.025371605530381203
1761432031877338600,0.602338623046875,-0.21681363880634308,-0.2507147789001465,-0.002067426685243845
1761432031897281500,0.622281494140625,-0.2251320481300354,-0.16961099207401276,-0.19111216068267822
1761432031917223700,0.6422236328125,-0.23825903236865997,-0.10487771034240723,-0.45367431640625
1761432031937166600,0.66216650390625,-0.25103759765625,0.005250426474958658,-0.5285888314247131
1761432031957109800,0.68210986328125,-0.20680595934391022,0.17570023238658905,-0.47482359409332275
1761432031977051600,0.7020517578125,-0.19447271525859833,0.2878801226615906,-0.5071203708648682
1761432031996994800,0.721994873046875,-0.2643999457359314,0.21320874989032745,-0.5754682421684265
1761432032016936700,0.741936767578125,-0.3276903033256531,-0.06164122372865677,-0.4321291148662567
1761432032036880000,0.7618798828125,-0.2537394165992737,-0.28868985176086426,-0.1495032161474228
1761432032056822800,0.78182275390625,-0.13887855410575867,-0.2603691816329956,0.07192421704530716
1761432032076765000,0.801764892578125,-0.037958063185214996,-0.082246333360672,0.08951465785503387
1761432032096707800,0.821707763671875,-0.061639443039894104,0.15409933030605316,-0.0955636203289032
1761432032116650800,0.841650634765625,-0.0526023805141449,0.22192005813121796,-0.28034764528274536
1761432032136593000,0.861593017578125,-0.02260465919971466,0.05880962684750557,-0.3301917612552643
1761432032156535800,0.881535888671875,-0.0033846860751509666,-0.05442375689744949,-0.2557682991027832
1761432032176477700,0.901477783203125,-0.0233472753316164,-0.025693174451589584,-0.1291189193725586
1761432032196420600,0.921420654296875,-0.030210336670279503,0.010564330965280533,0.0009439850691705942
1761432032216363800,0.94136376953125,-0.05886782333254814,-0.132708340883255,-0.035827960819005966
1761432032236305700,0.9613056640625,-0.11301169544458389,-0.21721068024635315,-0.12271898239850998
1761432032256248800,0.981248779296875,-0.07475549727678299,-0.14351847767829895,-0.13727881014347076
1761432032276190700,1.001190673828125,0.012265612371265888,-0.043523240834474564,-0.0833476334810257
1761432032296133600,1.021133544921875,0.0794772356748581,-0.2597523629665375,-0.07128243893384933
1761432032316076800,1.041076904296875,-0.02027921937406063,-0.5072849988937378,-0.09319260716438293
1761432032336018700,1.061018798828125,-0.09957775473594666,-0.35649946331977844,0.08170121163129807
1761432032355961900,1.0809619140625,0.052969351410865784,-0.0509931705892086,0.3267330825328827
1761432032375903700,1.10090380859375,0.18308672308921814,0.1255130171775818,0.506359875202179
1761432032395847000,1.120846923828125,0.1400422304868698,0.07691718637943268,0.4259502589702606
1761432032415789800,1.140789794921875,0.019756663590669632,-0.08827033638954163,0.1708759069442749
1761432032435731700,1.160731689453125,-0.10356436669826508,-0.1576833575963974,-0.13100746273994446
1761432032455674600,1.180674560546875,-0.16404014825820923,0.1693965494632721,-0.47684770822525024
1761432032475617500,1.200617431640625,-0.08830560743808746,0.6961033344268799,-0.7234987616539001
1761432032495559700,1.2205595703125,0.1320924460887909,0.826808750629425,-0.5929582118988037
1761432032515502600,1.240502685546875,0.4206112325191498,0.6041809320449829,-0.1647646725177765
1761432032535444700,1.26044482421875,0.6298254728317261,0.38121092319488525,0.11352353543043137
1761432032555387600,1.2803876953125,0.6062735319137573,0.2675221860408783,0.04695010557770729
1761432032575330800,1.300330810546875,0.506023645401001,0.25742682814598083,-0.18880793452262878
1761432032595272200,1.320272216796875,0.5670852661132812,0.2986361086368561,-0.30563923716545105
1761432032615215400,1.34021533203125,0.6867273449897766,0.3463059961795807,-0.3120558261871338
1761432032635157200,1.3601572265625,0.7080509066581726,0.32000771164894104,-0.36906731128692627
1761432032655100400,1.380100341796875,0.6018357276916504,0.16898353397846222,-0.4303286373615265
1761432032675043300,1.400043212890625,0.4201180338859558,0.054354555904865265,-0.3299914300441742
1761432032694985200,1.419985107421875,0.3447345793247223,0.017438914626836777,-0.17819121479988098
1761432032714928000,1.43992822265625,0.4221760034561157,0.07052672654390335,-0.00924649741500616
1761432032734870300,1.459870361328125,0.5024241209030151,0.060492273420095444,0.05953190475702286
1761432032754813200,1.479813232421875,0.4662030041217804,0.0007893312722444534,0.05049321427941322
1761432032774756000,1.499756103515625,0.37988603115081787,-0.0024135212879627943,0.07125936448574066
1761432032794698200,1.5196982421875,0.30015307664871216,-0.0013954932801425457,0.033882319927215576
1761432032814641200,1.53964111328125,0.20364081859588623,0.06939548999071121,-0.0012085703201591969
1761432032834583300,1.559583251953125,0.08799272775650024,0.18657751381397247,-0.04548165202140808
1761432032854526200,1.579526123046875,-0.006962909363210201,0.043961670249700546,-0.05862969532608986
1761432032874469400,1.599469482421875,-0.13138464093208313,-0.25283902883529663,0.004652086645364761
1761432032894411300,1.619411376953125,-0.2976303994655609,-0.4314365088939667,0.07334249466657639
1761432032914354400,1.6393544921875,-0.4139570891857147,-0.44162717461586,0.11522205919027328
1761432032934296300,1.65929638671875,-0.42511579394340515,-0.3640642762184143,0.20703935623168945
1761432032954239500,1.679239501953125,-0.34792423248291016,-0.2743132412433624,0.40055733919143677
1761432032974182400,1.699182373046875,-0.13902775943279266,-0.09743517637252808,0.6800669431686401
1761432032994124300,1.719124267578125,-0.012148161418735981,-0.023916248232126236,0.7183651328086853
1761432033014067200,1.739067138671875,-0.08552597463130951,0.08940817415714264,0.3512316048145294
1761432033034009300,1.75900927734375,-0.3708195686340332,0.28050217032432556,-0.2910884618759155
1761432033053952300,1.7789521484375,-0.7226104736328125,0.2269110083580017,-0.7858681082725525
1761432033073895200,1.798895263671875,-0.7399987578392029,0.09293770045042038,-0.6976374983787537
1761432033093837300,1.81883740234375,-0.47137513756752014,-0.019122857600450516,-0.13805422186851501
1761432033113780200,1.8387802734375,-0.15127770602703094,0.049215883016586304,0.47794726490974426
1761432033133723100,1.85872314453125,-0.0299911517649889,0.11590176820755005,0.6179392337799072
1761432033153665300,1.878665283203125,-0.038509760051965714,0.15065760910511017,0.39120399951934814
1761432033173608200,1.898608154296875,-0.08122268319129944,-0.009531051851809025,0.02891717292368412
1761432033193550300,1.91855029296875,-0.09864459186792374,-0.15165837109088898,-0.17904844880104065
1761432033213493200,1.9384931640625,-0.08756020665168762,-0.1324726790189743,-0.17138822376728058
1761432033233436400,1.9584365234375,-0.10123097896575928,-0.03775063902139664,-0.050952013581991196
1761432033253378000,1.9783779296875,-0.08122636377811432,0.0588797926902771,0.10451938211917877
1761432033273321200,1.9983212890625,-0.07512619346380234,0.07775268703699112,0.16513143479824066
1761432033293263000,2.01826318359375,-0.0775887742638588,0.07244383543729782,0.11838234215974808
1761432033313206300,2.038206298828125,-0.10366714745759964,0.038690172135829926,0.0072724237106740475
1761432033333149200,2.058149169921875,-0.15316906571388245,0.017251059412956238,0.005551542621105909
1761432033353091300,2.07809130859375,-0.17321333289146423,-0.01658712886273861,0.20969144999980927
1761432033373034200,2.0980341796875,-0.15097828209400177,-0.12503518164157867,0.443248987197876
1761432033392976400,2.117976318359375,-0.09088704735040665,-0.1559884250164032,0.46939170360565186
1761432033412919300,2.137919189453125,-0.0158994123339653,-0.10821322351694107,0.22311943769454956
1761432033432862200,2.1578623046875,0.01246492750942707,-0.05268491432070732,-0.0683172345161438
1761432033452804400,2.177804443359375,-0.10469065606594086,-0.11351004987955093,-0.22606249153614044
1761432033472747300,2.197747314453125,-0.26256173849105835,-0.1748802363872528,-0.23810039460659027
1761432033492689400,2.217689453125,-0.2395448535680771,-0.03961881250143051,-0.09100815653800964
1761432033512632300,2.23763232421875,-0.06294958293437958,0.10871277004480362,0.23306024074554443
1761432033532574200,2.25757421875,0.12843239307403564,0.0009523485787212849,0.46613794565200806
1761432033552517000,2.27751708984375,0.23890796303749084,-0.15436966717243195,0.46117863059043884
1761432033572460300,2.297460205078125,0.12812764942646027,-0.22343342006206512,0.16708365082740784
1761432033592402200,2.317402099609375,-0.026097111403942108,-0.11105900257825851,-0.18919172883033752
1761432033612345300,2.337345458984375,0.017885055392980576,0.07176943123340607,-0.23537392914295197
1761432033632288300,2.357288330078125,0.25849366188049316,0.10780102759599686,0.060030244290828705
1761432033652230100,2.377230224609375,0.3917216658592224,-0.0072934976778924465,0.32676756381988525
1761432033672173000,2.397173095703125,0.3076072931289673,-0.11820513755083084,0.3421449065208435
1761432033692115000,2.417114990234375,0.1408090591430664,-0.1358705759048462,0.1588272750377655
1761432033712058000,2.43705810546875,0.04366724193096161,-0.12119986116886139,-0.10839245468378067
1761432033732000000,2.457,0.05016835406422615,0.011935953982174397,-0.2528722286224365
1761432033751943200,2.476943115234375,0.03330150246620178,0.02910342440009117,-0.26802313327789307
1761432033771886000,2.496885986328125,0.00043840950820595026,-0.05166322737932205,-0.15892718732357025
1761432033791828200,2.516828125,0.0011495680082589388,-0.047705668956041336,-0.044557709246873856
1761432033811771100,2.536771240234375,0.08739566057920456,0.055716462433338165,0.03520683944225311
1761432033831713300,2.55671337890625,0.1615602821111679,0.08310320973396301,0.04842522740364075
1761432033851656200,2.57665625,0.06080200523138046,-0.08155101537704468,-0.026551425457000732
1761432033871599000,2.59659912109375,-0.08781204372644424,-0.0934944674372673,0.010112300515174866
1761432033891541200,2.616541259765625,-0.10245134681463242,0.047556936740875244,0.23106124997138977
1761432033911484200,2.636484130859375,0.003808923065662384,0.13777251541614532,0.40619856119155884
1761432033931426000,2.656426025390625,0.10304374247789383,0.19749243557453156,0.4156680405139923
1761432033951369000,2.676368896484375,0.07920920848846436,0.1815231591463089,0.32397323846817017
1761432033971312000,2.69631201171875,-0.06833565980195999,0.006071577314287424,0.20073150098323822
1761432033991254000,2.71625390625,-0.22580233216285706,-0.23076942563056946,0.044391948729753494
1761432034011197200,2.736197265625,-0.29482632875442505,-0.23896954953670502,-0.0711245909333229
1761432034031139000,2.75613916015625,-0.2942078113555908,-0.05351695418357849,-0.07960320264101028
1761432034051082200,2.776082275390625,-0.16913063824176788,0.10104858875274658,0.05356648564338684
1761432034071025200,2.796025146484375,-0.008898221887648106,0.09973421692848206,0.08480839431285858
1761432034090967300,2.81596728515625,0.06929884105920792,0.06056204065680504,-0.23601330816745758
1761432034110910200,2.83591015625,0.06962604075670242,-0.03425860404968262,-0.6760120391845703
1761432034130852000,2.85585205078125,0.053037527948617935,-0.030119847506284714,-0.8442426323890686
1761432034150795300,2.875795166015625,0.11374123394489288,0.062574602663517,-0.5812627673149109
1761432034170738200,2.89573828125,0.21922579407691956,0.22055034339427948,-0.07148256152868271
1761432034190680000,2.91568017578125,0.26140379905700684,0.2676725387573242,0.3132534623146057
1761432034210623000,2.935623046875,0.21719971299171448,0.19647280871868134,0.3992411196231842
1761432034230565000,2.955565185546875,0.12474142014980316,0.1335468739271164,0.25907182693481445
1761432034250508000,2.975508056640625,0.008230580016970634,0.06223747879266739,-0.05571092292666435
1761432034270451000,2.995450927734375,-0.046251330524683,0.03682056814432144,-0.3058803975582123
1761432034290393000,3.01539306640625,-0.02329477295279503,0.07183806598186493,-0.29015201330184937
1761432034310336000,3.0353359375,0.004677474498748779,0.072849802672863,-0.11592639237642288
1761432034330278100,3.055278076171875,0.016636287793517113,0.07804656773805618,0.049096062779426575
1761432034350221000,3.075220947265625,0.027060672640800476,0.08058752119541168,0.08341796696186066
1761432034370164200,3.095164306640625,0.0299400482326746,0.04967241734266281,-0.023358894512057304
1761432034390106000,3.115106201171875,-0.026743987575173378,0.04464706405997276,-0.17054617404937744
1761432034410049300,3.13504931640625,-0.12671424448490143,-0.02051859349012375,-0.22752393782138824
1761432034429991200,3.1549912109375,-0.22343771159648895,-0.10290680825710297,-0.06909173727035522
1761432034449934300,3.174934326171875,-0.20224595069885254,-0.17272087931632996,0.22984462976455688
1761432034469877200,3.194877197265625,-0.09188342094421387,-0.16985124349594116,0.41416674852371216
1761432034489819100,3.214819091796875,-0.03663262352347374,-0.19601278007030487,0.3086394667625427
1761432034509762000,3.234761962890625,-0.10428061336278915,-0.3104654550552368,-0.02736249938607216
1761432034529704200,3.2547041015625,-0.24773931503295898,-0.45403021574020386,-0.25153928995132446
1761432034549647000,3.274647216796875,-0.3262401521205902,-0.5010474324226379,-0.07111039757728577
1761432034569590000,3.294590087890625,-0.20767107605934143,-0.3598300516605377,0.458700954914093
1761432034589532200,3.3145322265625,0.14711201190948486,-0.15246011316776276,0.8905175924301147
1761432034609475600,3.3344755859375,0.39366698265075684,-0.09448323398828506,0.7725281119346619
1761432034629417500,3.35441748046875,0.3746603727340698,-0.21193400025367737,0.22603030502796173
1761432034649360400,3.3743603515625,0.11792830377817154,-0.3049737513065338,-0.42803025245666504
1761432034669303300,3.39430322265625,-0.10255691409111023,-0.2135647088289261,-0.7897247672080994
1761432034689245400,3.414245361328125,-0.04224662482738495,-0.005097457207739353,-0.5929856300354004
1761432034709188400,3.434188232421875,0.2432958483695984,0.14769844710826874,-0.05704063922166824
1761432034729130500,3.454130615234375,0.45173656940460205,0.18288132548332214,0.22515878081321716
1761432034749073400,3.474073486328125,0.3934512734413147,0.09911226481199265,0.16810965538024902
1761432034769015600,3.494015625,0.24184907972812653,0.010848786681890488,-0.010382723063230515
1761432034788958500,3.51395849609375,0.1999608427286148,0.006359126418828964,-0.10890562832355499
1761432034808901600,3.533901611328125,0.23776894807815552,0.08405468612909317,-0.13631263375282288
1761432034828843500,3.553843505859375,0.2773190438747406,0.1916205883026123,-0.1444469541311264
1761432034848786700,3.57378662109375,0.2929098904132843,0.1349174976348877,-0.1208716407418251
1761432034868728300,3.593728271484375,0.317641943693161,-0.02403905615210533,-0.06015878915786743
1761432034888671500,3.61367138671875,0.37778252363204956,-0.06599176675081253,-0.025691544637084007
1761432034908614400,3.633614501953125,0.36571642756462097,-0.015961425378918648,-0.09285606443881989
1761432034928556500,3.653556640625,0.25117063522338867,0.06243954226374626,-0.162565216422081
1761432034948499500,3.67349951171875,0.07231315225362778,0.14649009704589844,-0.13889776170253754
1761432034968441600,3.693441650390625,-0.08594805002212524,0.10593795031309128,0.0009892680682241917
1761432034988384500,3.713384521484375,-0.08254826813936234,-0.04066953435540199,0.1313733011484146
1761432035008327400,3.733327392578125,0.05124624818563461,-0.0714179277420044,0.1461167335510254
1761432035028269600,3.75326953125,0.19223110377788544,0.007340366952121258,0.057649582624435425
1761432035048212500,3.77321240234375,0.1800689399242401,-0.10319104045629501,-0.025881387293338776
1761432035068154600,3.793154541015625,0.06274911016225815,-0.29456034302711487,-0.011977915652096272
1761432035088097500,3.81309765625,-0.16311153769493103,-0.4140349328517914,0.08913297206163406
1761432035108040400,3.83304052734375,-0.29901254177093506,-0.3795241713523865,0.23502981662750244
1761432035127982600,3.852982666015625,-0.1603083461523056,-0.11217547953128815,0.4386540651321411
1761432035147925500,3.872925537109375,0.1248888373374939,-0.04578017070889473,0.54716956615448
1761432035167867400,3.892867431640625,0.18596220016479492,-0.3622143566608429,0.34659266471862793
1761432035187810300,3.912810302734375,0.010356184095144272,-0.6702569723129272,-0.049998920410871506
1761432035207753500,3.93275341796875,-0.322927325963974,-0.8343454003334045,-0.3621408939361572
1761432035227695400,3.9526953125,-0.4407779574394226,-0.5824195146560669,-0.2884053587913513
1761432035247638500,3.972638427734375,-0.15477634966373444,0.020209327340126038,-0.059408288449048996
1761432035267579600,3.99257958984375,0.1947856843471527,0.5032572150230408,0.028094816952943802
1761432035287522600,4.0125224609375,0.26585492491722107,0.4507077634334564,-0.10255098342895508
1761432035307464700,4.032464599609375,0.17433370649814606,0.3758540749549866,-0.2977873384952545
1761432035327407600,4.05240771484375,0.03610903024673462,0.35011887550354004,-0.3699990510940552
1761432035347349500,4.072349609375,-0.060064755380153656,0.35996201634407043,-0.26686152815818787
1761432035367292400,4.09229248046875,-0.05723721534013748,0.4121009111404419,-0.05152026563882828
1761432035387235300,4.1122353515625,-0.07573407143354416,0.353352814912796,0.048249296844005585
1761432035407177500,4.132177490234375,-0.09226412326097488,0.268760085105896,-0.01621222123503685
1761432035427120400,4.152120361328125,-0.05815928801894188,0.18754981458187103,-0.11438743025064468
1761432035447062500,4.1720625,-0.009292636066675186,0.15902364253997803,-0.1800301969051361
1761432035467005400,4.19200537109375,0.0059037827886641026,0.27081209421157837,-0.24581937491893768
1761432035486948600,4.211948486328125,-0.08381503820419312,0.3553905487060547,-0.35866111516952515
1761432035506890500,4.231890380859375,-0.2375870645046234,0.20243482291698456,-0.36002427339553833
1761432035526833400,4.25183349609375,-0.32917964458465576,-0.12888304889202118,-0.18512186408042908
1761432035546775600,4.271775634765625,-0.30308014154434204,-0.19302688539028168,0.05889745429158211
1761432035566718500,4.291718505859375,-0.13470429182052612,0.037120670080184937,0.17713798582553864
1761432035586660600,4.31166064453125,0.0026999907568097115,0.1819307506084442,0.05794202536344528
1761432035606603000,4.33160302734375,-0.04896392300724983,0.08455473184585571,-0.12262511998414993
1761432035626546000,4.3515458984375,-0.17381103336811066,-0.08323349803686142,-0.1330406218767166
1761432035646488800,4.37148876953125,-0.22954334318637848,-0.1299307644367218,0.04523620009422302
1761432035666432000,4.391431884765625,-0.1780402511358261,-0.09515947848558426,0.28924497961997986
1761432035686374000,4.411373779296875,0.03179095312952995,-0.0017781644128262997,0.527604877948761
1761432035706317000,4.431317138671875,0.18386900424957275,-0.09029941260814667,0.6430007815361023
1761432035726259000,4.451259033203125,0.18017400801181793,-0.3321191668510437,0.6681628227233887
1761432035746202000,4.4712021484375,0.13979698717594147,-0.5491217374801636,0.6400327086448669
1761432035766145000,4.49114501953125,0.09814276546239853,-0.7059584259986877,0.40248382091522217
1761432035786087000,4.5110869140625,0.027110472321510315,-0.6678899526596069,-0.027678726240992546
1761432035806029800,4.53102978515625,-0.003404163522645831,-0.18484611809253693,-0.2902226448059082
1761432035825972000,4.550971923828125,0.07922174036502838,0.28691527247428894,-0.2412409782409668
1761432035845915000,4.570914794921875,0.20534589886665344,0.2445230931043625,-0.019998718053102493
1761432035865856800,4.590856689453125,0.27267611026763916,-0.06133753061294556,0.14282765984535217
1761432035885800000,4.610800048828125,0.2900255620479584,-0.1851223260164261,0.15880624949932098
1761432035905742800,4.630742919921875,0.24604777991771698,-0.04793161153793335,0.07828676700592041
1761432035925685000,4.65068505859375,0.236686110496521,0.20396724343299866,-0.009610885754227638
1761432035945628000,4.6706279296875,0.26520398259162903,0.3468216359615326,-0.04033072292804718
1761432035965570000,4.690570068359375,0.2989741563796997,0.3514338731765747,-0.08550599962472916
1761432035985513000,4.710512939453125,0.27508488297462463,0.22126504778862,-0.14298264682292938
1761432036005456000,4.730455810546875,0.23346179723739624,0.1330965757369995,-0.18848328292369843
1761432036025397800,4.750397705078125,0.19297076761722565,0.15713049471378326,-0.17650564014911652
1761432036045340700,4.770340576171875,0.08697214722633362,0.20368650555610657,-0.1140151396393776
1761432036065282800,4.79028271484375,-0.050187837332487106,0.23055434226989746,-0.042671456933021545
1761432036085225700,4.810225830078125,-0.16981445252895355,0.10425440222024918,0.005476658698171377
1761432036105168000,4.83016796875,-0.1818430870771408,-0.023477165028452873,0.06270792335271835
1761432036125110800,4.85011083984375,-0.09442261606454849,-0.04150376841425896,0.05876561626791954
1761432036145054000,4.870053955078125,0.00021240932983346283,0.06429233402013779,0.004863066133111715
1761432036164995800,4.889995849609375,0.020170876756310463,0.06519217789173126,-0.0537080317735672
1761432036184939000,4.90993896484375,-0.07573704421520233,-0.08852767199277878,-0.11114131659269333
1761432036204881000,4.929880859375,-0.23155783116817474,-0.1718188375234604,-0.16754242777824402
1761432036224824000,4.949823974609375,-0.3648499846458435,-0.2591187357902527,-0.08744364976882935
1761432036244767000,4.96976708984375,-0.35906532406806946,-0.232472226023674,0.080237977206707
1761432036264709000,4.989709228515625,-0.15124370157718658,-0.06111825630068779,0.22807131707668304
1761432036284652000,5.009652099609375,0.04629881680011749,0.05463101714849472,0.3038281202316284
1761432036304594000,5.029593994140625,0.15505412220954895,0.009658880531787872,0.27380698919296265
1761432036324536800,5.049536865234375,0.06926774233579636,-0.2245766520500183,0.029150310903787613
1761432036344478700,5.069478759765625,-0.3185645043849945,-0.3057571053504944,-0.38885945081710815
1761432036364422000,5.089421875,-0.5970872044563293,-0.013925207778811455,-0.5145207047462463
1761432036384364800,5.10936474609375,-0.49521228671073914,0.3458639979362488,-0.2030942589044571
1761432036404307000,5.129306884765625,-0.22081318497657776,0.3984881639480591,0.23185387253761292
1761432036424249900,5.149249755859375,-0.045619335025548935,0.30192747712135315,0.3356149196624756
1761432036444192000,5.16919189453125,0.01480850763618946,0.36791256070137024,0.08623920381069183
1761432036464135000,5.189135009765625,0.0014476353535428643,0.5473347306251526,-0.2433580607175827
1761432036484077800,5.209077880859375,0.01236694771796465,0.6034773588180542,-0.3844919502735138
1761432036504020000,5.22902001953125,0.026585230603814125,0.5236560702323914,-0.3253517150878906
1761432036523963000,5.248962890625,-0.026929428800940514,0.3492194712162018,-0.16060730814933777
1761432036543904800,5.26890478515625,-0.11771274358034134,0.15659789741039276,-0.055919378995895386
1761432036563847700,5.28884765625,-0.1389225274324417,0.038155633956193924,-0.031240219250321388
1761432036583789800,5.308789794921875,-0.15599344670772552,0.05496221408247948,-0.06230930984020233
1761432036603733500,5.3287333984375,-0.18764783442020416,0.1391305923461914,-0.11146160960197449
1761432036623676400,5.348676513671875,-0.24355335533618927,0.022062385454773903,-0.14860524237155914
1761432036643618600,5.36861865234375,-0.2722410559654236,-0.12830491364002228,-0.1634868085384369
1761432036663561500,5.3885615234375,-0.2521253526210785,-0.12508562207221985,-0.1444597840309143
1761432036683503600,5.408503662109375,-0.16912220418453217,0.0035563488490879536,-0.013971636071801186
1761432036703446500,5.428446533203125,-0.08644017577171326,0.10481103509664536,0.07693970203399658
1761432036723388700,5.448388671875,-0.02915048599243164,0.15620291233062744,0.05138009414076805
1761432036743331600,5.46833154296875,-0.031114637851715088,0.06763723492622375,0.038403138518333435
1761432036763274800,5.488274658203125,-0.07709354162216187,-0.11389121413230896,0.08516993373632431
1761432036783216600,5.508216552734375,-0.13280875980854034,-0.23569917678833008,0.1721378117799759
1761432036803159800,5.528159912109375,-0.11512364447116852,-0.2753601372241974,0.21843881905078888
1761432036823101400,5.548101318359375,-0.007284844294190407,-0.1226188987493515,0.28106293082237244
1761432036843044600,5.568044677734375,0.2134232074022293,0.07840469479560852,0.4251226782798767
1761432036862987500,5.587987548828125,0.5584927797317505,0.258089542388916,0.6106371283531189
1761432036882929700,5.6079296875,0.7500948905944824,0.1552722454071045,0.6599722504615784
1761432036902872600,5.62787255859375,0.8254217505455017,-0.0992242619395256,0.42778992652893066
1761432036922814700,5.647814697265625,0.5720570087432861,-0.392568439245224,-0.05134241282939911
1761432036942757600,5.667757568359375,-0.03781813755631447,-0.426591694355011,-0.5715538859367371
1761432036962699800,5.68769970703125,-0.3792939782142639,-0.09026801586151123,-0.5827381014823914
1761432036982642700,5.707642578125,-0.2689765691757202,-0.055753983557224274,-0.09385351836681366
1761432037002585600,5.727585693359375,0.03863732889294624,-0.263962984085083,0.36758437752723694
1761432037022527700,5.74752783203125,0.2174077033996582,-0.47033679485321045,0.45516854524612427
1761432037042470700,5.767470703125,0.25915130972862244,-0.33497992157936096,0.23114098608493805
1761432037062412800,5.787412841796875,0.2057846039533615,0.04577980190515518,-0.06300803273916245
1761432037082355700,5.807355712890625,0.19139185547828674,0.30811989307403564,-0.29688382148742676
1761432037102297600,5.827297607421875,0.22447074949741364,0.29597505927085876,-0.3207021951675415
1761432037122240500,5.847240478515625,0.2645825445652008,0.24307355284690857,-0.19635017216205597
1761432037142183400,5.867183349609375,0.2821751832962036,0.1746625453233719,-0.13690398633480072
1761432037162125600,5.88712548828125,0.2837313711643219,0.09437982738018036,-0.06631392240524292
1761432037182068500,5.907068359375,0.245723158121109,0.013725127093493938,-0.05561639741063118
1761432037202010600,5.9270107421875,0.13647831976413727,0.09656265377998352,-0.07859549671411514
1761432037221953500,5.94695361328125,-0.02559269405901432,0.17680439352989197,-0.11106770485639572
1761432037241895700,5.966895751953125,-0.19664296507835388,0.18157382309436798,-0.12375834584236145
1761432037261838600,5.986838623046875,-0.23140564560890198,0.09193887561559677,-0.06310506165027618
1761432037281781800,6.00678173828125,-0.11760147660970688,-0.04466467723250389,0.04691971838474274
1761432037301723600,6.0267236328125,0.04140069708228111,-0.1355164498090744,0.12464245408773422
1761432037321666800,6.046666748046875,0.0692434310913086,-0.14447176456451416,0.04125014692544937
1761432037341608400,6.0666083984375,-0.053743697702884674,-0.1590772569179535,-0.108527772128582
1761432037361551600,6.086551513671875,-0.2104765921831131,-0.24006246030330658,-0.1044595018029213
1761432037381493500,6.106493408203125,-0.315303236246109,-0.3064923584461212,0.07804182916879654
1761432037401436700,6.126436767578125,-0.3155782222747803,-0.26565268635749817,0.40200844407081604
1761432037421379600,6.146379638671875,-0.21198168396949768,-0.26187172532081604,0.6265873908996582
1761432037441321700,6.16632177734375,-0.09988785535097122,-0.28540676832199097,0.5814288258552551
1761432037461264600,6.1862646484375,-0.03918634355068207,-0.2094581574201584,0.3178176283836365
1761432037481206500,6.20620654296875,-0.13046523928642273,-0.010230937972664833,-0.0034789503552019596
1761432037501149700,6.226149658203125,-0.2013946771621704,0.2362610399723053,-0.1886705458164215
1761432037521091600,6.246091552734375,-0.2308163195848465,0.25096794962882996,-0.10639357566833496
1761432037541034800,6.26603466796875,-0.25325390696525574,0.03595423325896263,-0.011205832473933697
1761432037560977700,6.285977783203125,-0.23255972564220428,-0.16066578030586243,-0.001630155835300684
1761432037580919800,6.305919921875,-0.1902908980846405,-0.1279425024986267,0.0009683604585006833
1761432037600861700,6.32586181640625,-0.09747761487960815,0.11112917959690094,-0.08598548918962479
1761432037620803800,6.345803955078125,0.012122933752834797,0.24994513392448425,-0.18513493239879608
1761432037640746800,6.365746826171875,0.018839029595255852,0.15212388336658478,-0.23245728015899658
1761432037660688600,6.385688720703125,-0.06435997039079666,-0.03297184035181999,-0.2557336091995239
1761432037680631600,6.405631591796875,-0.17515553534030914,-0.11978303641080856,-0.22976768016815186
1761432037700575000,6.425574951171875,-0.13697601854801178,0.02520335093140602,-0.15485616028308868
1761432037720516600,6.4455166015625,-0.03808347508311272,0.18918387591838837,-0.09711205214262009
1761432037740459800,6.465459716796875,-0.007658287417143583,0.26764848828315735,-0.10176434367895126
1761432037760401700,6.485401611328125,-0.06593533605337143,0.14686083793640137,-0.21951618790626526
1761432037780344800,6.5053447265625,-0.2965860068798065,-0.1392194777727127,-0.3213779926300049
1761432037800286700,6.52528662109375,-0.3925750255584717,-0.20178109407424927,-0.22621358931064606
1761432037820230000,6.54522998046875,-0.34458234906196594,-0.0909699946641922,0.009379968978464603
1761432037840172800,6.5651728515625,-0.18315458297729492,0.03732459619641304,0.25400224328041077
1761432037860114700,6.58511474609375,-0.011449692770838737,0.09368610382080078,0.33908164501190186
1761432037880057900,6.605057861328125,0.0047377641312778,-0.026792705059051514,0.17546868324279785
1761432037899999700,6.624999755859375,-0.029944144189357758,-0.10332166403532028,0.01415567472577095
1761432037919943000,6.64494287109375,0.026180850341916084,-0.010428245179355145,-0.002634153701364994
1761432037939884500,6.664884521484375,0.195743590593338,0.04226092994213104,0.11882373690605164
1761432037959827700,6.68482763671875,0.1908961683511734,-0.05674131214618683,0.1623144894838333
1761432037979770600,6.7047705078125,0.04196600988507271,-0.11310948431491852,0.09899464249610901
1761432037999712800,6.724712646484375,-0.038674455136060715,-0.11234213411808014,0.02759675122797489
1761432038019655700,6.74465576171875,-0.0077031576074659824,-0.1451893299818039,-0.04348248988389969
1761432038039597800,6.764597900390625,0.06655079126358032,-0.06026751175522804,-0.22604525089263916
1761432038059540700,6.784540771484375,0.12834987044334412,0.1436421126127243,-0.3724381625652313
1761432038079483000,6.80448291015625,0.264512300491333,0.21590378880500793,-0.17930105328559875
1761432038099425800,6.82442578125,0.458690345287323,0.21600478887557983,0.187196746468544
1761432038119368700,6.84436865234375,0.505845844745636,0.19046777486801147,0.31866252422332764
1761432038139310800,6.864310791015625,0.42616772651672363,0.1772831678390503,0.2141222506761551
1761432038159253800,6.884253662109375,0.2901665270328522,0.0715106651186943,0.02135162055492401
1761432038179195600,6.904195556640625,0.2496081441640854,0.010478934273123741,-0.05889909341931343
1761432038199138600,6.924138671875,0.3536831736564636,0.09179016202688217,-0.01973729394376278
1761432038219080700,6.944080810546875,0.49696752429008484,0.19543620944023132,-0.006064346991479397
1761432038239023600,6.964023681640625,0.5282922387123108,0.2806017994880676,-0.08413064479827881
1761432038258966800,6.983966796875,0.3892204165458679,0.2429702877998352,-0.20020900666713715
1761432038278908700,7.00390869140625,0.2178686112165451,0.05994302034378052,-0.17881536483764648
1761432038298851800,7.023851806640625,0.14647309482097626,-0.07649967819452286,-0.0035809469409286976
1761432038318793700,7.043793701171875,0.2032098025083542,-0.019888194277882576,0.08242806792259216
1761432038338737000,7.06373681640625,0.28302979469299316,0.14664383232593536,0.0028781555593013763
1761432038358678800,7.0836787109375,0.30159223079681396,0.22560352087020874,-0.17201963067054749
1761432038378621700,7.10362158203125,0.2185511589050293,0.1589221954345703,-0.22010236978530884
1761432038398564900,7.12356494140625,0.14605429768562317,0.09332780539989471,-0.08918356895446777
1761432038418506800,7.1435068359375,0.13872130215168,0.010405698791146278,0.09474053233861923
1761432038438450000,7.163449951171875,0.09954594820737839,-0.1187756285071373,0.11965624243021011
1761432038458391600,7.1833916015625,-0.021203812211751938,-0.18789812922477722,-0.011960892006754875
1761432038478334700,7.203334716796875,-0.14989854395389557,-0.15325777232646942,-0.09504149854183197
1761432038498276600,7.223276611328125,-0.17567592859268188,-0.13293711841106415,0.025437388569116592
1761432038518219800,7.2432197265625,-0.11757069081068039,-0.17976340651512146,0.2694768011569977
1761432038538162700,7.26316259765625,0.02868906781077385,-0.09004653990268707,0.49732252955436707
1761432038558104800,7.283104736328125,0.014617355540394783,0.008640313521027565,0.5056996941566467
1761432038578047700,7.3030478515625,-0.009465225040912628,-0.024451788514852524,0.31469178199768066
1761432038597990000,7.322989990234375,-0.07295363396406174,-0.0767434611916542,-0.10005423426628113
1761432038617932800,7.342932861328125,-0.3273823857307434,-0.05693349987268448,-0.6798585653305054
1761432038637875000,7.362875,-0.5708011388778687,0.06246722489595413,-0.9357012510299683
1761432038657817900,7.38281787109375,-0.5429485440254211,0.02207283303141594,-0.596348762512207
1761432038677760800,7.4027607421875,-0.25663575530052185,-0.01910456269979477,0.025740722194314003
1761432038697703000,7.422702880859375,-0.03308301419019699,0.020859431475400925,0.3020031750202179
1761432038717645800,7.442645751953125,-0.04589513689279556,0.017537739127874374,0.1365119069814682
1761432038737587700,7.462587646484375,-0.17794466018676758,-0.028925297781825066,-0.19433271884918213
1761432038757530600,7.482530517578125,-0.3157142102718353,-0.17293593287467957,-0.34745270013809204
1761432038777472800,7.50247265625,-0.34105753898620605,-0.25868692994117737,-0.205232635140419
1761432038797415700,7.522415771484375,-0.2638705372810364,-0.19050486385822296,0.03773871064186096
1761432038817357800,7.54235791015625,-0.12593171000480652,-0.09797477722167969,0.1312575787305832
1761432038837300700,7.56230078125,0.0037490790709853172,0.05663234367966652,0.05709770321846008
1761432038857244000,7.582243896484375,0.054559770971536636,0.2450057417154312,-0.07319729030132294
1761432038877185800,7.602185791015625,0.0031411496456712484,0.29542988538742065,-0.1368231326341629
1761432038897128700,7.622128662109375,-0.14143726229667664,0.1849716156721115,-0.12662218511104584
1761432038917070800,7.64207080078125,-0.27540063858032227,-0.09531302005052567,-0.003923919051885605
1761432038937013800,7.662013671875,-0.251613050699234,-0.21002843976020813,0.24758896231651306
1761432038956956000,7.681955810546875,-0.14410780370235443,-0.08838396519422531,0.3410480320453644
1761432038976898800,7.70189892578125,0.027996042743325233,0.2077765017747879,0.2329421043395996
1761432038996842000,7.721842041015625,0.150407612323761,0.38671910762786865,-0.001985065173357725
1761432039016783600,7.74178369140625,0.1621234267950058,0.26385125517845154,-0.04677790775895119
1761432039036726800,7.761726806640625,0.13202586770057678,-0.05798521637916565,0.050018083304166794
1761432039056668700,7.781668701171875,0.0682191252708435,-0.1691051572561264,0.21295243501663208
1761432039076611800,7.80161181640625,0.15462671220302582,0.1260753571987152,0.4259917438030243
1761432039096553700,7.8215537109375,0.35950717329978943,0.34152644872665405,0.5562397241592407
1761432039116497000,7.841496826171875,0.25848597288131714,0.2665671706199646,0.4013747274875641
1761432039136439800,7.861439697265625,0.11904627829790115,0.12224853038787842,0.033732179552316666
1761432039156382000,7.8813818359375,-0.03394684940576553,-0.07788808643817902,-0.32318904995918274
1761432039176324900,7.901324951171875,0.05473608896136284,-0.02876771241426468,-0.28378352522850037
1761432039196267000,7.92126708984375,0.3283814787864685,0.23639923334121704,0.04823943227529526
1761432039216210000,7.9412099609375,0.527900218963623,0.3446432054042816,0.23469924926757812
1761432039236151800,7.96115185546875,0.43696582317352295,0.2255338728427887,0.16370581090450287
1761432039256094700,7.9810947265625,0.2515315115451813,0.00046158116310834885,-0.0991295874118805
1761432039276036900,8.001036865234376,0.11502517014741898,-0.25077638030052185,-0.2939051389694214
1761432039295978800,8.020978759765624,0.11945047974586487,-0.2896979749202728,-0.2612813413143158
1761432039315921700,8.040921630859375,0.2406526803970337,-0.031160060316324234,-0.1330057680606842
1761432039335863800,8.06086376953125,0.3523077964782715,0.10384905338287354,-0.11669137328863144
1761432039355806700,8.080806640625,0.37698620557785034,0.00522184744477272,-0.1341831237077713
1761432039375750000,8.10075,0.3327276110649109,-0.06394873559474945,-0.12016576528549194
1761432039395691800,8.12069189453125,0.26567643880844116,0.041973672807216644,-0.14575891196727753
1761432039415635000,8.140635009765624,0.270005464553833,0.13882015645503998,-0.19677269458770752
1761432039435576800,8.160576904296875,0.19653551280498505,0.05504293367266655,-0.17643216252326965
1761432039455520000,8.18052001953125,0.061895061284303665,-0.05117591843008995,-0.06401510536670685
1761432039475461600,8.200461669921875,-0.03542589768767357,0.02079308032989502,0.05290858820080757
1761432039495404800,8.22040478515625,0.007453866768628359,0.19442369043827057,0.051245249807834625
1761432039515346700,8.2403466796875,0.013445932418107986,-0.006057900842279196,-0.027211807668209076
1761432039535289900,8.260289794921874,-0.129281148314476,-0.3618535101413727,-0.07207899540662766
1761432039555232800,8.280232666015625,-0.31486064195632935,-0.3846278786659241,-0.01192732248455286
1761432039575175000,8.3001748046875,-0.33836424350738525,-0.15694504976272583,0.07480815798044205
1761432039595117800,8.320117919921875,-0.23042601346969604,-0.04161756858229637,0.11606971174478531
1761432039615059700,8.340059814453125,-0.21450334787368774,-0.12783700227737427,0.1362564116716385
1761432039635003600,8.360003662109374,-0.3968585729598999,-0.22851450741291046,0.13885465264320374
1761432039654946600,8.379946533203125,-0.5298119783401489,-0.15363813936710358,0.19569233059883118
1761432039674888700,8.399888671875,-0.35178273916244507,0.010980965569615364,0.3430466055870056
1761432039694831600,8.41983154296875,-0.022488124668598175,0.20192115008831024,0.4841613471508026
1761432039714773800,8.439773681640625,0.15635913610458374,0.32894307374954224,0.35520660877227783
1761432039734716700,8.459716552734376,-0.18496233224868774,0.18386167287826538,-0.07565692067146301
1761432039754659600,8.47965966796875,-0.58144611120224,-0.18265360593795776,-0.49459895491600037
1761432039774601700,8.499601806640625,-0.6049897074699402,-0.4626861810684204,-0.4681793749332428
1761432039794544600,8.519544677734375,-0.38873493671417236,-0.36542436480522156,-0.1212162971496582
1761432039814486800,8.53948681640625,-0.06707964837551117,0.17239539325237274,0.18001128733158112
1761432039834429700,8.5594296875,0.09478133171796799,0.4218616783618927,0.177861288189888
1761432039854371800,8.579371826171876,0.13083794713020325,0.20536985993385315,0.01551662478595972
1761432039874314800,8.599314697265624,0.10587567090988159,-0.052499737590551376,-0.12693621218204498
1761432039894256600,8.619256591796875,0.046104706823825836,-0.19777198135852814,-0.21023257076740265
1761432039914199600,8.639199462890625,-0.007867902517318726,-0.16033746302127838,-0.11638893187046051
1761432039934142500,8.659142578125,0.0015158995520323515,-0.12828058004379272,0.054511915892362595
1761432039954084600,8.679084716796876,0.068781778216362,-0.04819876700639725,0.13298866152763367
1761432039974027500,8.699027587890624,0.1371065229177475,0.08384957909584045,0.0363369919359684
1761432039993969700,8.7189697265625,0.19161097705364227,0.2734394371509552,-0.15002934634685516
1761432040013912600,8.73891259765625,0.1844782680273056,0.3458545207977295,-0.39545705914497375
1761432040033854700,8.758854736328125,0.12275868654251099,0.2739166021347046,-0.4413444697856903
1761432040053797600,8.778797607421875,0.023943781852722168,0.10485399514436722,-0.19660775363445282
1761432040073740800,8.79874072265625,-0.036581091582775116,-0.018882419914007187,0.10179094225168228
1761432040093682700,8.8186826171875,-0.014313912019133568,-0.11015428602695465,0.2408863604068756
1761432040113625900,8.8386259765625,0.0024588829837739468,-0.09801775962114334,0.2752617299556732
1761432040133567500,8.8585673828125,0.09029169380664825,-0.058991458266973495,0.31283172965049744
1761432040153510700,8.8785107421875,0.21176333725452423,-0.04065386578440666,0.27078700065612793
1761432040173453600,8.89845361328125,0.1252700686454773,-0.07686234265565872,0.0360308475792408
1761432040193395700,8.918395751953126,0.060035958886146545,-0.059593696147203445,-0.14840726554393768
1761432040213338600,8.938338623046874,0.19382338225841522,-0.03897297754883766,-0.08133644610643387
1761432040233280800,8.95828076171875,0.2758806049823761,0.16176266968250275,0.1554451435804367
1761432040253223700,8.9782236328125,0.2976158559322357,0.17271722853183746,0.20574361085891724
1761432040273165800,8.998165771484375,0.08907627314329147,-0.0075928219594061375,-0.020728053525090218
1761432040293108700,9.018108642578126,-0.19478464126586914,-0.10876461863517761,-0.22290004789829254
1761432040313051600,9.0380517578125,-0.29183802008628845,0.029202919453382492,-0.09627776592969894
1761432040332993800,9.057993896484374,-0.05929681658744812,0.2708793878555298,0.22594474256038666
1761432040352936700,9.077936767578125,0.2963210642337799,0.5153368711471558,0.422056645154953
1761432040372878800,9.09787890625,0.31721585988998413,0.45203348994255066,0.2942860424518585
1761432040392821800,9.11782177734375,0.11250926554203033,0.14241136610507965,0.061071015894412994
1761432040412763600,9.137763671875,-0.04736245423555374,-0.18587221205234528,-0.12345606088638306
1761432040432706600,9.15770654296875,-0.028119893744587898,-0.22860489785671234,-0.15257298946380615
1761432040452648700,9.177648681640624,0.10071025788784027,-0.06752173602581024,-0.09575631469488144
1761432040472591600,9.197591552734375,0.2014138400554657,0.11353923380374908,-0.07279489934444427
1761432040492534500,9.217534423828125,0.19684384763240814,0.03134375810623169,-0.13952286541461945
1761432040512476700,9.2374765625,0.20839321613311768,-0.11838298290967941,-0.2383992075920105
1761432040532419600,9.257419677734376,0.22403956949710846,-0.16623160243034363,-0.300009548664093
1761432040552361700,9.27736181640625,0.2223116159439087,-0.048162851482629776,-0.3208687901496887
1761432040572304600,9.2973046875,0.22092145681381226,0.11694251745939255,-0.34966254234313965
1761432040592246800,9.317246826171875,0.13987396657466888,0.1029592901468277,-0.3934914767742157
1761432040612190200,9.337190185546875,0.03768853470683098,-0.04074038565158844,-0.33526065945625305
1761432040632133000,9.357133056640626,-0.010241251438856125,-0.17445003986358643,-0.12045271694660187
1761432040652075300,9.3770751953125,-0.05351134389638901,-0.1973692774772644,0.1286802887916565
1761432040672018200,9.39701806640625,-0.02062929794192314,-0.12198291718959808,0.22824601829051971
1761432040691960300,9.416960205078125,-0.03780211880803108,-0.14175395667552948,0.16230016946792603
1761432040711903200,9.4369033203125,-0.18594400584697723,-0.22362329065799713,0.0997333973646164
1761432040731845400,9.456845458984375,-0.2928326427936554,-0.16690786182880402,0.15603427588939667
1761432040751788300,9.476788330078126,-0.2975565791130066,-0.06556127965450287,0.26075562834739685
1761432040771730200,9.496730224609376,-0.205333411693573,-0.13630841672420502,0.37096789479255676
1761432040791673000,9.516673095703124,-0.0810452550649643,-0.14854371547698975,0.3874923586845398
1761432040811615200,9.536615234375,-0.004769391845911741,0.020595775917172432,0.2542296350002289
1761432040831558100,9.55655810546875,-0.039472416043281555,-0.00904377643018961,-0.001244987128302455
1761432040851501300,9.576501220703125,-0.18843647837638855,-0.04089697450399399,-0.30039480328559875
1761432040871443200,9.596443115234376,-0.31846752762794495,-0.04861142113804817,-0.4481312334537506
1761432040891386400,9.616386474609374,-0.3111571669578552,0.04918168485164642,-0.3190167248249054
1761432040911328300,9.636328369140625,-0.258839875459671,0.09177184849977493,-0.044424060732126236
1761432040931271400,9.656271484375,-0.059735652059316635,0.15257388353347778,0.1928471028804779
1761432040951213300,9.67621337890625,0.09599337726831436,0.16364024579524994,0.22230027616024017
1761432040971156500,9.696156494140626,0.08286385983228683,0.14126206934452057,0.045568548142910004
1761432040991098400,9.716098388671876,-0.054247062653303146,0.074412502348423,-0.19032928347587585
1761432041011041300,9.736041259765624,-0.20503634214401245,-0.07080274820327759,-0.3109178841114044
1761432041030983200,9.755983154296874,-0.2381712794303894,-0.12229303270578384,-0.20448188483715057
1761432041050926300,9.77592626953125,-0.17705360054969788,-0.042662058025598526,-0.052867110818624496
1761432041070869200,9.795869140625,-0.07402975857257843,0.1309775561094284,0.03446781635284424
1761432041090811100,9.81581103515625,0.06242948770523071,0.32465189695358276,0.05486050993204117
1761432041110754300,9.83575439453125,0.15321789681911469,0.36012277007102966,0.051788583397865295
1761432041130696200,9.8556962890625,0.12478902190923691,0.28742069005966187,0.0032841782085597515
1761432041150639400,9.875639404296875,0.038307901471853256,0.20347200334072113,-0.06654028594493866
1761432041170581200,9.895581298828125,0.0465848334133625,0.14821897447109222,-0.0553419403731823
1761432041190524400,9.9155244140625,0.05699668824672699,0.08588343113660812,0.029675334692001343
1761432041210466300,9.93546630859375,0.13124589622020721,0.016702167689800262,0.09894368052482605
1761432041230409500,9.955409423828126,0.14408883452415466,0.14270196855068207,0.2101835012435913
1761432041250351000,9.97535107421875,0.1270262598991394,0.14793255925178528,0.30394065380096436
