time,seconds_elapsed,z,y,x
1761507693608292600,0.074292724609375,-0.10890636492073535,-0.027336864937935024,0.018908552478998898
1761507693628448800,0.09444873046875,-0.12228899358510971,-0.08170510906120762,0.014225216968357561
1761507693648603600,0.114603759765625,-0.11479425391554832,-0.045401970596425235,0.029692981343716382
1761507693668759600,0.134759521484375,-0.11007716226577759,-0.02890135604199022,0.039791473770886654
1761507693688915700,0.154915771484375,-0.11311141539514064,-0.0550403529648669,0.053637189902365205
1761507693709070600,0.175070556640625,-0.07890110275745392,-0.010081212498806417,0.04490779387131333
1761507693729226500,0.1952265625,-0.020831191104650496,0.0021758644680492578,0.047341596889495845
1761507693749382700,0.215382568359375,0.01834872663915157,-0.008686177943833171,0.03207973034977913
1761507693769538600,0.23553857421875,0.04861994626224041,-0.04182937280666083,0.030878537866473196
1761507693789693700,0.255693603515625,0.05098258374035358,-0.04307126262653619,0.03812032568827271
1761507693809849900,0.275849853515625,-0.0008089782953262329,-0.009365721173211931,0.026323358780145644
1761507693830005800,0.296005859375,-0.06056815820932388,0.01896589042311534,0.01987009098753333
1761507693850161700,0.31616162109375,-0.044514849030971526,-0.012201364724244922,-0.022462883959710595
1761507693870316800,0.33631689453125,-0.051390580019354815,-0.03627332784840837,-0.020459727443754672
1761507693890472700,0.35647265625,-0.015686813953518865,-0.0298183430227451,0.028590719190239904
1761507693910628900,0.37662890625,0.0019739304214715955,-0.04554302303493023,0.07470189750194549
1761507693930783700,0.39678369140625,0.014172317737340926,-0.0674896097692661,0.12813421248197554
1761507693950939600,0.416939697265625,0.007676525977253913,-0.017910116026178,0.13297916829511522
1761507693971095600,0.437095458984375,-0.06086100367605686,-0.043609077563975,0.14256006658896803
1761507693991251700,0.457251708984375,-0.04079845885634422,-0.11661566065642982,0.11733765478804707
1761507694011406600,0.477406494140625,-0.03270692233741283,-0.10765380757637322,0.04634834806844592
1761507694031562500,0.4975625,-0.018137714236974717,-0.11403072219714522,0.03243672709390521
1761507694051718700,0.51771875,-0.10592471876144409,-0.06403691203212365,0.04589680490866303
1761507694071873800,0.537873779296875,-0.07546995926499367,-0.0563709439815022,0.06344985112547874
1761507694092029700,0.55802978515625,-0.13417115455865858,-0.09328298985855653,0.09129019033983349
1761507694112185600,0.578185546875,-0.16865969961583613,-0.09744043833157047,0.13302870652526616
1761507694132341500,0.598341552734375,-0.05513678081035614,-0.10189855025159195,0.13739866523779928
1761507694152496600,0.61849658203125,-0.15522563302516937,-0.14546150538520886,0.10990414378643035
1761507694172652800,0.63865283203125,-0.10032032288312911,-0.12295525720780714,0.12751440008319914
1761507694192808700,0.65880859375,-0.11700199309289455,-0.08605088318055495,0.13284034434631467
1761507694212963600,0.678963623046875,-0.11170213311910629,-0.04343890862884,0.08690781053714454
1761507694233119700,0.69911962890625,-0.08460895901024341,-0.02029304737364873,0.007898644295334815
1761507694253275600,0.719275634765625,-0.05863572884202003,-0.03757692126026377,-0.036441724951565266
1761507694273431800,0.739431884765625,0.03739712598025799,-0.049900725054088976,-0.09217902893833815
1761507694293586700,0.759586669921875,-0.003087444621324539,0.014987013387400655,-0.09506569029055535
1761507694313742600,0.77974267578125,-0.03984042747914791,0.07838391048293561,-0.09368439199998974
1761507694333898800,0.799898681640625,-0.09228314689993858,0.1458532446491532,-0.1419879657894373
1761507694354053600,0.8200537109375,-0.28066519959568975,0.005774382150359451,-0.10918006729558109
1761507694374209500,0.84020947265625,-0.22419804696440696,-0.08029969924269244,-0.14230112339183687
1761507694394365700,0.86036572265625,-0.2447270402520895,0.06447460932964459,-0.10472995601892471
1761507694414521600,0.880521484375,-0.14806699344217777,0.029104513931274414,-0.061735083096846936
1761507694434677000,0.900677001953125,-0.03347907575368881,0.06929612946826964,0.009071268271282315
1761507694454833000,0.9208330078125,0.0473392588019371,0.04877838822696358,0.04024805843196809
1761507694474989000,0.940989013671875,0.08063011850714683,-0.0049283232476562255,0.020034853095188737
1761507694495144000,0.96114404296875,0.08198328668177127,0.024007994509860874,-0.01278517422787845
1761507694515299800,0.9812998046875,0.09829670810103416,-0.017724493793584404,-0.03290171425715089
1761507694535456000,1.0014560546875,0.041838323298096655,-0.036894327557273204,0.006738076083362102
1761507694555612000,1.02161181640625,-0.0014168810606002807,-0.044093737542070445,0.0038861937835812568
1761507694575766800,1.041766845703125,-0.016706220129132268,-0.08153444693572819,0.057037353734672065
1761507694595923000,1.0619228515625,-0.04382920485436916,-0.11657467105891554,0.08008972802013159
1761507694616078800,1.082078857421875,-0.06578501607477664,-0.05036675339695066,0.09102934744656085
1761507694636233700,1.102233642578125,-0.08318915534019469,-0.0004839841246604919,0.06970028982236981
1761507694656390000,1.122389892578125,-0.045774493703246114,0.04430113321505487,0.07683613305166363
1761507694676545800,1.1425458984375,-0.06889058087468147,0.08405037527941167,0.06979366719424725
1761507694696702000,1.162701904296875,-0.07438333307206631,0.13892667852267623,0.07746858573630452
1761507694716856800,1.18285693359375,-0.07284837858974934,0.1963124073036015,0.06749912651628255
1761507694737012700,1.2030126953125,-0.05116787717938423,0.220272799812071,0.014089900150895118
1761507694757169000,1.2231689453125,-0.03313596140444278,0.19044395366162062,-0.005643120453506708
1761507694777324000,1.243323974609375,0.018825696501135827,0.09117284757047892,-0.024506226355582476
1761507694797480000,1.26347998046875,-0.02851414682269096,0.040732517480663956,0.002117868936806917
1761507694817635800,1.2836357421875,0.05167699574530124,0.06948039999399334,0.021255846257507798
1761507694837792000,1.3037919921875,-0.052557870233058926,0.09548987051937728,0.039542321315407754
1761507694857947000,1.32394677734375,-0.026076690542697904,0.09879077522829174,0.0462989559687674
1761507694878102800,1.344102783203125,-0.09562368949949741,0.07146949145197867,0.06208163151219487
1761507694898259000,1.364259033203125,-0.06521452271044254,0.10139799858462065,0.01928688427209854
1761507694918413800,1.384413818359375,-0.11227554909288882,0.06621727001219987,0.0001347322955727577
1761507694938569700,1.40456982421875,-0.06755027218163014,0.08012366682235152,-0.032912235651165245
1761507694958726000,1.424725830078125,-0.09316051425635814,0.05853701770789921,-0.04007862014919519
1761507694978881800,1.4448818359375,-0.09560089314579963,0.05287376778181642,-0.0254603122100234
1761507694999036700,1.46503662109375,-0.09290449366867541,0.08013696469534189,0.03294350757226348
1761507695019192800,1.48519287109375,-0.05234919591844082,0.07388616067226976,0.05613908972069621
1761507695039348700,1.5053486328125,-0.06526011541783809,0.06809636175706982,0.056761021011322736
1761507695059503900,1.52550390625,-0.08129881154894829,0.07257160747498273,0.0005859831944108009
1761507695079660000,1.545659912109375,-0.08117781551778316,0.1377620186574757,-0.000445551810413599
1761507695099816000,1.56581591796875,-0.11161796196699142,0.14166998588144777,-0.02989201104715466
1761507695119972000,1.58597216796875,-0.0978109704107046,0.13571809173971414,-0.07951163587123156
1761507695140127000,1.606126953125,-0.09350245956182479,0.1836362464081496,-0.09896817762181162
1761507695160283000,1.626282958984375,0.04055003705322742,0.09313274946659802,-0.09522650687545538
1761507695180439000,1.64643896484375,0.11687398279905319,-0.006046221361681818,-0.05098229147940874
1761507695200594000,1.666593994140625,0.09232347891032695,-0.06941950011961162,0.014681582433730363
1761507695220749800,1.686749755859375,0.04439326847791671,0.022696035128459333,0.05634937147051096
1761507695240906000,1.706906005859375,0.015312135422229766,-0.10060527730435133,0.028381168092787266
1761507695261060900,1.727060791015625,-0.10809797114729881,-0.1121599598892033,0.07614756626561284
1761507695281216800,1.747216796875,-0.1208557459115982,-0.04645940722748637,0.08141425462216138
1761507695301373000,1.767373046875,-0.15058277565538883,-0.013219473991915583,0.05981719371154904
1761507695321528800,1.78752880859375,-0.06712532476782798,-0.05103957462459802,0.05682239580973982
1761507695341684000,1.80768408203125,0.002763619494438171,-0.02068418384939432,0.03468523667305708
1761507695361839900,1.82783984375,0.06751520086824894,0.018807137931138276,0.050797582562267775
1761507695381996000,1.84799609375,0.023486089527606963,0.06133556238524615,0.03198416102081537
1761507695402151000,1.86815087890625,0.005144961673021317,0.010600012208521366,0.046795507314056156
1761507695422306800,1.888306884765625,0.001315174251794815,0.041504013309814035,0.02918853895291686
1761507695442463500,1.90846337890625,-0.06742810710668563,-0.01873622811939567,0.049340369491279124
1761507695462619600,1.92861962890625,-0.08754442794024944,-0.004757131399214267,0.05715133550316095
1761507695482774500,1.9487744140625,-0.05033610253036022,-0.13672924154363572,0.06998875137493014
1761507695502930400,1.968930419921875,-0.05675882905423641,-0.14746011359021066,0.06785626939088106
1761507695523086600,1.989086669921875,-0.021454291439056396,-0.07801920535638927,0.11564590230882167
1761507695543241500,2.009241455078125,-0.02679506794512272,-0.09806618728078902,0.15194515004977582
1761507695563397400,2.0293974609375,-0.003186228820681572,-0.10438735312633216,0.14618936300203203
1761507695583553300,2.04955322265625,0.0771241562128067,-0.10653492308165878,0.12578545739874242
1761507695603709400,2.06970947265625,0.00935585736632347,-0.07319934745188802,0.08537300218529999
1761507695623864300,2.0898642578125,-0.01262801090478897,-0.07750128242950886,0.0339455242216587
1761507695644020200,2.110020263671875,-0.015533669218420981,-0.07794953765366226,-0.019657471150159835
1761507695664176400,2.13017626953125,-0.0554781415939331,-0.0032590017959475514,-0.051153264132142065
1761507695684331500,2.15033154296875,-0.0630243191897869,0.06975479648858308,-0.033242490518838166
1761507695704487400,2.1704873046875,-0.08757774568796158,0.04130816194415092,0.004091799358278513
1761507695724643600,2.1906435546875,-0.08912263704240321,0.012041516253724694,0.02423047815412283
1761507695744799500,2.210799560546875,-0.1505441972106695,0.0625200594620779,0.05449541416689753
1761507695764954400,2.230954345703125,-0.15326923826038835,0.05154730495102703,0.03661035951673984
1761507695785110500,2.251110595703125,-0.16867781979441643,0.048611178433895105,0.016508870926126837
1761507695805266400,2.271266357421875,-0.1557125397592783,0.008513232529722154,-0.018424422223865984
1761507695825421300,2.29142138671875,-0.10395780260264872,-0.017954283961467445,-0.048390667551010846
1761507695845577500,2.311577392578125,-0.014373393267393111,-0.03884144303705543,-0.05907580075971782
1761507695865733400,2.3317333984375,0.014177578434348106,-0.03835154062826186,-0.029857378125190733
1761507695885889500,2.3518896484375,-0.025260113462805746,-0.04989091604612767,-0.011358648556098342
1761507695906044400,2.37204443359375,0.013458616510033607,-0.09045322805903852,-0.031169702832773327
1761507695926200300,2.392200439453125,0.009444120171666145,-0.1352561367837712,-0.05620397165045142
1761507695946356500,2.4123564453125,-0.11873100884258746,-0.1380571291465312,-0.050920697485283016
1761507695966511400,2.432511474609375,0.028584289449453352,-0.07958481070529669,-0.07752148496732116
1761507695986667500,2.45266748046875,-0.0637391894608736,-0.14720844038408248,-0.04735767124146223
1761507696006823400,2.472823486328125,-0.026410452541708946,-0.1421412566550076,-0.009586012860387563
1761507696026979300,2.492979248046875,-0.06343173094689845,-0.10352814248111099,0.012272329334914683
1761507696047134500,2.513134521484375,-0.0912707549870014,-0.05636851456239819,0.06741473616845906
1761507696067290600,2.53329052734375,-0.07829378451406956,-0.051520453476719553,0.0571961975581944
1761507696087446500,2.553446533203125,-0.06885375599563122,-0.09145440445821731,0.07121675879992544
1761507696107601400,2.573601318359375,-0.054772039151191707,-0.11799498618561774,0.04019808181039989
1761507696127757300,2.59375732421875,-0.03436053476333618,-0.13330741386879236,0.029325170944631097
1761507696147913500,2.61391357421875,-0.035191140368580814,-0.12430533837620168,0.057260056574642657
1761507696168069400,2.6340693359375,-0.10751695638895034,-0.09829378549158573,0.10086217467486858
1761507696188224300,2.654224365234375,-0.14495382985770702,-0.06178805539309978,0.11849873445667326
1761507696208380400,2.67438037109375,-0.14572773683965207,-0.04105838843416423,0.0763485687304288
1761507696228536300,2.694536376953125,-0.18521394405364988,-0.027748751940764486,0.07147738249748944
1761507696248691200,2.714691162109375,-0.10138006106913089,-0.015427030506171285,0.04185534749813378
1761507696268847400,2.734847412109375,-0.029037293913960455,0.024740838829055426,0.030974034130200744
1761507696289003300,2.755003173828125,0.03328092283308506,0.03547375670224428,0.020898557252436875
1761507696309159400,2.775159423828125,0.03525251516699791,0.032056093745864926,0.005470978756994009
1761507696329314600,2.795314453125,0.053631052422523494,0.009803528068587183,-0.011473507107421755
1761507696349470500,2.815470458984375,0.06358896733522415,0.01603990170750767,-0.021897139835730193
1761507696369626600,2.835626708984375,0.029165304207801817,0.003991042397543788,0.003667071140184998
1761507696389781500,2.855781494140625,0.0019493805021047592,0.030158005039580164,0.04685476322062313
1761507696409937400,2.8759375,-0.0648632250547409,0.0015793416133150458,0.047904053077846766
1761507696430093000,2.896093017578125,-0.09267711465358734,-0.02526621441002935,0.05047587632723152
1761507696450249000,2.9162490234375,-0.13857552699744702,0.048528980043157935,0.042521702452376485
1761507696470404000,2.936404052734375,-0.14976678309738636,0.038685266094654794,0.03648147244006395
1761507696490560000,2.95656005859375,-0.1011357309192419,-0.0017717954454943537,0.02610021754875779
1761507696510716000,2.9767158203125,-0.09272095379531382,0.018225867444463074,0.01011032899543643
1761507696530871000,2.99687109375,-0.10041092377603053,0.012187938987091184,0.020555808229371905
1761507696551027000,3.01702685546875,-0.0018628712624311446,-0.020183504318259656,-0.011483078653365373
1761507696571182800,3.037182861328125,-0.027719197052717207,-0.0224561619579792,-0.0103011753924191
1761507696591339000,3.057339111328125,0.04779927752912044,-0.004562704805657267,0.007612593895569443
1761507696611494100,3.077494140625,-0.0004693710774183273,-0.00017513737119734287,0.07483480316661298
1761507696631650000,3.097650146484375,0.05136193844676017,-0.00946143663264811,0.12371844186633825
1761507696651806200,3.11780615234375,-0.0487380196839571,0.004570888112112879,0.11749883669912814
1761507696671961000,3.137961181640625,-0.022036475241184232,-0.04036342843994498,0.0786215551637113
1761507696692117000,3.158116943359375,-0.13631284276247024,-0.06689608258921653,0.030069778766855595
1761507696712273200,3.178273193359375,-0.10958090318143367,0.006454290705919265,-0.008374298983067274
1761507696732429000,3.198428955078125,-0.11749123791456222,-0.045581345751322805,-0.03112469464726746
1761507696752584000,3.218583984375,-0.06754618052840232,-0.034728820086456835,-0.02432378246076405
1761507696772740000,3.238739990234375,-0.1276525664448738,-0.03218717277962714,0.013734145515784621
1761507696792896000,3.25889599609375,-0.0289046074450016,-0.011762991573289036,0.00840600929558277
1761507696813051000,3.27905078125,-0.05715981107056141,-0.0717559071779251,0.0160333623688668
1761507696833207000,3.29920703125,-0.03398644075393677,-0.044796552049182356,0.03784486974775791
1761507696853363000,3.319363037109375,-0.0059808279752731315,-0.0277096985720098,0.0705305301014334
1761507696873518800,3.339518798828125,0.035949849781394004,-0.06877572232335806,0.09403773548230528
1761507696893674200,3.35967431640625,-0.0036743045985698696,-0.054032728558592494,0.11690225904546678
1761507696913830100,3.379830078125,-0.011886252626776695,-0.0649226270917803,0.11946480300985277
1761507696933986000,3.399986083984375,-0.06177168878018856,-0.04347052760981023,0.10956585174277424
1761507696954141200,3.42014111328125,-0.09724982939660548,-0.07372234841268509,0.05845832644850015
1761507696974297000,3.440297119140625,-0.17926292669475077,0.045388161266781385,0.004123217409849167
1761507696994453000,3.460452880859375,-0.13524024509489535,0.010865056352876126,-0.03731587743759155
1761507697014609200,3.480609130859375,-0.163314831456542,-0.03979085271637887,-0.043165261052921414
1761507697034764000,3.500763916015625,-0.06140577807724475,-0.011395181174203753,-0.02043130506686866
1761507697054920000,3.520919921875,-0.09029401890933512,0.02980151975210756,0.017850275597721336
1761507697075076000,3.541076171875,0.0023199673801660536,0.05435290042366832,0.028854484692960976
1761507697095231000,3.56123095703125,-0.05889174942970275,0.005532645816355943,0.043856385122239584
1761507697115387000,3.581386962890625,0.017898060262203214,0.03444971088413149,0.037881548496335744
1761507697135543000,3.60154296875,-0.0038490766435861586,0.024011793902143835,0.039953532464802266
1761507697155699000,3.621698974609375,-0.02054477537870407,0.038861462911777195,0.06455299006178974
1761507697175854000,3.64185400390625,-0.05699672946333885,0.045951969162002206,0.08873239561580121
1761507697196010200,3.66201025390625,-0.05612520732581615,0.06062255527768284,0.06428381773158907
1761507697216166100,3.682166259765625,-0.06601999387443065,0.049660797084681685,0.02164754898883402
1761507697236322000,3.702322021484375,-0.028500118297338485,0.007048274543695152,-0.020767843544855714
1761507697256477200,3.722477294921875,-0.0022030630022287366,-0.008351100770570337,0.006096636374667287
1761507697276633000,3.742633056640625,0.004407879570126534,-0.010375628868117928,0.02657784499786794
1761507697296789200,3.762789306640625,-0.046615620702505106,0.03856452579181641,0.03374196447357535
1761507697316944100,3.782944091796875,0.029983634853363035,0.0008009776519611477,0.017689239817112682
1761507697337100000,3.80310009765625,-0.051260816159844395,0.02313358629550785,0.033872824311628934
1761507697357256000,3.823255859375,0.0065963295251131055,0.03516830748226493,0.023174904686585066
1761507697377412000,3.843412109375,-0.10110241317152976,-0.008889189702644944,0.011230930523201822
1761507697397567000,3.86356689453125,-0.07169745498895645,0.059384501382708545,-0.02987396393381059
1761507697417723000,3.883722900390625,-0.050830023527145385,-0.04288984164502471,-0.05840966500118375
1761507697437879300,3.90387939453125,-0.15599135670065878,0.02612480400074273,-0.06102825000174343
1761507697458034200,3.9240341796875,0.01377484285235405,0.02019197988566011,-0.08205021443814038
1761507697478190300,3.9441904296875,-0.11456161420345305,-0.08535919285565614,-0.04572765888683498
1761507697498346200,3.96434619140625,-0.003603577449917793,-0.018106003924459216,-0.01733662698715925
1761507697518502400,3.98450244140625,-0.09981529597043991,-0.06169679691307246,0.03733063661530614
1761507697538657500,4.004657470703125,-0.02798223190307617,-0.0020788521006703375,0.04096300176829099
1761507697558812400,4.0248125,-0.08498480658531188,-0.06221219908930361,0.05080569280348718
1761507697578967300,4.04496728515625,-0.09512509232759475,-0.03443407492358237,0.03855141058191657
1761507697599123500,4.06512353515625,-0.16786942602097987,-0.0661985287791118,0.040162206779420374
1761507697619279400,4.085279296875,-0.09582418050765991,-0.08479743078704922,0.016208938131481408
1761507697639434200,4.105434326171875,-0.07072948673963546,-0.06325494960788637,0.017296221911534668
1761507697659590400,4.12559033203125,-0.05005553202331066,-0.01666018903031945,0.04657492336593568
1761507697679746300,4.145746337890625,0.04158054914474487,0.06375924586821347,-0.035395284638553855
1761507697699902200,4.165902099609375,0.009068272596597671,0.005633512374944984,0.012143076932057737
1761507697720057600,4.1860576171875,0.03265957606434822,-0.07013988681603223,0.10250723846815527
1761507697740213500,4.206213623046875,0.12890110520124434,-0.11588899034969508,0.06433006802611052
1761507697760369400,4.226369384765625,0.14323241289258,-0.11924122338704764,0.05678783595301211
1761507697780524500,4.246524658203125,0.047186698588728905,-0.11476698231613262,0.030982290501892565
1761507697800680400,4.266680419921875,-0.16073825896680355,-0.06182809514254331,0.07536087286733091
1761507697820836400,4.28683642578125,-0.1822106705844402,-0.03188219848368317,0.02384162496700883
1761507697840992500,4.306992431640625,-0.19926585028171537,-0.028745270431134846,0.009915537075698375
1761507697861147400,4.3271474609375,-0.2851771240621805,-0.05784594843750819,0.01639459689669311
1761507697881303300,4.34730322265625,-0.19058394665420053,-0.12892994770323857,-0.008775865521281958
1761507697901459500,4.36745947265625,-0.11284195080399513,-0.09100545511431991,-0.04203771832771599
1761507697921615400,4.387615478515625,-0.03783960905075073,-0.04247008186299354,-0.02846424326635897
1761507697941772500,4.4077724609375,-0.0021849428236484524,-0.010156816751975566,0.014719284095615147
1761507697961927400,4.427927490234375,0.04651625198125839,-0.0356615708919242,0.042796208544820545
1761507697982083300,4.448083251953125,0.05258826537132263,-0.04473214504346251,0.06972483974173664
1761507698002239500,4.468239501953125,0.08049860108196735,-0.05010198324723169,0.04267769673168659
1761507698022395400,4.4883955078125,0.057276130926609034,-0.04247274874411523,0.009144187377020717
1761507698042550300,4.50855029296875,-0.010341361272335052,-0.04146742589278146,-0.014133958488330245
1761507698062706400,4.52870654296875,-0.08118775238990783,-0.07891598979933187,-0.038752851438149806
1761507698082862300,4.5488623046875,-0.12661620913445948,-0.013786387159675359,-0.01214329612776637
1761507698103017200,4.569017333984375,-0.1732353369683027,-0.004805701514985412,0.0323036752987653
1761507698123173400,4.58917333984375,-0.13405191209316253,-0.058522751720529044,0.06426124057359993
1761507698143329300,4.609329345703125,-0.11191782169640063,-0.08449408219261094,0.08581723882146179
1761507698163485200,4.629485107421875,-0.042268531408905984,-0.05516434467071667,0.09851751124486327
1761507698183640600,4.649640625,-0.030206337693333623,-0.062365343824401495,0.09147489925697445
1761507698203796500,4.66979638671875,-0.006457213315367698,-0.03390780429346487,0.11273900188617407
1761507698223952400,4.689952392578125,-0.02021802764236927,-0.06615140170175582,0.10714249705336987
1761507698244108500,4.710108642578125,0.015584522622823714,-0.0673120612452738,0.0585659515414387
1761507698264263400,4.730263427734375,-0.03226911544203758,-0.07043097871709615,0.033898177948594094
1761507698284419300,4.75041943359375,-0.05440437488257885,-0.025844671885110436,0.05072700154408812
1761507698304575500,4.770575439453125,-0.08109598245322704,-0.0014366269406862555,0.05329612137973308
1761507698324730400,4.79073046875,-0.14322247602045535,0.03953662222698331,0.05486432054452598
1761507698344886300,4.81088623046875,-0.12236965760588646,0.04606980512170121,0.03133775287605822
1761507698365042400,4.83104248046875,-0.10597849477529525,-0.01389176549660042,-0.0023663638051599264
1761507698385198300,4.8511982421875,-0.030815994024276733,-0.054939979596622286,-0.02691540638916194
1761507698405353200,4.871353271484375,-0.01700023463964462,-0.026754480206407603,-0.030714433345943686
1761507698425509400,4.89150927734375,0.06686345896124839,-0.018737123168539253,-0.014375804420188069
1761507698445668400,4.91166845703125,-0.006598083090782165,0.0036761129631660877,0.01826243659518659
1761507698465823500,4.931823486328125,0.01732932046353817,0.022800408818386495,0.02832330042570829
1761507698485979600,4.951979736328125,-0.0931055691987276,0.0359093351079151,-0.0012593524113297461
1761507698506135600,4.972135498046875,-0.0727367349088192,-0.02530698481183499,-0.029583968011289832
1761507698526291700,4.992291748046875,-0.07721884875893592,-0.025734306845813987,-0.04509359876699746
1761507698546446600,5.012446533203125,-0.02759410936832428,-0.0610574212973006,-0.01989763658158481
1761507698566602500,5.0326025390625,-0.08560966048538685,-0.01637426649471745,0.01803863777667284
1761507698586758700,5.052758544921875,-0.05485737934708595,-0.0315648213638924,0.03557955516427755
1761507698606913500,5.07291357421875,-0.06039163259863853,0.004893215401656925,0.041641193290799856
1761507698627069400,5.0930693359375,-0.0908007993876934,-0.009730334968212991,0.058699587858468294
1761507698647225600,5.1132255859375,-0.04046645042300224,-0.009848591053020208,0.02173983038216829
1761507698667381500,5.133381591796875,-0.1044213284611702,-0.07782474223021417,0.040976153510808945
1761507698687536400,5.153536376953125,-0.014034370571374893,-0.034145558572094885,0.040813656425476075
1761507698707692500,5.173692626953125,-0.07091010400354862,-0.10064462293405085,0.062314271224290126
1761507698727848400,5.193848388671875,-0.009115034347772598,-0.06388800508072599,0.06281126096099615
1761507698748004400,5.21400439453125,-0.06112403852641582,-0.10940730018019676,0.09215192173570394
1761507698768159700,5.23415966796875,-0.05570668965280055,-0.05174147581625729,0.0877757524780929
1761507698788315600,5.254315673828125,-0.04763210426867008,-0.09252685599531978,0.10035524806603789
1761507698808471600,5.274471435546875,-0.061574120381474494,-0.037749921473301945,0.08507847621813416
1761507698828626400,5.29462646484375,-0.12270634221434593,-0.07026705685965716,0.10292239514030516
1761507698848782600,5.314782470703125,-0.09939619377553463,-0.014294482812285422,0.10777991817407309
1761507698868938500,5.3349384765625,-0.07291735217273235,0.002996186141297221,0.08246865904591977
1761507698889094700,5.3550947265625,-0.04998129774332046,-0.008277231816761195,0.04083981378003955
1761507698909249500,5.37524951171875,-0.021081366473436353,-0.012804499982856214,0.00832863321043551
1761507698929405400,5.395405517578125,0.04586977077126503,-0.00550886308196932,-0.022334727535396812
1761507698949561600,5.4155615234375,0.03615793957412243,-0.007713314323686063,-0.008914397209137677
1761507698969716500,5.435716552734375,0.076966919824481,0.004618599711358547,-0.015766674256697297
1761507698989872400,5.455872314453125,0.019379238730669022,-0.015727182496525348,-0.002520969844982028
1761507699010028500,5.476028564453125,-0.003280336844921112,0.010753230008855462,0.004291048257425427
1761507699030184400,5.496184326171875,-0.012552023059129714,-0.021131452692858873,0.007735928014293313
1761507699050339600,5.516339599609375,-0.07789923223853111,-0.023932335457764565,-0.0010421294640749691
1761507699070495500,5.53649560546875,-0.09312193581163883,-0.052419265479966996,-0.028255934277921915
1761507699090651400,5.5566513671875,-0.08606792564690112,-0.07395619370117783,-0.03402764954715967
1761507699110807300,5.576807373046875,-0.09944412457048893,-0.037238062961027024,-0.010765212707594037
1761507699130962700,5.596962646484375,-0.08078092515468598,0.011941124619171023,-0.0220362560454756
1761507699151118600,5.61711865234375,-0.13741466652452944,-0.070224368495401,-0.018587723026797176
1761507699171274500,5.6372744140625,-0.09011983138620853,-0.04812699337983504,-0.016175766514241696
1761507699191429600,5.6574296875,-0.08449906889498233,-0.022459376828372478,0.013896934862062334
1761507699211585500,5.67758544921875,-0.09632686933279037,-0.027966815138235686,0.04056852255798876
1761507699231741400,5.697741455078125,-0.08973696954846382,-0.011597498813271523,0.04040719451643526
1761507699251897600,5.717897705078125,-0.07146949145197867,0.0013716171467676758,0.023761545468121766
1761507699272052500,5.738052490234375,-0.03732464526593685,0.0234498857030645,0.001022840241715312
1761507699292208400,5.75820849609375,-0.022241642424464223,0.007588847693800926,-0.01266790452376008
1761507699312364500,5.778364501953125,-0.011270751076936722,0.03858388807941228,-0.005056187411025166
1761507699332519400,5.79851953125,-0.026669980260729788,0.062243434477783736,0.02665514801777899
1761507699352675300,5.81867529296875,-0.037709260669350625,0.08319923834279179,0.021724925073981285
1761507699372831500,5.83883154296875,-0.028117256459593773,0.030303076066076753,0.01778393236324191
1761507699392987400,5.8589873046875,-0.04666530506312847,0.05273603981155902,0.03949687473848462
1761507699413142500,5.879142578125,-0.04277122023403644,0.05424914778824895,0.03837276607938111
1761507699433295600,5.899295654296875,-0.053661447560787195,0.056040451651811596,0.026547888251021504
1761507699453451500,5.919451416015625,-0.11154080507755279,0.026425759708695113,0.04398169200234115
1761507699473606700,5.939606689453125,-0.00431610963344574,0.07737224922236055,0.047155134406685825
1761507699493762600,5.959762451171875,-0.03267243554592132,0.05435604222882539,0.05491875414550304
1761507699513918700,5.979918701171875,0.011761749464273451,0.05394694997128099,0.05357618043012917
1761507699534074600,6.00007470703125,-0.01471592309474945,0.06861698809769004,0.052269262550026174
1761507699554229500,6.0202294921875,0.014489713123440742,0.05271097843553871,0.06759162710532546
1761507699574385700,6.0403857421875,0.015230886879563331,0.03168579912874848,0.0820050601221621
1761507699594541600,6.06054150390625,-0.00040098201632499694,0.06745327808056026,0.08224646766260266
1761507699614697500,6.080697509765625,0.006724339818954468,0.025135354571975767,0.044842254354432225
1761507699634852600,6.1008525390625,0.021440847435593605,-0.030825529037602245,-0.02009359754510224
1761507699655008500,6.121008544921875,-0.08490940326154231,-0.033886524043418464,-0.03865457869544625
1761507699675164400,6.141164306640625,-0.16981880652308462,-0.03621317689269781,-0.008425663844123483
1761507699695319600,6.161319580078125,-0.21070085200965402,-0.04293989133182913,0.031916794873028995
1761507699715475500,6.181475341796875,-0.1652367394298315,-0.003321984029561281,0.05090557298138738
1761507699735631400,6.20163134765625,-0.14119126245379446,-0.020069540816079826,0.07666326070278882
1761507699755787500,6.22178759765625,-0.11115911228358745,-0.019331618462968617,0.08617387023940681
1761507699775942700,6.241942626953125,-0.026540216401219365,-0.06152072796011343,0.07631722374409437
1761507699796098600,6.2620986328125,-0.041138650596141815,-0.0826916176142171,0.02724989904053509
1761507699816254700,6.282254638671875,-0.0317541516572237,-0.06015689226100221,-0.01613711500428617
1761507699836409600,6.30240966796875,-0.05405132366120815,-0.03236324173258617,-0.08292064059711993
1761507699856565500,6.3225654296875,-0.09435644604265689,-0.012908563145529479,-0.10662994442135094
1761507699876721700,6.3427216796875,-0.09409516475796699,0.011165464071556925,-0.08822546900697052
1761507699896877600,6.362877685546875,-0.15080372492969035,0.013972904441412538,-0.0581859392479062
1761507699917032400,6.383032470703125,-0.038759061983227726,0.026809553128201512,-0.049567237049713726
1761507699937188600,6.403188720703125,-0.012468436428904533,0.04735862108953297,-0.055401934552565216
1761507699957344500,6.423344482421875,0.025460604470968245,0.033695969907380635,-0.052428252504020924
1761507699977499400,6.44349951171875,0.04866729253530502,-0.02718034093566239,-0.01880823390968144
1761507699997655600,6.463655517578125,-0.00734510206580162,-0.0506796187384054,0.018858575857430695
1761507700017811500,6.4838115234375,0.016088965013623238,-0.04795963745629415,0.055371904740482564
1761507700037967400,6.50396728515625,-0.028085692277550697,-0.08967893748460337,0.08624642401896417
1761507700058122800,6.524122802734375,-0.07809621611535549,-0.1000846509637311,0.09591565818339585
1761507700078278700,6.544278564453125,-0.11162556075155734,-0.04635718896202743,0.06932290787734091
1761507700098434600,6.5644345703125,-0.10564181016683578,-0.0591431669075042,0.05598689483366906
1761507700118590700,6.5845908203125,-0.078844988656044,-0.07228343818336724,0.0713210959572345
1761507700138745600,6.60474560546875,-0.012459084078669547,-0.055374991746712475,0.05745565221197903
1761507700158901500,6.624901611328125,0.0021907880425453183,-0.07308151149218901,0.03981953082159161
1761507700179057700,6.6450576171875,0.02290975094437599,-0.05484307682709768,0.04434219587780535
1761507700199212500,6.665212646484375,0.02021978120803833,-0.03290633563334122,0.0355481371127069
1761507700219368400,6.685368408203125,-0.0016647183418273925,-0.022576500402018425,0.04342946494705975
1761507700239524600,6.705524658203125,0.016861118429899215,-0.04964676855932921,0.05653904882371425
1761507700259680500,6.725680419921875,-0.05524374831616878,-0.08174403456579893,0.09289192644804715
1761507700279835400,6.74583544921875,-0.010062544330954552,-0.09419069755431264,0.09789185362718998
1761507700299991600,6.765991455078125,-0.13108429445922373,-0.06046491703055799,0.10956519415564835
1761507700320147500,6.7861474609375,-0.06479892764687538,-0.08517556165074928,0.03914652693085372
1761507700340302600,6.806302490234375,-0.11979776129126549,-0.07775447173928841,0.013236352061480283
1761507700360458500,6.82645849609375,-0.049613048952817915,-0.10841489160936325,-0.0058215457603335375
1761507700380614400,6.846614501953125,-0.1307581312447786,-0.1319772977761924,0.021076763363555073
1761507700400770600,6.8667705078125,-0.022930793732404708,-0.13109985735453664,0.027556480771675704
1761507700420925700,6.88692578125,-0.11791969245970249,-0.05501138259870931,0.0383024773221463
1761507700441081000,6.9070810546875,-0.06245265678167343,-0.038219201219175006,0.04205160072259605
1761507700461237200,6.9272373046875,-0.09879121361970901,-0.02629281751140952,0.016821736267581582
1761507700481393200,6.94739306640625,-0.055740007400512694,-0.043785073451697826,-0.022150383944436906
1761507700501548000,6.967548095703125,-0.04223462913930416,-0.050653753644786775,-0.04975801038146019
1761507700521704200,6.9877041015625,-0.049962008520960804,-0.0633662462289445,-0.04731690083965659
1761507700541860000,7.007860107421875,0.011951134556531906,-0.01127425820827484,-0.046151729517802595
1761507700562015000,7.028014892578125,-0.01632277376949787,0.013909045424964277,-0.022293811003118752
1761507700582171100,7.048171142578125,-0.010608487775921821,0.0005173384049907327,0.013756795739009975
1761507700602327000,7.0683271484375,-0.021059154641628264,0.038015751068945974,0.024239976634830233
1761507700622483200,7.088483154296875,-0.06140110190212726,0.003601714286394417,0.04779365150593221
1761507700642638000,7.10863818359375,-0.035248423513770104,0.0023034546367824075,0.015701353935524822
1761507700662794200,7.128794189453125,-0.11581833626627921,-0.012815167507342993,0.022145561638846994
1761507700682950100,7.1489501953125,-0.04169043926000595,-0.012142802937421947,0.04434453396536409
1761507700703106000,7.16910595703125,-0.07400514740943909,-0.0029872173835523426,0.03742788644470274
1761507700723261200,7.18926123046875,-0.017166238856315612,-0.014159933179803191,0.025142478432506322
1761507700743417000,7.2094169921875,-0.07110358074903488,-0.028224132633861154,0.0048161681100726125
1761507700763573200,7.2295732421875,-0.05206570280194282,-0.02391892798691988,0.02319813943170011
1761507700783728000,7.24972802734375,-0.1364274090528488,0.0696033870528452,0.01975282128341496
1761507700803884000,7.269884033203125,-0.0612380202949047,0.04282665848201141,0.03624306057430803
1761507700824040200,7.290040283203125,-0.0732376701682806,0.03212680262820795,0.03905132292807102
1761507700844196000,7.310196044921875,-0.009008651363849639,0.008463073245063424,0.05246222783885896
1761507700864351000,7.33035107421875,0.06608546032607555,0.00766353863151744,0.06516418076269329
1761507700884507100,7.350507080078125,0.02815174325108528,-0.013415873346850276,0.04591499815247953
1761507700904663000,7.3706630859375,0.009361702585220337,-0.03457085304576903,0.029066300812736152
1761507700924818000,7.39081787109375,-0.057497664722800254,-0.011963646978233008,-0.01357530169226229
1761507700944974000,7.41097412109375,-0.029933950492739676,0.06771868755109607,0.03179367995001375
1761507700965130000,7.4311298828125,-0.07474865925312042,0.05460853741886094,0.10197298546098173
1761507700985286100,7.4512861328125,-0.09936287602782248,-0.022729517272952943,0.07861373718343674
1761507701005441300,7.471441162109375,-0.10155950928926467,-0.06486324332104995,0.03993431630767882
1761507701025597200,7.49159716796875,-0.06933657107651234,-0.061934441593848165,-0.004646510631591081
1761507701045753300,7.51175341796875,-0.11173019016981124,-0.0760410188849084,-0.03885631181262433
1761507701065909200,7.5319091796875,-0.10104629907011985,-0.0652340219953563,-0.05763590414971113
1761507701086064000,7.552064208984375,-0.17969781098067758,-0.0651624545964878,-0.0038163434177637097
1761507701106220300,7.57222021484375,-0.06438450162708759,-0.04884091380285099,0.022373744371533392
1761507701126376200,7.592376220703125,-0.06285071618855,-0.07176341463094577,0.07340740071199833
1761507701146531000,7.612531005859375,-0.01943593735396862,-0.045421022356767204,0.08253339484520256
1761507701166687200,7.632687255859375,0.029303251373767852,-0.03717352809114381,0.09158785811215639
1761507701186843100,7.652843017578125,-0.13738894756138323,0.038655035353172565,0.08067585734501481
1761507701206999000,7.6729990234375,0.023641572350263595,-0.009763250857125967,0.0281768776923418
1761507701227154200,7.693154296875,0.005969137537479401,-0.10352662637745962,-0.027839681627228854
1761507701247310000,7.71331005859375,0.029936873102188108,-0.08538085669819265,-0.014846709867566824
1761507701267466000,7.733466064453125,-0.02173544646799564,-0.03878998684445396,0.038567046542465684
1761507701287621000,7.75362109375,-0.04754968668222427,-0.02008822725024074,0.06808854377679527
1761507701307777300,7.77377734375,-0.07103519168794155,-0.01320255025657825,0.057670537071675056
1761507701327933200,7.79393310546875,-0.10194237112700938,0.01639379317909479,0.029873306346684694
1761507701348089300,7.81408935546875,-0.08949147035479545,-0.0067516570841427885,0.010931363054737448
1761507701368244200,7.834244140625,-0.06191665020883083,-0.07697369662513956,0.010992810918390751
1761507701388400000,7.854400146484375,-0.04626140043735504,-0.0731456901690457,0.03330671486146748
1761507701408556300,7.874556396484375,-0.03708323772549629,-0.07417842161711305,0.0665981590885669
1761507701428712700,7.894712646484375,-0.032709260424971576,-0.07485022906460799,0.07826090515777469
1761507701448867600,7.91486767578125,-0.03223404412865639,-0.04468173003047705,0.09596651158779859
1761507701469023500,7.9350234375,-0.03286240516006946,-0.02588435544152744,0.07783902648389339
1761507701489179600,7.9551796875,-0.026605682852864264,-0.015030103610455989,0.041180590041726826
1761507701509334500,7.97533447265625,-0.04125789306163788,-0.005973229190707206,0.033836145563051104
1761507701529490400,7.995490478515625,-0.0371568874835968,-0.009267402764735743,0.031815599520877
1761507701549644500,8.01564453125,-0.05243628968000412,-0.022975071265548465,0.0049506812099367374
1761507701569800700,8.03580078125,0.021107669958472252,-0.030496050488064065,-0.0369468979947269
1761507701589956600,8.05595654296875,-0.03067570877075195,-0.03893672923822887,-0.029087051339820025
1761507701610112800,8.07611279296875,-0.06308627851009369,-0.018567995413020254,0.01049647876881063
1761507701630267600,8.096267578125,-0.07135901681482791,-0.07030285425882321,0.025575463022291658
1761507701650423600,8.116423583984375,-0.14543255328536034,-0.050477346765110266,0.03597571487501263
1761507701670579700,8.136579833984374,-0.10752513969540595,-0.018391631915827746,0.0340947234340012
1761507701690734600,8.156734619140625,-0.16362579710185526,-0.02235008950131014,0.023858576101809737
1761507701710890500,8.176890380859374,-0.06228606804311275,-0.06919422629664186,0.0033336744673550128
1761507701731046400,8.19704638671875,-0.05789221699833869,-0.03977497929381207,0.0068736120965331785
1761507701751202600,8.21720263671875,-0.018110826230049133,-0.051392306185560295,0.029458003544062375
1761507701771357400,8.237357421875,0.012701076140999794,-0.06350188727339263,0.03450374262630939
1761507701791513300,8.257513427734375,0.006146247670054435,-0.07193094408442266,0.06093779523931443
1761507701811669500,8.27766943359375,0.0229921685308218,-0.0625558385949349,0.05108019889593124
1761507701831824600,8.29782470703125,0.026813188123703,-0.06636367904583458,0.03757124043814838
1761507701851980500,8.31798046875,0.019064765954017637,-0.008284144473093329,0.037976606368646026
1761507701872136700,8.33813671875,-0.09214636877775191,0.027909408695460297,-0.00020041794292628763
1761507701892292600,8.358292724609376,-0.17465455611646175,-0.032930696039751635,0.016870616910606623
1761507701912447500,8.378447509765625,-0.10650222638845443,0.01998956178189255,0.014177505369111896
1761507701932604700,8.398604736328124,-0.2395978606700897,0.0440405917158816,0.011031535493582486
1761507701952760600,8.418760498046876,-0.20730653339624402,0.02477474566523451,0.027216873553767798
1761507701972915700,8.438915771484375,-0.1183592529207468,-0.031151947980374097,0.01779167727828026
1761507701993071600,8.459071533203126,-0.07622106989324093,-0.04193823544203769,0.01869469053260982
1761507702013227500,8.4792275390625,0.014312602990865706,-0.021286362410068975,0.058402650738507506
1761507702033382700,8.499382568359374,0.0630552988499403,-0.03332901345824357,0.08025602449774742
1761507702053538600,8.51953857421875,0.09467267238497734,-0.05484894944545812,0.08882431168295443
1761507702073694500,8.539694580078125,0.09094342272877692,-0.04660284341932274,0.09470854741595684
1761507702093850600,8.5598505859375,0.03374795582294464,-0.030713202653371262,0.06635550943911075
1761507702114005500,8.580005615234375,-0.05408522593080997,-0.06579042746883351,0.03286839650943875
1761507702134161400,8.600161376953125,-0.12724457016587257,-0.02474912260021083,0.0049158290922641755
1761507702154317600,8.620317626953126,-0.21829437587857245,0.01751083734317217,0.009650967855378985
1761507702174472400,8.640472412109375,-0.18469898026883602,-0.006587132438505068,-0.02551613405048847
1761507702194628400,8.66062841796875,-0.15363690252900122,-0.035071939002280124,-0.02629910112172365
1761507702214784500,8.680784423828126,-0.12119359956383705,-0.054479823872121046,0.009902823724597692
1761507702234940400,8.7009404296875,0.016340893948078153,-0.08035213268282823,0.0430747332252562
1761507702255095600,8.721095458984376,0.031333880418539045,-0.08858621034445241,0.08561725926995277
1761507702275251700,8.741251708984375,0.04229600393772125,-0.040484022612310946,0.13540632237680256
1761507702295407600,8.76140771484375,0.02430968087017536,-0.012440862293745157,0.1464070974059403
1761507702315562500,8.7815625,-0.019074118304252624,-0.05355011897368822,0.11766783659048377
1761507702335718700,8.80171875,-0.03431961823105812,-0.05841640070264693,0.07576806542873382
1761507702355874600,8.82187451171875,-0.06472878502011299,-0.031092011653794906,0.053222983078286046
1761507702376030500,8.842030517578126,-0.0753027860045433,-0.06927589953099376,0.04815503216423094
1761507702396185600,8.862185546875,-0.07010287927389144,-0.07450699598435312,0.0517617514193058
1761507702416341500,8.882341552734376,-0.05495616354644298,-0.0525416406174656,0.0791629685640335
1761507702436497000,8.902496826171875,-0.07118482929170131,-0.022419770903768947,0.08390665595978498
1761507702456652000,8.922652099609374,-0.05851297924518585,-0.05813661564688664,0.07169117137864231
1761507702476808200,8.94280810546875,-0.015298691418766974,-0.04506376075115986,0.06124028531722724
1761507702496964000,8.962964111328125,-0.08217208725214004,-0.011501039001741447,0.07385346397906542
1761507702517120000,8.9831201171875,-0.07911386872529982,0.01466796490033157,0.05271978279650211
1761507702537275100,9.003275146484375,-0.10143909777998923,0.0009783800454810261,-0.0047930064301937815
1761507702557431000,9.02343115234375,-0.11155074194967746,0.016542853110830764,-0.04723682134076953
1761507702577587200,9.043587158203126,-0.10765139642357825,0.047033937446121124,-0.07470715819895267
1761507702597743000,9.0637431640625,-0.06299100144207477,0.036468498794059265,-0.07807663463205099
1761507702617898000,9.08389794921875,-0.02682838569283485,0.05044135300312191,-0.08275098311863839
1761507702638054000,9.104053955078125,-0.014508417823910713,0.018845956121163906,-0.07285407767817377
1761507702658210000,9.1242099609375,0.008523498195409774,0.01902427525506937,-0.07051328670568764
1761507702678365000,9.144364990234376,0.004398527219891548,0.020942928400414527,-0.032217823646217586
1761507702698520800,9.164520751953125,-0.0224736976146698,-0.01048620168667985,0.009334083925932645
1761507702718677000,9.184677001953125,-0.020015783068537712,-0.039006922097341155,0.021984014401584862
1761507702738833000,9.2048330078125,0.002113631153106689,-0.04547953847781755,0.03590096913836896
1761507702758987800,9.22498779296875,0.00378887088894844,-0.01308243557482492,0.028458105786517262
1761507702779144000,9.24514404296875,-0.05325520484745502,-0.008664906826941297,0.052210445034876464
1761507702799299800,9.2652998046875,-0.09495265837013721,-0.02207390747501049,0.06334807125143706
1761507702819455000,9.285455078125,-0.09646423197686671,-0.06316181883118115,0.032564152865856885
1761507702839611100,9.305611083984376,-0.10239420654773712,-0.08422403307957574,0.014966902181133628
1761507702859767000,9.32576708984375,-0.09948796371221542,-0.06257924686998594,0.04291567020602524
1761507702879923200,9.345923095703125,-0.0934276407599449,-0.04528892954285256,0.06809095492959022
1761507702900078000,9.366078125,-0.06887889043688773,-0.06468580896148923,0.09286547683253883
1761507702920234000,9.38623388671875,-0.04303308604061603,-0.02860048709900584,0.07893865828886627
1761507702940390100,9.40639013671875,-0.05830547397434711,-0.02018160005554091,0.04884710608161986
1761507702960545000,9.426544921875,-0.024798341169953345,-0.05478948804291431,0.008615925719216466
1761507702980701000,9.446700927734375,-0.0052723874449729915,-0.05809688185811974,-0.007076368127018213
1761507703000857000,9.466857177734376,-0.021784546306729314,-0.0053845608488656575,0.012098214877024293
1761507703021013000,9.487012939453125,-0.0350134457141161,-0.002780627711454872,0.03961874755248427
1761507703041168000,9.50716796875,-0.054341831040382385,-0.04019316817326471,0.045676074830070135
1761507703061324000,9.527323974609375,-0.08479074531793594,-0.01614002391400281,0.043276320211961865
1761507703081480000,9.54747998046875,-0.09686872112452984,-0.020238476775353773,0.03322203225269914
1761507703101635000,9.567635009765626,-0.06943710884153842,-0.003448286423506215,-0.045696460030972955
1761507703121791200,9.587791259765625,-0.02138531785607338,-0.023477659625979138,-0.05498275929242372
1761507703141947100,9.607947021484375,-0.027570143970847127,-0.004949813560256734,-0.024764877291768787
1761507703162102000,9.62810205078125,0.008543956461548805,-0.019231925514736212,0.06833937673270701
1761507703182258200,9.648258056640625,-0.0428863710463047,-0.027539027313375843,0.11699380978643893
1761507703202414000,9.6684140625,-0.01799333733022213,-0.013868265890004113,0.11297091094590724
1761507703222570000,9.688570068359375,-0.06300152283608913,-0.030300550748850217,0.05799991515651345
1761507703242724900,9.708724853515625,-0.10580080012083053,-0.07281887850062921,-0.001044248355925083
1761507703262881000,9.728881103515626,-0.09856734173595905,-0.054855534449871624,-0.04334514766447246
1761507703283037000,9.749036865234375,-0.12395780358016491,-0.04392439059084281,-0.011108034795895219
1761507703303191800,9.76919189453125,-0.08028934224545956,-0.0349232877792092,0.002589285840839147
1761507703323348000,9.789347900390625,-0.08967384118437767,-0.02272895101737231,0.04151574028022587
1761507703343504000,9.80950390625,-0.09057692750394344,0.018089061922812833,0.05197144864723086
1761507703363660000,9.829659912109374,-0.0533259319961071,0.01333528467459837,0.039618820617720485
1761507703383815200,9.849815185546875,0.003291442760825157,-0.022165878341090864,0.003119739455729723
1761507703403971000,9.86997119140625,0.0010100538253784179,0.015841235046961808,0.008045359289646148
1761507703424127000,9.890126953125,-0.01616203024983406,0.02250516589859035,0.01985489341840148
1761507703444281900,9.91028173828125,-0.020863924330472947,-0.004698272784869186,0.013521452613174915
1761507703464437800,9.930437744140624,-0.045849312505126,-0.01720466203740798,-0.019377850491181015
1761507703484594000,9.950593994140625,-0.047042321681976314,-0.01671178678681608,-0.02672689807973802
1761507703504749800,9.970749755859375,-0.07160217792093754,-0.03141002809440251,0.014378507833927868
1761507703524904700,9.99090478515625,-0.06326046603322029,-0.039389669770654286,0.05231105586513877
1761507703545060900,10.011060791015625,-0.06504267327487469,0.024115103579568677,0.07531140770241618
1761507703565216800,10.031216796875,-0.05345394228994846,-0.012647848116420208,0.08254698497913777
1761507703585371600,10.05137158203125,-0.051692777836322784,-0.028351220479095354,0.052704950553551316
1761507703605527800,10.07152783203125,-0.03496025422215462,-0.04954824008829892,0.019103709724918008
1761507703625683700,10.09168359375,-0.012241057413816451,-0.0275267432205379,0.011396861674636601
1761507703645839600,10.111839599609375,0.00008534019589424133,-0.01293039138484746,0.00568060291968286
1761507703665994800,10.131994873046875,-0.024570377632975576,-0.015297558907605707,0.024670184745639562
1761507703686151000,10.15215087890625,-0.029163550642132757,-0.0006006510405801236,0.036214638197422024
1761507703706306800,10.172306884765625,-0.056553661870956416,-0.0002246938676573336,0.009270809431374073
1761507703726461700,10.192461669921874,-0.06449439174234867,-0.009423780636535957,-0.007899374947696923
1761507703746617900,10.212617919921875,-0.08561199857294559,-0.018082275988999752,-0.004653159568086266
1761507703766773800,10.232773681640625,-0.06768295865058899,-0.019986027251090853,0.0006835983499884605
1761507703786930000,10.252929931640624,-0.08127075449824332,-0.023412430636351927,-0.006126520056277513
1761507703807084800,10.273084716796875,-0.06869067438840866,-0.005085742299072444,0.022147753595933316
1761507703827240700,10.29324072265625,-0.07036357603669166,0.03158759945128113,0.02333908227235079
1761507703847396900,10.31339697265625,-0.0790145000040531,-0.008100605741376056,0.010092428012564778
1761507703867551700,10.3335517578125,-0.055282326760888095,-0.026463589234743266,-0.007799056378379464
1761507703887707600,10.353707763671874,-0.03883037365376949,-0.02874351686546579,-0.027066578362882135
1761507703907863800,10.37386376953125,-0.022165070056915284,-0.029075205638399347,-0.008122443113848566
1761507703928019700,10.394019775390625,-0.01729015749692917,-0.014322558129299431,0.014867971851304172
1761507703948174600,10.414174560546876,-0.02533960843980312,-0.027689669564133507,0.029054902635887263
1761507703968330800,10.434330810546875,-0.010750526595115661,-0.02313302003992721,0.036114465758576984
1761507703988486700,10.454486572265624,-0.05623509744107723,-0.024385924444161353,0.03915682912915945
1761507704008641800,10.474641845703125,-0.043614100798964495,-0.023785054207872598,0.034883827985078095
1761507704028798000,10.4947978515625,-0.058742696347832676,-0.029706900271214542,0.01798018558770418
1761507704048953900,10.514953857421874,-0.09204875362217425,-0.011165272275311871,0.031129736148566005
1761507704069108700,10.535108642578125,-0.08710428295731544,-0.04120342292804271,0.03316803704313934
1761507704089265000,10.555264892578125,-0.057305941542983053,-0.03798440608261153,0.03270845670737326
1761507704109420800,10.5754208984375,-0.05545476071834564,-0.05411986798592843,0.035493922707438466
1761507704129576700,10.59557666015625,0.009328969359397888,-0.0733705119008664,0.05449081105701625
1761507704149731800,10.61573193359375,-0.050451837864518165,-0.05018071103924885,0.06469605179429054
1761507704169887700,10.6358876953125,-0.10096037435233593,-0.005969320200569927,0.08316307105086744
1761507704190043600,10.656043701171875,-0.06177987208664417,-0.04145178079907782,0.10066877099461853
1761507704210198800,10.67619873046875,-0.041026422393321986,-0.028323939746525136,0.04899447866305709
1761507704230354700,10.696354736328125,-0.04031739734113216,0.007816208442579955,0.015861512933298943
1761507704250510600,10.716510498046874,-0.10035656324028969,0.01916110246796161,-0.0112591337043792
1761507704270666800,10.736666748046876,0.01865852324068546,0.07290951592614874,0.04646722520776093
1761507704290822000,10.75682177734375,-0.21215572699308394,-0.03856320148441009,-0.04862754504680633
1761507704310977800,10.776977783203124,-0.25432722776830197,-0.1334957669145893,-0.0001274257719516754
1761507704331134000,10.797134033203125,-0.028060557836294173,-0.021217815802060065,0.03127659727334976
1761507704351288800,10.817288818359375,0.12296586993336676,0.001280596128758043,0.041147929881140584
1761507704371444700,10.83744482421875,0.22637772909104822,-0.016954294872377068,0.08888342145904898
