time,seconds_elapsed,z,y,x
1761507693608292600,0.074292724609375,0.05010609328746796,-0.011519629508256912,0.0029247705824673176
1761507693628448800,0.09444873046875,0.04981767386198044,-0.031077329069375992,0.01992783509194851
1761507693648603600,0.114603759765625,0.056473977863788605,-0.0542520135641098,0.022731507197022438
1761507693668759600,0.134759521484375,0.06285011768341064,-0.05353652313351631,0.04629255458712578
1761507693688915700,0.154915771484375,0.05818159878253937,-0.06055489927530289,0.05596771836280823
1761507693709070600,0.175070556640625,0.053882990032434464,-0.04926548898220062,0.07081664353609085
1761507693729226500,0.1952265625,0.05443958938121796,-0.03873365372419357,0.08329620957374573
1761507693749382700,0.215382568359375,0.0557410791516304,-0.011533292010426521,0.09074614942073822
1761507693769538600,0.23553857421875,0.05327126383781433,-0.0016281763091683388,0.07127727568149567
1761507693789693700,0.255693603515625,0.05240493640303612,-0.006090693641453981,0.025913741439580917
1761507693809849900,0.275849853515625,0.05211172252893448,-0.0010403972119092941,-0.009704221971333027
1761507693830005800,0.296005859375,0.03383844345808029,0.002529241144657135,-0.009083357639610767
1761507693850161700,0.31616162109375,0.0002791502047330141,0.023947549983859062,0.020655564963817596
1761507693870316800,0.33631689453125,-0.02736925333738327,0.04046390578150749,0.029525358229875565
1761507693890472700,0.35647265625,-0.03193071857094765,0.032170020043849945,0.028568865731358528
1761507693910628900,0.37662890625,-0.030820444226264954,0.023280493915081024,0.0062631722539663315
1761507693930783700,0.39678369140625,-0.020052751526236534,0.015463970601558685,-0.023751936852931976
1761507693950939600,0.416939697265625,-0.012895239517092705,0.0326036661863327,-0.0468771792948246
1761507693971095600,0.437095458984375,0.000382482772693038,0.045605793595314026,-0.04328615963459015
1761507693991251700,0.457251708984375,0.003777214093133807,0.04857718199491501,-0.030390664935112
1761507694011406600,0.477406494140625,0.007215884048491716,0.055217258632183075,-0.022536244243383408
1761507694031562500,0.4975625,0.020749270915985107,0.04976310580968857,-0.03790060803294182
1761507694051718700,0.51771875,0.04074721410870552,0.025023367255926132,-0.030525855720043182
1761507694071873800,0.537873779296875,0.04465966299176216,0.03783077001571655,0.012244035489857197
1761507694092029700,0.55802978515625,0.04839128628373146,0.04936102777719498,0.030518315732479095
1761507694112185600,0.578185546875,0.06272601336240768,0.03303300589323044,0.03175671771168709
1761507694132341500,0.598341552734375,0.08674400299787521,0.039603784680366516,0.049151137471199036
1761507694152496600,0.61849658203125,0.11816450953483582,0.024614080786705017,0.04476470872759819
1761507694172652800,0.63865283203125,0.1492084413766861,0.026043154299259186,0.04274087771773338
1761507694192808700,0.65880859375,0.16662871837615967,0.015786828473210335,0.03983879089355469
1761507694212963600,0.678963623046875,0.18104545772075653,0.012498801574110985,0.05655233561992645
1761507694233119700,0.69911962890625,0.17538519203662872,0.03258446976542473,0.07639823853969574
1761507694253275600,0.719275634765625,0.17386212944984436,0.0471816249191761,0.0686103031039238
1761507694273431800,0.739431884765625,0.1687384694814682,0.05928938090801239,0.02482391893863678
1761507694293586700,0.759586669921875,0.15718674659729004,0.04027029126882553,-0.03654042258858681
1761507694313742600,0.77974267578125,0.1476297229528427,-0.0008016135543584824,-0.06942101567983627
1761507694333898800,0.799898681640625,0.13371631503105164,0.010791639797389507,-0.018684295937418938
1761507694354053600,0.8200537109375,0.10282283276319504,-0.0374174565076828,0.023762116208672523
1761507694374209500,0.84020947265625,0.08532187342643738,-0.009882808662950993,0.10583891719579697
1761507694394365700,0.86036572265625,0.019291192293167114,-0.003706853836774826,0.1601705104112625
1761507694414521600,0.880521484375,0.00711069256067276,-0.025704484432935715,0.1852017045021057
1761507694434677000,0.900677001953125,0.0006426735781133175,-0.041046954691410065,0.17682389914989471
1761507694454833000,0.9208330078125,0.0013446810189634562,-0.051667578518390656,0.14484675228595734
1761507694474989000,0.940989013671875,-0.0073577286675572395,-0.05866935849189758,0.11288432031869888
1761507694495144000,0.96114404296875,-0.016687316820025444,-0.0337965227663517,0.08763403445482254
1761507694515299800,0.9812998046875,-0.023668523877859116,-0.026923207566142082,0.06458350270986557
1761507694535456000,1.0014560546875,-0.019049808382987976,-0.03367825597524643,0.03399547562003136
1761507694555612000,1.02161181640625,-0.015229768119752407,-0.05494756996631622,0.036269661039114
1761507694575766800,1.041766845703125,-0.004009069874882698,-0.05174229294061661,0.03280516341328621
1761507694595923000,1.0619228515625,0.011956313624978065,-0.07312620431184769,0.04174499958753586
1761507694616078800,1.082078857421875,0.040956273674964905,-0.07584922760725021,0.06694508343935013
1761507694636233700,1.102233642578125,0.07597790658473969,-0.0738937258720398,0.09100650250911713
1761507694656390000,1.122389892578125,0.10247689485549927,-0.04500744491815567,0.12128804624080658
1761507694676545800,1.1425458984375,0.12328257411718369,-0.02429911121726036,0.1069069653749466
1761507694696702000,1.162701904296875,0.1373579204082489,-0.031182747334241867,0.08194483071565628
1761507694716856800,1.18285693359375,0.13999497890472412,-0.027195854112505913,0.05624612793326378
1761507694737012700,1.2030126953125,0.12510551512241364,-0.00945022888481617,0.06377272307872772
1761507694757169000,1.2231689453125,0.09381096810102463,0.006851245649158955,0.0628880187869072
1761507694777324000,1.243323974609375,0.05717945098876953,0.021016929298639297,0.06396353244781494
1761507694797480000,1.26347998046875,0.032541483640670776,0.009712996892631054,0.020451048389077187
1761507694817635800,1.2836357421875,0.015677016228437424,0.008405385538935661,-0.008989986032247543
1761507694837792000,1.3037919921875,0.018867483362555504,0.01656189002096653,-0.03173736110329628
1761507694857947000,1.32394677734375,0.029089495539665222,0.031445641070604324,-0.020828358829021454
1761507694878102800,1.344102783203125,0.044327035546302795,0.032632015645504,-0.023898789659142494
1761507694898259000,1.364259033203125,0.04833216220140457,0.03366680070757866,-0.0025096593890339136
1761507694918413800,1.384413818359375,0.047267697751522064,0.01568646728992462,-0.007672787178307772
1761507694938569700,1.40456982421875,0.035594530403614044,-0.00015288777649402618,0.011774865910410881
1761507694958726000,1.424725830078125,0.023372752591967583,0.003693884238600731,0.024142788723111153
1761507694978881800,1.4448818359375,0.016587551683187485,-0.005017642863094807,0.03617210313677788
1761507694999036700,1.46503662109375,0.024267839267849922,-0.002075853757560253,0.03869152069091797
1761507695019192800,1.48519287109375,0.04503091052174568,-0.01115262322127819,0.03729105740785599
1761507695039348700,1.5053486328125,0.06907765567302704,-0.016073672100901604,0.0351499542593956
1761507695059503900,1.52550390625,0.08871953189373016,-0.018303539603948593,0.02290426567196846
1761507695079660000,1.545659912109375,0.09105512499809265,-0.026652976870536804,0.01868116855621338
1761507695099816000,1.56581591796875,0.0687764510512352,-0.025332216173410416,0.01957518421113491
1761507695119972000,1.58597216796875,0.028247136622667313,-0.02021193876862526,0.028401408344507217
1761507695140127000,1.606126953125,-0.011453937739133835,-0.008332500234246254,0.051700346171855927
1761507695160283000,1.626282958984375,-0.049422360956668854,0.005043903365731239,0.060994941741228104
1761507695180439000,1.64643896484375,-0.07472505420446396,0.012096669524908066,0.023675499483942986
1761507695200594000,1.666593994140625,-0.080306775867939,-0.010547312907874584,-0.02298746444284916
1761507695220749800,1.686749755859375,-0.0956854596734047,-0.010910335928201675,-0.062114015221595764
1761507695240906000,1.706906005859375,-0.08835537731647491,-0.011744683608412743,-0.06322091817855835
1761507695261060900,1.727060791015625,-0.08144873380661011,-0.020400429144501686,-0.04445610195398331
1761507695281216800,1.747216796875,-0.07610989362001419,-0.011935573071241379,-0.010346543043851852
1761507695301373000,1.767373046875,-0.057314902544021606,0.008885327726602554,0.028706274926662445
1761507695321528800,1.78752880859375,-0.04664281755685806,0.02273087576031685,0.04417872801423073
1761507695341684000,1.80768408203125,-0.035344891250133514,0.02398604527115822,0.012687014415860176
1761507695361839900,1.82783984375,-0.020106550306081772,0.031725555658340454,-0.02767319791018963
1761507695381996000,1.84799609375,-0.018016498535871506,0.03925800323486328,-0.059328995645046234
1761507695402151000,1.86815087890625,-0.034683626145124435,0.039286788552999496,-0.0715649276971817
1761507695422306800,1.888306884765625,-0.05722728371620178,0.04265253245830536,-0.06468836218118668
1761507695442463500,1.90846337890625,-0.07858983427286148,0.0362958125770092,-0.06196225434541702
1761507695462619600,1.92861962890625,-0.09572168439626694,0.04339202865958214,-0.035183653235435486
1761507695482774500,1.9487744140625,-0.10588882863521576,0.048596255481243134,-0.030691005289554596
1761507695502930400,1.968930419921875,-0.11056400835514069,0.056730594485998154,-0.02394399791955948
1761507695523086600,1.989086669921875,-0.09663940966129303,0.04604103043675423,-0.00116812065243721
1761507695543241500,2.009241455078125,-0.07491413503885269,0.05426126718521118,0.004711216781288385
1761507695563397400,2.0293974609375,-0.04643642157316208,0.059057462960481644,-0.0023964999709278345
1761507695583553300,2.04955322265625,-0.014928029850125313,0.06903542578220367,-0.013026176951825619
1761507695603709400,2.06970947265625,0.016002455726265907,0.054029904305934906,-0.029963694512844086
1761507695623864300,2.0898642578125,0.03239554166793823,0.04710445553064346,-0.03502509742975235
1761507695644020200,2.110020263671875,0.04248199611902237,0.054590824991464615,-0.023477381095290184
1761507695664176400,2.13017626953125,0.05005922168493271,0.05706840753555298,-0.025070201605558395
1761507695684331500,2.15033154296875,0.062447451055049896,0.04268254339694977,-0.021333519369363785
1761507695704487400,2.1704873046875,0.07302525639533997,0.040888164192438126,-0.02371979132294655
1761507695724643600,2.1906435546875,0.07783998548984528,0.050791092216968536,-0.03874163329601288
1761507695744799500,2.210799560546875,0.0880417600274086,0.04121780022978783,-0.05683499574661255
1761507695764954400,2.230954345703125,0.08917706459760666,0.041829634457826614,-0.06096014752984047
1761507695785110500,2.251110595703125,0.0860622301697731,0.05543266981840134,-0.04247300326824188
1761507695805266400,2.271266357421875,0.07109073549509048,0.06588027626276016,-0.036522649228572845
1761507695825421300,2.29142138671875,0.04759766161441803,0.06410162150859833,-0.038492921739816666
1761507695845577500,2.311577392578125,0.0255885012447834,0.064302958548069,-0.05411188304424286
1761507695865733400,2.3317333984375,0.0034315353259444237,0.04579583927989006,-0.07872951775789261
1761507695885889500,2.3518896484375,-0.016465473920106888,0.02687428519129753,-0.09839214384555817
1761507695906044400,2.37204443359375,-0.04705747216939926,0.03848283737897873,-0.08502249419689178
1761507695926200300,2.392200439453125,-0.08412707597017288,0.052665647119283676,-0.07080844789743423
1761507695946356500,2.4123564453125,-0.10103415697813034,0.025451334193348885,-0.06650377064943314
1761507695966511400,2.432511474609375,-0.11076081544160843,0.04128911346197128,-0.027805661782622337
1761507695986667500,2.45266748046875,-0.10757701098918915,0.036056701093912125,-0.014642392285168171
1761507696006823400,2.472823486328125,-0.1087179034948349,0.025471333414316177,-0.018948450684547424
1761507696026979300,2.492979248046875,-0.1041247546672821,0.00861927680671215,-0.029640864580869675
1761507696047134500,2.513134521484375,-0.08849626034498215,0.0011701090261340141,-0.027316207066178322
1761507696067290600,2.53329052734375,-0.07461719214916229,0.010610217228531837,-0.010930364951491356
1761507696087446500,2.553446533203125,-0.06355229020118713,0.013556592166423798,-0.004753057844936848
1761507696107601400,2.573601318359375,-0.048819154500961304,0.012739311903715134,-0.002149269450455904
1761507696127757300,2.59375732421875,-0.034317176789045334,0.01526591181755066,-0.003410356817767024
1761507696147913500,2.61391357421875,-0.018844474107027054,0.003431851975619793,-0.005921314936131239
1761507696168069400,2.6340693359375,0.0074015092104673386,-0.007580833975225687,-0.01064926479011774
1761507696188224300,2.654224365234375,0.027071349322795868,-0.010068289935588837,0.015095118433237076
1761507696208380400,2.67438037109375,0.038793787360191345,0.013724391348659992,0.06000160798430443
1761507696228536300,2.694536376953125,0.04266628995537758,-0.0005219811573624611,0.09144823998212814
1761507696248691200,2.714691162109375,0.03543926775455475,0.006651939824223518,0.0953536108136177
1761507696268847400,2.734847412109375,0.0340120792388916,0.0002821497619152069,0.09025364369153976
1761507696289003300,2.755003173828125,0.04180661961436272,0.0023657456040382385,0.06801340728998184
1761507696309159400,2.775159423828125,0.03768724203109741,-0.0051122065633535385,0.03979441896080971
1761507696329314600,2.795314453125,0.023969300091266632,-0.00852244347333908,0.008112089708447456
1761507696349470500,2.815470458984375,0.012101187370717525,0.0001453431323170662,-0.010188448242843151
1761507696369626600,2.835626708984375,0.0012589278630912304,0.0005752407014369965,-0.03825031593441963
1761507696389781500,2.855781494140625,-0.0028977361507713795,-0.008830617181956768,-0.05231621116399765
1761507696409937400,2.8759375,-0.006200592499226332,-0.016190143302083015,-0.048837218433618546
1761507696430093000,2.896093017578125,-0.011689094826579094,-0.022575780749320984,-0.035397715866565704
1761507696450249000,2.9162490234375,-0.009685864672064781,-0.020030353218317032,-0.01161201298236847
1761507696470404000,2.936404052734375,-0.005786465015262365,-0.01907440274953842,0.013660005293786526
1761507696490560000,2.95656005859375,-0.011822521686553955,-0.0028385045006871223,0.028635097667574883
1761507696510716000,2.9767158203125,-0.0045795198529958725,0.011053796857595444,0.0209917351603508
1761507696530871000,2.99687109375,-0.0024324797559529543,-0.004956411197781563,0.011726832017302513
1761507696551027000,3.01702685546875,-0.011789760552346706,0.002922121435403824,0.004356679506599903
1761507696571182800,3.037182861328125,-0.032456159591674805,0.010715678334236145,0.0008578505367040634
1761507696591339000,3.057339111328125,-0.052431996911764145,0.02271268516778946,-0.002698211232200265
1761507696611494100,3.077494140625,-0.04652031138539314,0.015609275549650192,-0.028543908149003983
1761507696631650000,3.097650146484375,-0.023593690246343613,0.005816138349473476,-0.057039644569158554
1761507696651806200,3.11780615234375,-0.0036442221608012915,0.004184003919363022,-0.07388658076524734
1761507696671961000,3.137961181640625,0.00996640045195818,0.012468652799725533,-0.06387504190206528
1761507696692117000,3.158116943359375,0.020732762292027473,0.005701478570699692,-0.061340805143117905
1761507696712273200,3.178273193359375,0.02835872210562229,0.013379636220633984,-0.02225913107395172
1761507696732429000,3.198428955078125,0.02673792466521263,0.02175796404480934,-0.0032243391033262014
1761507696752584000,3.218583984375,0.02148963138461113,0.020557820796966553,0.015476595610380173
1761507696772740000,3.238739990234375,0.018887721002101898,-0.0071260700933635235,0.008279007859528065
1761507696792896000,3.25889599609375,0.003760700114071369,-0.014599699527025223,0.018177976831793785
1761507696813051000,3.27905078125,-0.030170368030667305,-0.02281077578663826,0.01627231575548649
1761507696833207000,3.29920703125,-0.05578944459557533,-0.023195909336209297,0.020232362672686577
1761507696853363000,3.319363037109375,-0.07344406843185425,-0.00972240325063467,0.01759185642004013
1761507696873518800,3.339518798828125,-0.07849688827991486,0.021109361201524734,0.004204766824841499
1761507696893674200,3.35967431640625,-0.06446442753076553,0.03704368695616722,-0.019633520394563675
1761507696913830100,3.379830078125,-0.038404062390327454,0.038657046854496,-0.04139616712927818
1761507696933986000,3.399986083984375,-0.016756026074290276,0.027824807912111282,-0.06745193898677826
1761507696954141200,3.42014111328125,-0.007354002445936203,0.014997649006545544,-0.052665550261735916
1761507696974297000,3.440297119140625,-0.010758054442703724,0.027138283476233482,-0.020877230912446976
1761507696994453000,3.460452880859375,-0.0312271099537611,0.04251132160425186,0.059107694774866104
1761507697014609200,3.480609130859375,-0.044678736478090286,0.03890380263328552,0.10431299358606339
1761507697034764000,3.500763916015625,-0.05499928444623947,0.02255232073366642,0.1138283833861351
1761507697054920000,3.520919921875,-0.050681501626968384,-0.01549714058637619,0.08776100724935532
1761507697075076000,3.541076171875,-0.04204806685447693,-0.01382942870259285,0.08367099612951279
1761507697095231000,3.56123095703125,-0.026012642309069633,-0.009076118469238281,0.06447780132293701
1761507697115387000,3.581386962890625,-0.013896853663027287,-0.00605942914262414,0.05557984486222267
1761507697135543000,3.60154296875,-0.009881340898573399,-0.002398405224084854,0.029905052855610847
1761507697155699000,3.621698974609375,0.01140130776911974,-0.005912283435463905,0.003510851878672838
1761507697175854000,3.64185400390625,0.03322698175907135,-0.011598313227295876,-0.014827700331807137
1761507697196010200,3.66201025390625,0.044080160558223724,-0.006510795094072819,-0.01304867584258318
1761507697216166100,3.682166259765625,0.03329222649335861,-0.0038271481171250343,-0.006640747655183077
1761507697236322000,3.702322021484375,0.013650083914399147,0.003672312945127487,-0.004482731223106384
1761507697256477200,3.722477294921875,0.0003915359266102314,0.010942311026155949,-0.01337242778390646
1761507697276633000,3.742633056640625,-0.0029073217883706093,0.010084773413836956,-0.036544591188430786
1761507697296789200,3.762789306640625,-0.0058130971156060696,-0.0009112339466810226,-0.04411279410123825
1761507697316944100,3.782944091796875,-0.0090206079185009,0.018635038286447525,-0.04461000859737396
1761507697337100000,3.80310009765625,-0.0129903145134449,0.015624969266355038,-0.05978242680430412
1761507697357256000,3.823255859375,-0.0022050447296351194,0.029997598379850388,-0.058371447026729584
1761507697377412000,3.843412109375,-0.002780826762318611,0.010255089029669762,-0.08535978943109512
1761507697397567000,3.86356689453125,0.001669853925704956,0.0314256027340889,-0.05631531774997711
1761507697417723000,3.883722900390625,-0.011669388972222805,0.03172149881720543,-0.0465376190841198
1761507697437879300,3.90387939453125,-0.022238943725824356,0.01010050531476736,-0.05660281702876091
1761507697458034200,3.9240341796875,-0.034435421228408813,0.021452315151691437,-0.02795282192528248
1761507697478190300,3.9441904296875,-0.048281461000442505,-0.0014781579375267029,-0.05002275109291077
1761507697498346200,3.96434619140625,-0.054725516587495804,0.00017295684665441513,-0.05379774421453476
1761507697518502400,3.98450244140625,-0.055812086910009384,-0.03631841391324997,-0.08535761386156082
1761507697538657500,4.004657470703125,-0.05086979269981384,-0.022098567336797714,-0.07227476686239243
1761507697558812400,4.0248125,-0.049664441496133804,-0.01169763132929802,-0.06686676293611526
1761507697578967300,4.04496728515625,-0.03910554200410843,-0.013164686039090157,-0.04550892114639282
1761507697599123500,4.06512353515625,-0.027798820286989212,-0.02203669771552086,-0.021509885787963867
1761507697619279400,4.085279296875,-0.028898175805807114,-0.002217557281255722,0.009057998657226562
1761507697639434200,4.105434326171875,-0.031570129096508026,0.00853821262717247,0.022281311452388763
1761507697659590400,4.12559033203125,-0.04607769846916199,0.035208214074373245,0.01887940615415573
1761507697679746300,4.145746337890625,-0.06223616749048233,0.07364706695079803,0.043168071657419205
1761507697699902200,4.165902099609375,-0.060940805822610855,0.06960475444793701,0.02722286246716976
1761507697720057600,4.1860576171875,-0.04410908743739128,0.00768841989338398,-0.05477767437696457
1761507697740213500,4.206213623046875,-0.051944904029369354,-0.007305072620511055,-0.12735852599143982
1761507697760369400,4.226369384765625,-0.062175437808036804,0.012491739355027676,-0.16140051186084747
1761507697780524500,4.246524658203125,-0.06663703173398972,0.028118938207626343,-0.17051084339618683
1761507697800680400,4.266680419921875,-0.06144972890615463,0.028896665200591087,-0.1627429574728012
1761507697820836400,4.28683642578125,-0.06733797490596771,0.07093583047389984,-0.07797040045261383
1761507697840992500,4.306992431640625,-0.06010802835226059,0.05502987653017044,0.006534701678901911
1761507697861147400,4.3271474609375,-0.044019605964422226,0.014907022938132286,0.032491862773895264
1761507697881303300,4.34730322265625,-0.03713107109069824,-0.012533288449048996,0.058159079402685165
1761507697901459500,4.36745947265625,-0.0422360859811306,-0.009419888257980347,0.07884225994348526
1761507697921615400,4.387615478515625,-0.04167122766375542,-0.011063430458307266,0.08352480828762054
1761507697941772500,4.4077724609375,-0.03416883945465088,-0.020789701491594315,0.07502692192792892
1761507697961927400,4.427927490234375,-0.02742198295891285,-0.024152453988790512,0.032417044043540955
1761507697982083300,4.448083251953125,-0.014621233567595482,-0.03027905710041523,-0.02304115518927574
1761507698002239500,4.468239501953125,-0.004687111359089613,-0.042471133172512054,-0.06907740980386734
1761507698022395400,4.4883955078125,0.002840312896296382,-0.04672253876924515,-0.10115446150302887
1761507698042550300,4.50855029296875,0.0032307333312928677,-0.03918014094233513,-0.10537251085042953
1761507698062706400,4.52870654296875,-0.015911271795630455,-0.020093534141778946,-0.08905473351478577
1761507698082862300,4.5488623046875,-0.025355637073516846,-0.0038061710074543953,-0.03571726754307747
1761507698103017200,4.569017333984375,-0.023203270509839058,-0.012237821705639362,0.015060392208397388
1761507698123173400,4.58917333984375,-0.019827982410788536,-0.006514011416584253,0.04800418019294739
1761507698143329300,4.609329345703125,-0.01689663901925087,-0.025468405336141586,0.045940544456243515
1761507698163485200,4.629485107421875,-0.008077317848801613,-0.022699519991874695,0.046984028071165085
1761507698183640600,4.649640625,-0.002259107306599617,-0.009011217392981052,0.042006753385066986
1761507698203796500,4.66979638671875,0.014479388482868671,0.0018469374626874924,0.03257492929697037
1761507698223952400,4.689952392578125,0.029416529461741447,-0.005625458899885416,0.012037971056997776
1761507698244108500,4.710108642578125,0.035540468990802765,-0.005391755141317844,0.003902231575921178
1761507698264263400,4.730263427734375,0.04093736410140991,-0.010132797062397003,-0.006680727005004883
1761507698284419300,4.75041943359375,0.04512305557727814,-0.015023035928606987,-0.007380290888249874
1761507698304575500,4.770575439453125,0.05188881605863571,-0.014289787039160728,-0.004346062429249287
1761507698324730400,4.79073046875,0.05938428267836571,-0.02299371361732483,0.012400459498167038
1761507698344886300,4.81088623046875,0.07271979749202728,-0.022657930850982666,0.042130108922719955
1761507698365042400,4.83104248046875,0.07609401643276215,-0.014246991835534573,0.0655062273144722
1761507698385198300,4.8511982421875,0.06813516467809677,-0.00738865789026022,0.07384523749351501
1761507698405353200,4.871353271484375,0.07174614071846008,-0.0233325082808733,0.05685446038842201
1761507698425509400,4.89150927734375,0.07537150382995605,-0.023366473615169525,0.019849620759487152
1761507698445668400,4.91166845703125,0.07974148541688919,-0.03241272270679474,-0.017164703458547592
1761507698465823500,4.931823486328125,0.07350782305002213,-0.032444700598716736,-0.027805479243397713
1761507698485979600,4.951979736328125,0.053811345249414444,-0.031966034322977066,-0.02022959291934967
1761507698506135600,4.972135498046875,0.033726856112480164,-0.015043463557958603,0.0023931232281029224
1761507698526291700,4.992291748046875,0.015865297988057137,-0.004915994592010975,0.011710991151630878
1761507698546446600,5.012446533203125,0.004668307490646839,-0.017886508256196976,0.008147252723574638
1761507698566602500,5.0326025390625,0.0038062415551394224,-0.03338530659675598,-0.0003511030226945877
1761507698586758700,5.052758544921875,-0.0009752018959261477,-0.03475775942206383,-0.0004019616171717644
1761507698606913500,5.07291357421875,-0.006381680257618427,-0.01884342171251774,0.003072849940508604
1761507698627069400,5.0930693359375,-0.006276761647313833,-0.024018753319978714,0.00799187645316124
1761507698647225600,5.1132255859375,-0.013687796890735626,-0.009305763058364391,0.03107554465532303
1761507698667381500,5.133381591796875,-0.015465723350644112,-0.01670767180621624,0.028619077056646347
1761507698687536400,5.153536376953125,-0.0011075574439018965,-0.015202472917735577,0.03595943748950958
1761507698707692500,5.173692626953125,0.014969944022595882,-0.025674760341644287,0.03026498481631279
1761507698727848400,5.193848388671875,0.039749328047037125,-0.017566990107297897,0.03527062386274338
1761507698748004400,5.21400439453125,0.05542229861021042,-0.030847705900669098,0.021885445341467857
1761507698768159700,5.23415966796875,0.0711679682135582,-0.03381536900997162,0.02640441805124283
1761507698788315600,5.254315673828125,0.08343742042779922,-0.02472628466784954,0.02640392631292343
1761507698808471600,5.274471435546875,0.0987764298915863,-0.013156880624592304,0.035729508846998215
1761507698828626400,5.29462646484375,0.11044640094041824,-0.027119645848870277,0.030236858874559402
1761507698848782600,5.314782470703125,0.11715197563171387,-0.023559698835015297,0.03951370716094971
1761507698868938500,5.3349384765625,0.12292357534170151,-0.01312178559601307,0.0630389153957367
1761507698889094700,5.3550947265625,0.1167176142334938,0.0033916160464286804,0.07928353548049927
1761507698909249500,5.37524951171875,0.10462579876184464,0.00048217177391052246,0.06261473149061203
1761507698929405400,5.395405517578125,0.09409299492835999,0.014438980259001255,0.04500520974397659
1761507698949561600,5.4155615234375,0.07860857993364334,0.010371126234531403,0.014919526875019073
1761507698969716500,5.435716552734375,0.07261886447668076,0.014372526668012142,-0.006417510099709034
1761507698989872400,5.455872314453125,0.062127336859703064,0.022696685045957565,-0.0312887467443943
1761507699010028500,5.476028564453125,0.06284639239311218,0.025325719267129898,-0.051156479865312576
1761507699030184400,5.496184326171875,0.06029002368450165,0.023128610104322433,-0.0566905252635479
1761507699050339600,5.516339599609375,0.05579060688614845,0.016463205218315125,-0.05983754247426987
1761507699070495500,5.53649560546875,0.04954709857702255,0.019347000867128372,-0.04920988157391548
1761507699090651400,5.5566513671875,0.04026038944721222,0.010048924013972282,-0.04045742750167847
1761507699110807300,5.576807373046875,0.03580758348107338,-0.011428321711719036,-0.032554466277360916
1761507699130962700,5.596962646484375,0.03422406688332558,0.0018461411818861961,0.0016688886098563671
1761507699151118600,5.61711865234375,0.028809329494833946,0.0005856864154338837,0.027795998379588127
1761507699171274500,5.6372744140625,0.02585720829665661,0.0008916808292269707,0.04119202122092247
1761507699191429600,5.6574296875,0.029950229451060295,-0.02091849595308304,0.05136014148592949
1761507699211585500,5.67758544921875,0.044868722558021545,-0.03353343904018402,0.0486476793885231
1761507699231741400,5.697741455078125,0.054436925798654556,-0.032438553869724274,0.051239121705293655
1761507699251897600,5.717897705078125,0.06544269621372223,-0.02943049743771553,0.05357573926448822
1761507699272052500,5.738052490234375,0.0686856359243393,-0.027333583682775497,0.057834476232528687
1761507699292208400,5.75820849609375,0.06058696657419205,-0.025169599801301956,0.04655392840504646
1761507699312364500,5.778364501953125,0.05241319164633751,-0.02702977880835533,0.030405865982174873
1761507699332519400,5.79851953125,0.046853311359882355,-0.03551018238067627,0.019640633836388588
1761507699352675300,5.81867529296875,0.03730827197432518,-0.029854532331228256,0.014964509755373001
1761507699372831500,5.83883154296875,0.020438481122255325,-0.015678074210882187,0.012977437116205692
1761507699392987400,5.8589873046875,0.014594174921512604,-0.017724772915244102,0.0061597684398293495
1761507699413142500,5.879142578125,0.0071844616904854774,-0.01919528841972351,0.0074336472898721695
1761507699433295600,5.899295654296875,-0.0034388937056064606,-0.009527403861284256,0.020581550896167755
1761507699453451500,5.919451416015625,-0.012193230912089348,-0.007501471322029829,0.019304640591144562
1761507699473606700,5.939606689453125,-0.022296464070677757,0.012375503778457642,0.03611486032605171
1761507699493762600,5.959762451171875,-0.020112939178943634,0.009539851918816566,0.018996357917785645
1761507699513918700,5.979918701171875,-0.0246746689081192,0.004347158595919609,-0.000566819217056036
1761507699534074600,6.00007470703125,-0.030014842748641968,0.020094119012355804,-0.005533574149012566
1761507699554229500,6.0202294921875,-0.03048568405210972,0.03953075408935547,-0.012844031676650047
1761507699574385700,6.0403857421875,-0.026568973436951637,0.0574001707136631,-0.04360092803835869
1761507699594541600,6.06054150390625,-0.006405649706721306,0.04969161003828049,-0.07622647285461426
1761507699614697500,6.080697509765625,0.005173243582248688,0.05029863119125366,-0.09460124373435974
1761507699634852600,6.1008525390625,-0.003727842355147004,0.05219561606645584,-0.09622234851121902
1761507699655008500,6.121008544921875,-0.013804184272885323,0.0262000672519207,-0.10539748519659042
1761507699675164400,6.141164306640625,-0.023466400802135468,0.006098834797739983,-0.101204052567482
1761507699695319600,6.161319580078125,-0.034563783556222916,-0.00048469752073287964,-0.07057709246873856
1761507699715475500,6.181475341796875,-0.04230772331357002,0.017107408493757248,-0.02100408636033535
1761507699735631400,6.20163134765625,-0.049065228551626205,0.014729656279087067,0.015117932111024857
1761507699755787500,6.22178759765625,-0.03955055773258209,0.009410068392753601,0.021770652383565903
1761507699775942700,6.241942626953125,-0.023121245205402374,0.0041766539216041565,0.015167484059929848
1761507699796098600,6.2620986328125,-0.01054766308516264,-0.009502365253865719,0.0017994961235672235
1761507699816254700,6.282254638671875,-0.005979012697935104,-0.009990341030061245,-0.005035748705267906
1761507699836409600,6.30240966796875,-0.024703696370124817,0.0071584926918148994,0.0018672456499189138
1761507699856565500,6.3225654296875,-0.04249121621251106,0.0031008413061499596,0.010079126805067062
1761507699876721700,6.3427216796875,-0.05410392954945564,-0.006670831702649593,0.02548743411898613
1761507699896877600,6.362877685546875,-0.06877715140581131,-0.033789634704589844,0.020815514028072357
1761507699917032400,6.383032470703125,-0.07906041294336319,-0.044755466282367706,0.026155952364206314
1761507699937188600,6.403188720703125,-0.09517040848731995,-0.03774801641702652,0.01904398947954178
1761507699957344500,6.423344482421875,-0.1092047318816185,-0.035605646669864655,0.001512923976406455
1761507699977499400,6.44349951171875,-0.1208837702870369,-0.025084219872951508,-0.021695580333471298
1761507699997655600,6.463655517578125,-0.1222880408167839,-0.02167973667383194,-0.04584932327270508
1761507700017811500,6.4838115234375,-0.11004895716905594,-0.029056012630462646,-0.05694868415594101
1761507700037967400,6.50396728515625,-0.09834782034158707,-0.03739631548523903,-0.06092454493045807
1761507700058122800,6.524122802734375,-0.08693085610866547,-0.023593109101057053,-0.041132185608148575
1761507700078278700,6.544278564453125,-0.0801890566945076,-0.002725522965192795,-0.0028103142976760864
1761507700098434600,6.5644345703125,-0.07696478068828583,0.008282767608761787,0.022197194397449493
1761507700118590700,6.5845908203125,-0.07275697588920593,0.003207978792488575,0.023946883156895638
1761507700138745600,6.60474560546875,-0.0692562535405159,0.006228148937225342,0.016770625486969948
1761507700158901500,6.624901611328125,-0.07228533178567886,0.011958061717450619,-0.0013018033932894468
1761507700179057700,6.6450576171875,-0.07717090100049973,0.02164711244404316,-0.014669136144220829
1761507700199212500,6.665212646484375,-0.07793842256069183,0.01889338344335556,-0.03630935400724411
1761507700219368400,6.685368408203125,-0.07626036554574966,0.03263936936855316,-0.0403498113155365
1761507700239524600,6.705524658203125,-0.07746677845716476,0.05030815303325653,-0.04259910434484482
1761507700259680500,6.725680419921875,-0.06545592099428177,0.03470619022846222,-0.059992142021656036
1761507700279835400,6.74583544921875,-0.0454593151807785,0.033239416778087616,-0.07508935034275055
1761507700299991600,6.765991455078125,-0.022165443748235703,0.006000954657793045,-0.08210168033838272
1761507700320147500,6.7861474609375,-0.008401424624025822,0.019432488828897476,-0.05485924705862999
1761507700340302600,6.806302490234375,-0.004360607825219631,0.026133187115192413,-0.014885555021464825
1761507700360458500,6.82645849609375,0.001319649163633585,0.042069483548402786,0.0185939222574234
1761507700380614400,6.846614501953125,0.015701774507761,0.023872340098023415,0.018202437087893486
1761507700400770600,6.8667705078125,0.027167757973074913,0.017351046204566956,0.019370483234524727
1761507700420925700,6.88692578125,0.04273419827222824,0.0028931312263011932,0.016783595085144043
1761507700441081000,6.9070810546875,0.056473977863788605,0.0003003384917974472,0.029401570558547974
1761507700461237200,6.9272373046875,0.06440752744674683,0.004986614920198917,0.03616948425769806
1761507700481393200,6.94739306640625,0.0626828745007515,0.008787529543042183,0.04431839659810066
1761507700501548000,6.967548095703125,0.050336990505456924,0.006464757956564426,0.040428388863801956
1761507700521704200,6.9877041015625,0.032350532710552216,-0.011683309450745583,0.0210967306047678
1761507700541860000,7.007860107421875,0.01649593934416771,-0.01333744078874588,0.00980384461581707
1761507700562015000,7.028014892578125,0.004525292664766312,-0.005765052512288094,0.007393457926809788
1761507700582171100,7.048171142578125,-0.00333316158503294,-0.006108126137405634,0.002786270109936595
1761507700602327000,7.0683271484375,-0.0014124885201454163,0.011538798920810223,0.0006995298899710178
1761507700622483200,7.088483154296875,0.005180162377655506,0.01147235743701458,-0.00876054260879755
1761507700642638000,7.10863818359375,0.004327688366174698,0.021432625129818916,-0.014322328381240368
1761507700662794200,7.128794189453125,0.011114489287137985,0.020344439893960953,-0.0215282142162323
1761507700682950100,7.1489501953125,0.028376828879117966,0.0190252885222435,-0.005209135822951794
1761507700703106000,7.16910595703125,0.04507085680961609,0.006166487000882626,-0.010823460295796394
1761507700723261200,7.18926123046875,0.04815186932682991,-0.002119326964020729,-0.013275287114083767
1761507700743417000,7.2094169921875,0.035481613129377365,-0.015116901136934757,-0.02041763626039028
1761507700763573200,7.2295732421875,0.025902755558490753,-0.02726796641945839,-0.019437791779637337
1761507700783728000,7.24972802734375,0.017313258722424507,-0.028789103031158447,0.009900041855871677
1761507700803884000,7.269884033203125,0.009222312830388546,-0.006584953982383013,0.05553033575415611
1761507700824040200,7.290040283203125,0.0039436593651771545,0.007505069486796856,0.062166206538677216
1761507700844196000,7.310196044921875,0.009597020223736763,0.002705933526158333,0.027149206027388573
1761507700864351000,7.33035107421875,0.014837054535746574,0.0011125421151518822,-0.01122034341096878
1761507700884507100,7.350507080078125,0.012086541391909122,0.006966518238186836,-0.06090957298874855
1761507700904663000,7.3706630859375,0.015267421491444111,0.011666323989629745,-0.09171696752309799
1761507700924818000,7.39081787109375,0.021596156060695648,0.03193437308073044,-0.09605880081653595
1761507700944974000,7.41097412109375,0.022310147061944008,0.06088967248797417,-0.07305965572595596
1761507700965130000,7.4311298828125,0.032463185489177704,0.04691252484917641,-0.06806797534227371
1761507700985286100,7.4512861328125,0.040701672434806824,0.035644806921482086,-0.07693800330162048
1761507701005441300,7.471441162109375,0.03260113671422005,0.020621346309781075,-0.07357077300548553
1761507701025597200,7.49159716796875,0.024090474471449852,-0.010828332975506783,-0.05529744178056717
1761507701045753300,7.51175341796875,0.006638513412326574,-0.021804898977279663,-0.03613816201686859
1761507701065909200,7.5319091796875,-0.006073819473385811,-0.0037821410223841667,0.0082399882376194
1761507701086064000,7.552064208984375,-0.01388806663453579,-0.020430870354175568,0.033015698194503784
1761507701106220300,7.57222021484375,-0.009591322392225266,-0.021946046501398087,0.05195627734065056
1761507701126376200,7.592376220703125,0.004867509938776493,-0.03852549567818642,0.03897462040185928
1761507701146531000,7.612531005859375,0.016030948609113693,-0.02923421934247017,0.019411319866776466
1761507701166687200,7.632687255859375,0.022715218365192413,-0.021460674703121185,-0.002108660526573658
1761507701186843100,7.652843017578125,0.03749922290444374,-0.024650877341628075,-0.01179239060729742
1761507701206999000,7.6729990234375,0.04520108550786972,0.001652490347623825,0.009663091972470284
1761507701227154200,7.693154296875,0.032475169748067856,0.028682880103588104,0.014914039522409439
1761507701247310000,7.71331005859375,0.022230522707104683,0.029521895572543144,0.0015982824843376875
1761507701267466000,7.733466064453125,0.01938626542687416,0.0014004101976752281,-0.031350549310445786
1761507701287621000,7.75362109375,0.02160840854048729,-0.022124890238046646,-0.061509519815444946
1761507701307777300,7.77377734375,0.011953383684158325,-0.017659956589341164,-0.05165533721446991
1761507701327933200,7.79393310546875,0.005569785833358765,0.0005183080211281776,-0.0194745771586895
1761507701348089300,7.81408935546875,0.002543367212638259,0.012844685465097427,0.010752704925835133
1761507701368244200,7.834244140625,0.0013065994717180729,0.009742926806211472,0.0148838572204113
1761507701388400000,7.854400146484375,0.009314456023275852,-0.013314764946699142,-0.001309719868004322
1761507701408556300,7.874556396484375,0.021057933568954468,-0.025648700073361397,-0.021597811952233315
1761507701428712700,7.894712646484375,0.03236571326851845,-0.023191608488559723,-0.028653079643845558
1761507701448867600,7.91486767578125,0.038433194160461426,-0.014298638328909874,-0.030001221224665642
1761507701469023500,7.9350234375,0.0400710366666317,-0.004554171115159988,-0.019065555185079575
1761507701489179600,7.9551796875,0.04442423954606056,0.007449617609381676,-0.025143640115857124
1761507701509334500,7.97533447265625,0.04567539319396019,0.009984436444938183,-0.04007533937692642
1761507701529490400,7.995490478515625,0.04538324475288391,-0.0011205775663256645,-0.05422338843345642
1761507701549644500,8.01564453125,0.04345804452896118,-0.007350757252424955,-0.06425321847200394
1761507701569800700,8.03580078125,0.027899326756596565,0.013905263505876064,-0.053530264645814896
1761507701589956600,8.05595654296875,0.012752600014209747,0.01592707633972168,-0.05568047612905502
1761507701610112800,8.07611279296875,0.006421997211873531,-0.004442403092980385,-0.05871094763278961
1761507701630267600,8.096267578125,0.002749765757471323,-0.004910110495984554,-0.051283158361911774
1761507701650423600,8.116423583984375,-0.006690073758363724,-0.01257073599845171,-0.03526819497346878
1761507701670579700,8.136579833984374,-0.006554786115884781,-0.0020326701924204826,-0.007135489955544472
1761507701690734600,8.156734619140625,-0.01415970828384161,0.005044722929596901,0.02749994583427906
1761507701710890500,8.176890380859374,-0.022988885641098022,0.008048542775213718,0.0445532463490963
1761507701731046400,8.19704638671875,-0.02507573924958706,0.003656785935163498,0.038088344037532806
1761507701751202600,8.21720263671875,-0.0179925337433815,-0.0023971768096089363,0.02192767523229122
1761507701771357400,8.237357421875,-0.01463987585157156,0.004985088482499123,0.004943672567605972
1761507701791513300,8.257513427734375,-0.005502306856215,-0.0009999601170420647,-0.022812051698565483
1761507701811669500,8.27766943359375,0.01138346642255783,-0.01126023754477501,-0.057766009122133255
1761507701831824600,8.29782470703125,0.013072709552943707,-0.020440153777599335,-0.09902183711528778
1761507701851980500,8.31798046875,0.01667383871972561,-0.02961578592658043,-0.11640796065330505
1761507701872136700,8.33813671875,0.02382628805935383,-0.032141100615262985,-0.12938882410526276
1761507701892292600,8.358292724609376,0.026217009872198105,-0.05258995667099953,-0.1111941784620285
1761507701912447500,8.378447509765625,0.009087025187909603,-0.015748746693134308,-0.044173724949359894
1761507701932604700,8.398604736328124,-0.00490628881379962,-0.006036997307091951,0.023974435403943062
1761507701952760600,8.418760498046876,-0.017048973590135574,-0.0018639490008354187,0.08546523749828339
1761507701972915700,8.438915771484375,-0.028063006699085236,-0.0024789124727249146,0.1162281408905983
1761507701993071600,8.459071533203126,-0.031249744817614555,-0.016240756958723068,0.09715006500482559
1761507702013227500,8.4792275390625,-0.030185014009475708,-0.028524648398160934,0.061758387833833694
1761507702033382700,8.499382568359374,-0.024574533104896545,-0.028013896197080612,0.0190372746437788
1761507702053538600,8.51953857421875,-0.02141895517706871,-0.021396901458501816,-0.029345618560910225
1761507702073694500,8.539694580078125,-0.018512114882469177,-0.01990147866308689,-0.07812750339508057
1761507702093850600,8.5598505859375,-0.013780742883682251,-0.026478730142116547,-0.11775854974985123
1761507702114005500,8.580005615234375,-0.012952497228980064,-0.03592032939195633,-0.12693332135677338
1761507702134161400,8.600161376953125,-0.012362606823444366,-0.04244372248649597,-0.10291916131973267
1761507702154317600,8.620317626953126,-0.013427604921162128,-0.046109870076179504,-0.05006847903132439
1761507702174472400,8.640472412109375,-0.021795257925987244,-0.024740010499954224,0.024850284680724144
1761507702194628400,8.66062841796875,-0.03916279599070549,-0.0020050136372447014,0.08229051530361176
1761507702214784500,8.680784423828126,-0.047744300216436386,-0.010053946636617184,0.10475941747426987
1761507702234940400,8.7009404296875,-0.044319476932287216,-0.00829312577843666,0.09232280403375626
1761507702255095600,8.721095458984376,-0.030182354152202606,-0.016306191682815552,0.044947460293769836
1761507702275251700,8.741251708984375,-0.011841963045299053,-0.032690901309251785,-0.004912193864583969
1761507702295407600,8.76140771484375,0.004441938828676939,-0.031338728964328766,-0.03727228567004204
1761507702315562500,8.7815625,0.009665196761488914,-0.017916008830070496,-0.05137234553694725
1761507702335718700,8.80171875,0.004901867359876633,0.0047711338847875595,-0.045073624700307846
1761507702355874600,8.82187451171875,-0.0010593526531010866,0.00542655773460865,-0.030437784269452095
1761507702376030500,8.842030517578126,0.002953497925773263,0.0013866256922483444,-0.030016500502824783
1761507702396185600,8.862185546875,-0.0030380859971046448,-0.0032109804451465607,-0.026863645762205124
1761507702416341500,8.882341552734376,-0.0020857348572462797,0.005246815271675587,-0.02026519738137722
1761507702436497000,8.902496826171875,0.0031918513122946024,0.01221292931586504,-0.0056393505074083805
1761507702456652000,8.922652099609374,0.003870156826451421,0.029805174097418785,0.0107720410451293
1761507702476808200,8.94280810546875,0.016041068360209465,0.03964962810277939,0.012892748229205608
1761507702496964000,8.962964111328125,0.03238755092024803,0.02114279195666313,-0.0049851080402731895
1761507702517120000,8.9831201171875,0.04801897704601288,0.010282259434461594,-0.011398331262171268
1761507702537275100,9.003275146484375,0.0446692518889904,0.011171713471412659,0.008704790845513344
1761507702557431000,9.02343115234375,0.03489678353071213,0.01779313012957573,0.03593854233622551
1761507702577587200,9.043587158203126,0.027890807017683983,0.019630692899227142,0.05353627726435661
1761507702597743000,9.0637431640625,0.016772374510765076,0.009126774035394192,0.05453506484627724
1761507702617898000,9.08389794921875,0.004052317701280117,-0.0028150053694844246,0.03790542483329773
1761507702638054000,9.104053955078125,-0.0058208187110722065,-0.014652693644165993,0.011656904593110085
1761507702658210000,9.1242099609375,-0.023058660328388214,-0.010459811426699162,-0.004136763513088226
1761507702678365000,9.144364990234376,-0.03278505802154541,-0.013276207260787487,-0.02003305032849312
1761507702698520800,9.164520751953125,-0.03863922134041786,-0.02389002963900566,-0.043866127729415894
1761507702718677000,9.184677001953125,-0.04646438732743263,-0.030633462592959404,-0.06694430112838745
1761507702738833000,9.2048330078125,-0.05446239188313484,-0.028651928529143333,-0.07527333498001099
1761507702758987800,9.22498779296875,-0.05769626796245575,-0.003748052753508091,-0.07780008763074875
1761507702779144000,9.24514404296875,-0.05968431755900383,0.002714700996875763,-0.0705459862947464
1761507702799299800,9.2652998046875,-0.05638066679239273,-0.00011156778782606125,-0.051736980676651
1761507702819455000,9.285455078125,-0.06240979954600334,0.0073983799666166306,-0.02015562728047371
1761507702839611100,9.305611083984376,-0.07000566273927689,0.010166693478822708,0.009519160725176334
1761507702859767000,9.32576708984375,-0.06353205442428589,0.0028692446649074554,0.022471606731414795
1761507702879923200,9.345923095703125,-0.04909772053360939,0.005295693874359131,0.03126053139567375
1761507702900078000,9.366078125,-0.024342836812138557,0.003463050350546837,0.03817138448357582
1761507702920234000,9.38623388671875,-0.006448259577155113,-0.002948305569589138,0.03110828623175621
1761507702940390100,9.40639013671875,0.002788915066048503,-0.01558203250169754,0.023952331393957138
1761507702960545000,9.426544921875,0.001121508190408349,-0.011651189997792244,0.01622060313820839
1761507702980701000,9.446700927734375,-0.007256795186549425,-0.0022716568782925606,0.00747893750667572
1761507703000857000,9.466857177734376,-0.005130793433636427,-0.008174819871783257,-0.0057130311615765095
1761507703021013000,9.487012939453125,-0.0022665653377771378,-0.012794790789484978,-0.008872516453266144
1761507703041168000,9.50716796875,0.00015904358588159084,-0.015034794807434082,-0.008677266538143158
1761507703061324000,9.527323974609375,-0.0032833602745085955,-0.03346088156104088,-0.009216846898198128
1761507703081480000,9.54747998046875,-0.01130772940814495,-0.05127810314297676,-0.002528535667806864
1761507703101635000,9.567635009765626,-0.02797245979309082,-0.03537292405962944,0.01698954403400421
1761507703121791200,9.587791259765625,-0.04679302126169205,0.0009663151577115059,0.037729986011981964
1761507703141947100,9.607947021484375,-0.05834661051630974,0.03480210527777672,0.04402662813663483
1761507703162102000,9.62810205078125,-0.048830073326826096,0.030526503920555115,0.016412777826189995
1761507703182258200,9.648258056640625,-0.03412569314241409,0.006233249790966511,-0.028110813349485397
1761507703202414000,9.6684140625,-0.014191665686666965,-0.0011900244280695915,-0.0407111793756485
1761507703222570000,9.688570068359375,-0.005976613610982895,-0.002962828613817692,-0.028705786913633347
1761507703242724900,9.708724853515625,-0.010433413088321686,0.0006786538287997246,-0.01080113835632801
1761507703262881000,9.728881103515626,-0.004763809964060783,-0.001441732980310917,0.016603967174887657
1761507703283037000,9.749036865234375,0.001349475933238864,-0.021140478551387787,0.03688452020287514
1761507703303191800,9.76919189453125,0.00993683934211731,-0.018501145765185356,0.05919249728322029
1761507703323348000,9.789347900390625,0.01909491792321205,-0.0195526834577322,0.06767009198665619
1761507703343504000,9.80950390625,0.030482063069939613,-0.027113480493426323,0.07232200354337692
1761507703363660000,9.829659912109374,0.04268306493759155,-0.02484505996108055,0.06974127888679504
1761507703383815200,9.849815185546875,0.045954491943120956,-0.02088860794901848,0.05207725241780281
1761507703403971000,9.86997119140625,0.04385911673307419,-0.01756145805120468,0.028064453974366188
1761507703424127000,9.890126953125,0.0383216068148613,-0.029010944068431854,0.01301274448633194
1761507703444281900,9.91028173828125,0.02804473787546158,-0.022544212639331818,0.010875459760427475
1761507703464437800,9.930437744140624,0.012692944146692753,-0.012852436862885952,0.023480258882045746
1761507703484594000,9.950593994140625,0.0005289562977850437,-0.010647441260516644,0.034445829689502716
1761507703504749800,9.970749755859375,-0.0115090636536479,-0.009445618838071823,0.02926904894411564
1761507703524904700,9.99090478515625,-0.010113834403455257,-0.006966563407331705,0.024343710392713547
1761507703545060900,10.011060791015625,-0.0021272802259773016,-0.004274415783584118,0.027871640399098396
1761507703565216800,10.031216796875,0.011216487735509872,-0.0020723287016153336,0.027983402833342552
1761507703585371600,10.05137158203125,0.011974424123764038,0.0035022199153900146,0.030886154621839523
1761507703605527800,10.07152783203125,0.01144658587872982,0.011358974501490593,0.03199920803308487
1761507703625683700,10.09168359375,0.015755847096443176,0.008099695667624474,0.021904295310378075
1761507703645839600,10.111839599609375,0.020569510757923126,0.009514079429209232,0.002565905451774597
1761507703665994800,10.131994873046875,0.02184409834444523,0.00015657208859920502,-0.01818782463669777
1761507703686151000,10.15215087890625,0.01920357346534729,0.0012012254446744919,-0.014008940197527409
1761507703706306800,10.172306884765625,0.015057831071317196,0.007563458755612373,-0.0030219871550798416
1761507703726461700,10.192461669921874,0.010116602294147015,0.007188364863395691,0.0026644975878298283
1761507703746617900,10.212617919921875,0.011691328138113022,-0.006020077969878912,0.0024579670280218124
1761507703766773800,10.232773681640625,0.011743792332708836,-0.00959279015660286,0.006441757082939148
1761507703786930000,10.252929931640624,0.0076766107231378555,-0.007147990167140961,0.008304541930556297
1761507703807084800,10.273084716796875,0.009884638711810112,-0.0038381312042474747,0.006742097437381744
1761507703827240700,10.29324072265625,0.013132631778717041,-0.01138778030872345,0.011425960808992386
1761507703847396900,10.31339697265625,0.01192701980471611,-0.011485232040286064,0.015132393687963486
1761507703867551700,10.3335517578125,0.004662714898586273,-0.009221462532877922,0.01999056525528431
1761507703887707600,10.353707763671874,-0.003988034091889858,-0.005222258158028126,0.025633197277784348
1761507703907863800,10.37386376953125,-0.009002230130136013,-0.007006102241575718,0.00909845344722271
1761507703928019700,10.394019775390625,-0.00883391872048378,-0.012890027835965157,-0.007455893326550722
1761507703948174600,10.414174560546876,-0.011016381904482841,-0.011908615939319134,-0.014751758426427841
1761507703968330800,10.434330810546875,-0.015665993094444275,-0.008729619905352592,-0.02189639024436474
1761507703988486700,10.454486572265624,-0.015047073364257812,-0.009055610746145248,-0.026944315060973167
1761507704008641800,10.474641845703125,-0.01599515974521637,-0.006275658495724201,-0.023195965215563774
1761507704028798000,10.4947978515625,-0.017636997625231743,-0.005126135423779488,-0.018137944862246513
1761507704048953900,10.514953857421874,-0.015983708202838898,-0.009093609638512135,-0.012474588118493557
1761507704069108700,10.535108642578125,-0.015280366875231266,-0.01621021144092083,-0.0057271383702754974
1761507704089265000,10.555264892578125,-0.0208628848195076,-0.009623149409890175,0.010183974169194698
1761507704109420800,10.5754208984375,-0.02382645010948181,-0.006891094613820314,0.013933938927948475
1761507704129576700,10.59557666015625,-0.017237789928913116,0.008009579963982105,0.011415233835577965
1761507704149731800,10.61573193359375,-0.004916941747069359,0.018705815076828003,0.003921332769095898
1761507704169887700,10.6358876953125,0.009563996456563473,0.003361934795975685,-0.012426038272678852
1761507704190043600,10.656043701171875,0.023403646424412727,-0.011953025124967098,-0.022098815068602562
1761507704210198800,10.67619873046875,0.026457492262125015,0.0012140311300754547,-0.016387827694416046
1761507704230354700,10.696354736328125,0.01757718063890934,0.015827491879463196,0.001843589241616428
1761507704250510600,10.716510498046874,0.011345918290317059,0.044082362204790115,0.031813718378543854
1761507704270666800,10.736666748046876,0.0018152629490941763,0.056629106402397156,0.09840991348028183
1761507704290822000,10.75682177734375,-0.009791060350835323,0.03079959936439991,0.12840573489665985
1761507704310977800,10.776977783203124,-0.015080895274877548,-0.00011316407471895218,0.10016221553087234
1761507704331134000,10.797134033203125,-0.008395297452807426,-0.024640899151563644,0.060135263949632645
1761507704351288800,10.817288818359375,0.0019311108626425266,-0.0312841534614563,-0.005076439119875431
1761507704371444700,10.83744482421875,0.009603410959243774,-0.03290200233459473,-0.06906803697347641
