time,seconds_elapsed,z,y,x
1761506951067044000,0.074044189453125,-0.7797924280166626,-0.295010507106781,0.1730187088251114
1761506951087201000,0.094200927734375,-0.6880530714988708,-0.36654606461524963,0.6066117882728577
1761506951107357000,0.11435693359375,-0.5349829792976379,0.043538209050893784,0.8150905966758728
1761506951127513900,0.134513916015625,-0.08024976402521133,0.33584415912628174,0.22330759465694427
1761506951147670000,0.154669921875,0.27193617820739746,-0.02925598807632923,-0.44991663098335266
1761506951167827000,0.174826904296875,0.9869297742843628,0.5977826118469238,-0.8098489046096802
1761506951187983000,0.194983154296875,1.5117406845092773,1.3112319707870483,-0.8664153814315796
1761506951208139800,0.215139892578125,1.7703452110290527,0.9064505100250244,-0.8440068364143372
1761506951228296000,0.2352958984375,2.1010563373565674,-0.6309005618095398,-0.6635359525680542
1761506951248452900,0.255452880859375,2.5177714824676514,-1.8594633340835571,-0.2109115868806839
1761506951268609000,0.275609130859375,2.6542341709136963,-2.0916361808776855,0.587973415851593
1761506951288766000,0.295765869140625,2.510723352432251,-1.490770936012268,1.3548320531845093
1761506951308922000,0.315922119140625,1.5342904329299927,-0.6412622928619385,0.7474098205566406
1761506951329079000,0.3360791015625,-0.3970228135585785,0.05228235572576523,-0.430279016494751
1761506951349235000,0.35623486328125,-1.075618028640747,0.337548166513443,-1.0030126571655273
1761506951369390800,0.376390869140625,-0.8076992630958557,0.25552836060523987,-1.0081596374511719
1761506951389548000,0.396548095703125,-0.4952034056186676,0.29484668374061584,-0.5928409695625305
1761506951409704000,0.416703857421875,-0.6706715822219849,0.8997591137886047,-0.3138584792613983
1761506951429861000,0.436861083984375,-0.6969188451766968,0.8808783888816833,-0.2989087402820587
1761506951450017000,0.45701708984375,-0.46824216842651367,1.0901904106140137,-0.21888531744480133
1761506951470174000,0.477174072265625,-0.1285131871700287,1.406688928604126,-0.2544246315956116
1761506951490329900,0.497329833984375,0.10633578896522522,1.5873804092407227,-0.5197581648826599
1761506951510487000,0.517487060546875,-0.1746373176574707,-0.0007806718349456787,-0.8670960068702698
1761506951530643000,0.537642822265625,-0.04655478149652481,-0.6682971715927124,-0.7105557918548584
1761506951550800100,0.557800048828125,0.375575989484787,0.31568798422813416,-0.8877366185188293
1761506951570956000,0.5779560546875,0.6348854303359985,0.7951480746269226,-0.36819353699684143
1761506951591113200,0.59811328125,0.7545547485351562,0.328355610370636,0.8867023587226868
1761506951611269000,0.61826904296875,0.4130440056324005,-0.823156476020813,1.221585750579834
1761506951631426000,0.638426025390625,-0.1613345593214035,-1.2915855646133423,1.3374805450439453
1761506951651582000,0.65858203125,-0.8681290745735168,-0.9088869690895081,1.5848509073257446
1761506951671739100,0.6787392578125,-0.7292124032974243,1.0177860260009766,1.4073331356048584
1761506951691895000,0.69889501953125,-0.08330157399177551,1.500662088394165,0.6357190608978271
1761506951712050400,0.719050537109375,0.3410380482673645,0.6964991092681885,0.5306869149208069
1761506951732207600,0.73920751953125,0.31106218695640564,0.28244295716285706,0.7122664451599121
1761506951752363500,0.759363525390625,0.1613827496767044,-0.2263643592596054,1.3319013118743896
1761506951772520400,0.7795205078125,-0.014147458598017693,-0.7698276042938232,2.058701753616333
1761506951792676400,0.79967626953125,-0.2832537293434143,-0.7927860021591187,2.4356491565704346
1761506951812833500,0.81983349609375,-0.41259169578552246,-1.0552551746368408,2.002012014389038
1761506951832989400,0.839989501953125,-0.7169922590255737,-0.972805380821228,1.148593783378601
1761506951853146600,0.860146728515625,-0.9190242886543274,-0.45477718114852905,0.29763180017471313
1761506951873302500,0.880302490234375,-0.9416525959968567,-0.0012216679751873016,-0.2319774180650711
1761506951893459500,0.90045947265625,-0.6213877201080322,0.4795326292514801,-0.2777099311351776
1761506951913615400,0.920615478515625,-0.5693938732147217,1.047346830368042,-0.3935646414756775
1761506951933772500,0.9407724609375,-0.7888343334197998,1.5103620290756226,-0.8231335878372192
1761506951953928400,0.960928466796875,-1.0678654909133911,0.4404943883419037,-0.9930530190467834
1761506951974085600,0.981085693359375,-0.8858731985092163,0.3534644544124603,-0.6168487071990967
1761506951994241500,1.001241455078125,-0.34691667556762695,0.8189977407455444,-0.24818089604377747
1761506952014398500,1.0213984375,-0.10055744647979736,0.9341113567352295,-0.11461864411830902
1761506952034554400,1.041554443359375,-0.26445484161376953,0.16863657534122467,-0.7843867540359497
1761506952054710300,1.061710205078125,-0.2913377285003662,-0.38067182898521423,-0.8975247144699097
1761506952074867500,1.081867431640625,-0.06600144505500793,-0.546006977558136,-0.7937199473381042
1761506952095023400,1.1020234375,-0.13725095987319946,-0.8114088773727417,-1.2402663230895996
1761506952115180500,1.1221806640625,-0.3326602280139923,-1.0313712358474731,-1.670451045036316
1761506952135336400,1.14233642578125,-0.18695683777332306,-0.3536630868911743,-0.4711556136608124
1761506952155493400,1.162493408203125,0.006613712292164564,0.15652382373809814,1.6602110862731934
1761506952175649300,1.182649169921875,0.19345763325691223,0.4715134799480438,2.4030072689056396
1761506952195806500,1.202806396484375,0.054556094110012054,0.6787030696868896,2.3432390689849854
1761506952215962400,1.22296240234375,-0.24001562595367432,0.5632417798042297,1.7797386646270752
1761506952236119600,1.24311962890625,-0.281399130821228,0.13142400979995728,1.1756600141525269
1761506952256275500,1.263275390625,-0.3011806607246399,-0.27046045660972595,0.7482706308364868
1761506952276432600,1.2834326171875,-0.29259636998176575,-0.3572715222835541,0.43566375970840454
1761506952296588500,1.303588623046875,-0.15731605887413025,-0.19396479427814484,0.2488943338394165
1761506952316745500,1.323745361328125,-0.1170576736330986,-0.13663500547409058,0.43534228205680847
1761506952336901400,1.3439013671875,-0.36045557260513306,-0.1659163385629654,0.6453132033348083
1761506952357057500,1.3640576171875,-0.5624935626983643,0.0054395850747823715,0.6572819948196411
1761506952377214500,1.38421435546875,-0.551055908203125,-0.02195301651954651,0.26458820700645447
1761506952397370600,1.40437060546875,-0.5622081756591797,-0.1366799771785736,-0.41855868697166443
1761506952417527600,1.424527587890625,-0.5508421063423157,-0.1339379847049713,-1.1534115076065063
1761506952437683500,1.444683349609375,-0.434062659740448,-0.18465572595596313,-1.614619255065918
1761506952457840400,1.46484033203125,-0.48636287450790405,-0.25831368565559387,-1.624717354774475
1761506952477996500,1.48499658203125,-0.48531877994537354,-0.1250605434179306,-1.144726276397705
1761506952498153500,1.505153564453125,-0.4083757996559143,0.03792181238532066,-0.744884729385376
1761506952518309600,1.5253095703125,-0.4490116238594055,-0.28493598103523254,-0.5901418924331665
1761506952538466600,1.545466552734375,-0.4947318434715271,-0.8160120844841003,-0.6243245601654053
1761506952558622700,1.565622802734375,-0.5050603151321411,-1.3139106035232544,-0.7438456416130066
1761506952578779400,1.585779296875,-0.39041540026664734,-1.0220316648483276,-0.8834480047225952
1761506952598935600,1.605935546875,-0.304678738117218,0.20560632646083832,-0.3529207408428192
1761506952619092500,1.626092529296875,-0.25471875071525574,0.2629586458206177,0.0317775122821331
1761506952639248600,1.64624853515625,-0.00702983932569623,0.1449272334575653,-0.08847077935934067
1761506952659404500,1.666404541015625,0.5264312028884888,0.3201838433742523,0.000913755502551794
1761506952679561700,1.686561767578125,1.1658862829208374,0.6730114817619324,0.2858997881412506
1761506952699717600,1.706717529296875,1.7472341060638428,0.58875572681427,1.0188461542129517
1761506952719873800,1.726873779296875,1.664577841758728,0.5109105706214905,1.5813807249069214
1761506952740029700,1.74702978515625,0.8207921385765076,0.5626384615898132,1.2277753353118896
1761506952760187000,1.767186767578125,-0.04670821130275726,0.3524833917617798,0.553997814655304
1761506952780342800,1.7873427734375,0.0647173523902893,-0.025128914043307304,0.6253010034561157
1761506952800500000,1.8075,0.4158177375793457,-0.3813158869743347,1.033870816230774
1761506952820655900,1.82765576171875,0.4398941397666931,-0.2941248416900635,1.3063380718231201
1761506952840812800,1.847812744140625,0.08590403944253922,-0.2254023402929306,1.2408629655838013
1761506952860968700,1.86796875,-0.30322521924972534,-0.3529760241508484,0.8792259693145752
1761506952881126000,1.8881259765625,-0.4739290177822113,-0.31860414147377014,0.07079139351844788
1761506952901281800,1.90828173828125,-0.4718267023563385,-0.38542309403419495,-1.0860257148742676
1761506952921439000,1.92843896484375,-0.3214626908302307,-0.4576287865638733,-1.5197960138320923
1761506952941595000,1.948594970703125,-0.1994185596704483,-0.4455000162124634,-1.3500940799713135
1761506952961751000,1.9687509765625,-0.14076697826385498,-0.36752671003341675,-1.2265657186508179
1761506952981908000,1.988907958984375,-0.04660564661026001,-0.37815189361572266,-1.0315812826156616
1761506953002064000,2.00906396484375,0.0733494982123375,-0.4495849311351776,-0.5084426999092102
1761506953022220800,2.029220703125,-0.03394896164536476,-0.37866586446762085,0.09172626584768295
1761506953042377000,2.049376953125,-0.27906307578086853,-0.6430212259292603,-0.3214077055454254
1761506953062534000,2.069533935546875,-0.17598949372768402,-1.1772589683532715,-1.038366436958313
1761506953082690000,2.08968994140625,-0.11687251180410385,-1.2268816232681274,-0.9711577892303467
1761506953102847000,2.109846923828125,-0.1310471147298813,-0.5632025003433228,-0.5404704213142395
1761506953123003000,2.1300029296875,-0.18749329447746277,0.006133287213742733,-0.19353196024894714
1761506953143159800,2.150159912109375,-0.1341933012008667,0.31851598620414734,0.07104992121458054
1761506953163316000,2.17031591796875,0.019694950431585312,0.6564156413078308,0.48470157384872437
1761506953183473000,2.190472900390625,0.2585229277610779,1.1128023862838745,0.8095503449440002
1761506953203629000,2.210629150390625,0.3753466010093689,1.3893938064575195,0.9941146373748779
1761506953223786000,2.230785888671875,0.6642881035804749,1.401163101196289,1.0813603401184082
1761506953243942100,2.250942138671875,0.7856553196907043,1.4137426614761353,1.1084537506103516
1761506953264098000,2.27109814453125,0.6474405527114868,1.1408329010009766,0.7612041234970093
1761506953284255000,2.2912548828125,0.43807587027549744,0.5293763279914856,0.40253058075904846
1761506953304411000,2.311410888671875,0.3292061686515808,-0.021046273410320282,0.4032825529575348
1761506953324568000,2.331568115234375,0.31394675374031067,-0.18821437656879425,0.5502066612243652
1761506953344724000,2.351723876953125,0.25237083435058594,-0.1539124697446823,0.8450793027877808
1761506953364881000,2.371880859375,0.011581183411180973,-0.3718098998069763,1.3156077861785889
1761506953385037000,2.392037109375,-0.3566676676273346,-0.7157909274101257,1.5839804410934448
1761506953405193700,2.41219384765625,-0.6208125352859497,-0.7733895182609558,1.2173420190811157
1761506953425350000,2.432349853515625,-0.5256686806678772,-0.39824625849723816,0.28307127952575684
1761506953445506800,2.4525068359375,-0.32907941937446594,0.05181831866502762,-0.5716677308082581
1761506953465663000,2.4726630859375,-0.17939791083335876,0.2191016674041748,-0.8613982796669006
1761506953485820000,2.49281982421875,-0.169072687625885,0.004376336932182312,-0.8832788467407227
1761506953505976000,2.51297607421875,-0.22887079417705536,-0.14021073281764984,-0.7803590893745422
1761506953526132700,2.5331328125,-0.26481500267982483,-0.10552293807268143,-0.7907518148422241
1761506953546289000,2.553288818359375,-0.3410264253616333,-0.15450027585029602,-0.91950923204422
1761506953566444800,2.57344482421875,-0.2981254756450653,-0.15767189860343933,-1.225415587425232
1761506953586602000,2.59360205078125,-0.025019994005560875,-0.09879753738641739,-2.0717291831970215
1761506953606758000,2.6137578125,0.2711300253868103,-0.2591666877269745,-1.8093979358673096
1761506953626915000,2.6339150390625,0.0031098471954464912,-0.7285532355308533,-1.030297875404358
1761506953647071000,2.654071044921875,-0.007418194320052862,-0.22575393319129944,-0.9270069003105164
1761506953667228000,2.674227783203125,0.5403607487678528,0.38347911834716797,0.07112379372119904
1761506953687383800,2.6943837890625,0.9002246260643005,0.5457886457443237,1.200817584991455
1761506953707541000,2.714541015625,0.8298574686050415,0.8300485014915466,1.6757396459579468
1761506953727697200,2.734697265625,0.5518818497657776,0.8272035717964172,1.720001459121704
1761506953747854000,2.75485400390625,0.3440123200416565,0.6888237595558167,1.4989910125732422
1761506953768010200,2.77501025390625,0.1557069569826126,0.6546370387077332,1.166500210762024
1761506953788167000,2.7951669921875,0.015171345323324203,0.49137401580810547,0.5922870635986328
1761506953808323000,2.815322998046875,0.267743319272995,0.32410797476768494,0.22440205514431
1761506953828480000,2.83547998046875,0.7371816039085388,-0.02236584573984146,0.5576872825622559
1761506953848636200,2.85563623046875,0.8538128733634949,-0.2686646580696106,1.176298975944519
1761506953868793000,2.87579296875,0.642747700214386,-0.08795422315597534,1.3133089542388916
1761506953888949200,2.89594921875,0.5152950882911682,0.037717290222644806,1.090421199798584
1761506953909105200,2.916105224609375,0.4415917694568634,0.07333505153656006,0.6380462050437927
1761506953929262000,2.936261962890625,0.2791675329208374,0.21424171328544617,-0.07164262235164642
1761506953949418000,2.95641796875,0.031020082533359528,0.325908899307251,-1.0028632879257202
1761506953969575000,2.976574951171875,-0.25856131315231323,0.13189056515693665,-1.5744611024856567
1761506953989731000,2.99673095703125,-0.40220576524734497,0.10613837838172913,-1.6246228218078613
1761506954009888000,3.016887939453125,-0.3573320508003235,0.21280063688755035,-1.4853980541229248
1761506954030044200,3.037044189453125,-0.35344138741493225,-0.06589086353778839,-1.3901234865188599
1761506954050200800,3.057200927734375,-0.3230220377445221,-0.4856218099594116,-1.1895380020141602
1761506954070357000,3.07735693359375,-0.3450062572956085,-0.5106348395347595,-1.1539280414581299
1761506954090514000,3.097513916015625,-0.5722591280937195,-0.9831297397613525,-1.1669648885726929
1761506954110670000,3.117670166015625,-0.7298807501792908,-1.3190066814422607,-0.7363715767860413
1761506954130827000,3.137826904296875,-0.3717759847640991,-0.2623836100101471,0.17093512415885925
1761506954150983200,3.157983154296875,0.062487564980983734,0.40618714690208435,0.4595024287700653
1761506954171139800,3.178139892578125,-0.31035131216049194,0.300529420375824,-0.36748623847961426
1761506954191296000,3.1982958984375,-0.4789065718650818,0.21772736310958862,-0.9552732706069946
1761506954211453000,3.218452880859375,-0.17345616221427917,0.408147394657135,-0.3803321123123169
1761506954231609000,3.238609130859375,0.03934811055660248,0.4472379982471466,0.00033844122663140297
1761506954251765000,3.258764892578125,-0.017959443852305412,0.17049188911914825,0.04486794024705887
1761506954271922200,3.278922119140625,-0.10780308395624161,-0.207283154129982,0.05515154451131821
1761506954292078000,3.299078125,-0.09725099056959152,-0.751569390296936,0.4468056559562683
1761506954312235000,3.319235107421875,0.12016408145427704,-0.5469217896461487,1.4293395280838013
1761506954332391000,3.339390869140625,0.3083125352859497,-0.5973424315452576,1.7536407709121704
1761506954352548000,3.359548095703125,0.3032231330871582,-0.7336151599884033,1.4416853189468384
1761506954372704000,3.3797041015625,0.10301385819911957,-0.7926054000854492,0.9121553897857666
1761506954392861200,3.399861083984375,-0.025217797607183456,-0.6465889811515808,0.5555293560028076
1761506954413017000,3.42001708984375,-0.1473199874162674,-0.24915644526481628,0.06125243008136749
1761506954433174000,3.440174072265625,-0.24416273832321167,-0.11593089252710342,-0.7367797493934631
1761506954453330000,3.460329833984375,-0.3855195641517639,-0.2677221894264221,-1.0458550453186035
1761506954473487000,3.480487060546875,-0.4513058066368103,-0.30471715331077576,-0.9925974607467651
1761506954493643000,3.50064306640625,-0.5235029458999634,-0.08355996012687683,-0.8532721996307373
1761506954513800200,3.52080029296875,-0.5771634578704834,0.10275236517190933,-0.6018441915512085
1761506954533956000,3.5409560546875,-0.5357131958007812,0.1610204577445984,-0.3521694242954254
1761506954554113000,3.561113037109375,-0.6068441271781921,0.11926398426294327,-0.14743080735206604
1761506954574269200,3.581269287109375,-0.738928496837616,-0.005217956379055977,0.08189532160758972
1761506954594425000,3.601425048828125,-0.9556481242179871,-0.1958673745393753,-0.14299127459526062
1761506954614582000,3.62158203125,-0.8022807836532593,-0.3991186022758484,-0.3705715835094452
1761506954634738000,3.641738037109375,-0.3663107752799988,-0.3359314799308777,-0.1564926654100418
1761506954654895000,3.66189501953125,-0.016484515741467476,0.18279412388801575,0.31519815325737
1761506954675051000,3.682051025390625,0.5320870280265808,0.962054967880249,0.6247295141220093
1761506954695208200,3.702208251953125,0.9872702956199646,1.1313843727111816,0.29445645213127136
1761506954715364000,3.722364013671875,1.0228031873703003,0.9792373776435852,0.2765551209449768
1761506954735521000,3.74252099609375,1.0753713846206665,1.3995158672332764,0.4190025329589844
1761506954755677000,3.762677001953125,0.8913815021514893,1.4750885963439941,0.7734452486038208
1761506954775834000,3.782834228515625,0.8299350142478943,1.908359169960022,1.0699493885040283
1761506954795990000,3.802989990234375,0.9286661148071289,1.9775851964950562,0.9980031251907349
1761506954816147200,3.823147216796875,0.9955393671989441,1.2452722787857056,0.8735927939414978
1761506954836303000,3.84330322265625,1.2155466079711914,0.09423985332250595,0.6467896103858948
1761506954856460000,3.8634599609375,1.0964481830596924,-0.0669945776462555,-0.0428796224296093
1761506954876616000,3.883615966796875,0.6996561288833618,-0.31586912274360657,0.13052667677402496
1761506954896773000,3.903773193359375,0.36285194754600525,-0.36207544803619385,0.26579222083091736
1761506954916929000,3.923928955078125,-0.12747924029827118,-0.18826612830162048,0.07068631052970886
1761506954937085200,3.944085205078125,-0.5467916131019592,-0.044809456914663315,-0.5679004788398743
1761506954957242000,3.9642421875,-0.8200666308403015,-0.154728963971138,-1.3391410112380981
1761506954977398300,3.984398193359375,-0.7174725532531738,-0.4041088819503784,-1.9094486236572266
1761506954997553200,4.00455322265625,-0.3149843215942383,-0.5391381978988647,-2.0723204612731934
1761506955017709000,4.024708984375,0.10490326583385468,0.0029984554275870323,-1.6217495203018188
1761506955037866200,4.0448662109375,0.4535517394542694,0.6486997604370117,-0.9049843549728394
1761506955058022100,4.065022216796875,0.5185648202896118,0.4009496569633484,-0.2530849874019623
1761506955078178000,4.085177978515625,-0.2864459753036499,-0.8758472800254822,0.6894844174385071
1761506955098335000,4.1053349609375,-0.8986470699310303,-1.4634227752685547,1.3470497131347656
1761506955118491000,4.125490966796875,-0.7153627872467041,-0.9975903034210205,0.48062559962272644
1761506955138648000,4.14564794921875,-0.2414301037788391,-0.851021409034729,-0.6689266562461853
1761506955158804000,4.165803955078125,-0.21524113416671753,-1.6389073133468628,-1.039931058883667
1761506955178961200,4.185961181640625,-0.4553356468677521,-1.448801875114441,-0.9583104252815247
1761506955199117000,4.206116943359375,-0.3492928147315979,-0.6170085072517395,-1.0632718801498413
1761506955219274000,4.22627392578125,-0.2665216624736786,-0.26067081093788147,-0.9440478682518005
1761506955239430000,4.246429931640625,-0.22551517188549042,-0.3342950940132141,-0.34483447670936584
1761506955259587000,4.266587158203125,-0.09365486353635788,0.014139103703200817,0.34606674313545227
1761506955279743000,4.286742919921875,0.11164753884077072,0.6849958896636963,0.9281731843948364
1761506955299900200,4.306900146484375,0.5646415948867798,2.119267225265503,0.9124045968055725
1761506955320056000,4.32705615234375,0.7458118796348572,2.635352849960327,0.7168100476264954
1761506955340213000,4.347212890625,0.318013072013855,0.960221529006958,0.504393458366394
1761506955360369000,4.367368896484375,-0.028510041534900665,-0.8480533957481384,0.5584748387336731
1761506955380526000,4.387526123046875,-0.3341120481491089,-1.0123872756958008,0.7231500744819641
1761506955400682000,4.407681884765625,-0.4753924310207367,-0.591284990310669,0.8524368405342102
1761506955420839200,4.427839111328125,-0.15570402145385742,0.012520469725131989,0.7589327096939087
1761506955440995800,4.447995849609375,-0.04875774681568146,0.31928256154060364,0.231237530708313
1761506955461152000,4.468152099609375,-0.20472180843353271,0.3894953429698944,-0.3490499258041382
1761506955481309000,4.488308837890625,-0.5389391779899597,0.022803859785199165,-0.9912919998168945
1761506955501465000,4.508465087890625,-0.5766253471374512,-0.3800479471683502,-1.384583592414856
1761506955521622000,4.5286220703125,-0.42507800459861755,-0.5381248593330383,-1.1557039022445679
1761506955541778200,4.548778076171875,-0.34780195355415344,-0.591850996017456,-0.35076427459716797
1761506955561934800,4.568934814453125,-0.3201613426208496,-0.44798770546913147,0.3204948306083679
1761506955582091000,4.589091064453125,-0.4369352459907532,-0.325266033411026,0.39088836312294006
1761506955602247000,4.609246826171875,-0.5942694544792175,-0.2589930593967438,-0.12939997017383575
1761506955622404000,4.629404052734375,-0.6793459057807922,-0.544721782207489,-0.23909956216812134
1761506955642560000,4.64956005859375,-0.5958852767944336,-1.1850600242614746,0.2568739950656891
1761506955662717200,4.66971728515625,-0.6230237483978271,-1.702744722366333,0.8271982669830322
1761506955682873000,4.689873046875,-0.7076970934867859,-1.0271984338760376,0.955402135848999
1761506955703030000,4.710030029296875,-0.5172893404960632,-0.12364628165960312,0.553795337677002
1761506955723186000,4.73018603515625,-0.35578301548957825,0.38442516326904297,0.3696638345718384
1761506955743342800,4.7503427734375,-0.19875961542129517,0.4378141462802887,0.3153533339500427
1761506955763499000,4.7704990234375,-0.11062625050544739,0.3400287628173828,0.2855333089828491
1761506955783656000,4.790656005859375,0.025572756305336952,0.17655372619628906,0.08104850351810455
1761506955803812000,4.81081201171875,0.20122699439525604,-0.26301711797714233,-0.13499736785888672
1761506955823968800,4.83096875,0.29892534017562866,-0.7929876446723938,-0.21889936923980713
1761506955844125000,4.851125,0.3598019778728485,-0.9754112362861633,0.08400174975395203
1761506955864281900,4.87128173828125,0.4678262770175934,-0.7379915714263916,0.2863694727420807
1761506955884437800,4.891437744140625,0.3241586685180664,-0.18499642610549927,-0.2460949718952179
1761506955904595000,4.911594970703125,0.282131165266037,-0.08470648527145386,-1.0069040060043335
1761506955924750800,4.931750732421875,0.27156326174736023,-0.6078791618347168,-1.57660710811615
1761506955944907000,4.951906982421875,0.10306448489427567,-0.9417360424995422,-1.7754298448562622
1761506955965064000,4.97206396484375,-0.05087229609489441,-0.6924680471420288,-1.6890110969543457
1761506955985219800,4.9922197265625,-0.12406046688556671,-0.12923680245876312,-1.314768671989441
1761506956005376800,5.012376708984375,0.05793105810880661,-0.237722247838974,-0.8548075556755066
1761506956025533000,5.032532958984375,0.014826357364654541,-0.2353323996067047,-0.3822669982910156
1761506956045689900,5.05268994140625,-0.02951158955693245,-0.14513720571994781,-0.0817197859287262
1761506956065846000,5.072845947265625,-0.17808116972446442,-0.1996324360370636,-0.12288817763328552
1761506956086003000,5.0930029296875,-0.25918471813201904,-0.6811183094978333,-0.1453016698360443
1761506956106158800,5.113158935546875,-0.07442069798707962,-0.7280888557434082,-0.4779500961303711
1761506956126315800,5.133315673828125,-0.07886993885040283,-0.7270092368125916,0.10246055573225021
1761506956146472000,5.153471923828125,-0.1935299038887024,-0.1788506805896759,0.8779318928718567
1761506956166628900,5.17362890625,-0.12528377771377563,0.510344386100769,1.1431604623794556
1761506956186785000,5.193784912109375,0.06748196482658386,0.9853219985961914,0.6529118418693542
1761506956206942000,5.21394189453125,0.19336852431297302,1.1384962797164917,0.09527674317359924
1761506956227098000,5.23409814453125,0.3360469341278076,1.0327262878417969,-0.1047964096069336
1761506956247254000,5.25425390625,0.3247081935405731,1.0864139795303345,0.2305576652288437
1761506956267411000,5.274410888671875,0.25513479113578796,1.349975824356079,0.776451051235199
1761506956287566800,5.29456689453125,0.26320868730545044,1.4607185125350952,1.0852015018463135
1761506956307724000,5.31472412109375,0.28915613889694214,1.2786452770233154,1.1839767694473267
1761506956327880000,5.3348798828125,0.13250410556793213,0.8042845726013184,0.7695087790489197
1761506956348037000,5.355037109375,-0.25867390632629395,0.2124706208705902,0.04149597883224487
1761506956368193000,5.375193115234375,-0.6288066506385803,-0.3762834668159485,-0.4893364906311035
1761506956388350000,5.395349853515625,-0.7044768333435059,-0.7747775912284851,-0.57927405834198
1761506956408505900,5.415505859375,-0.41807636618614197,-0.7641783356666565,-0.3842916190624237
1761506956428663000,5.4356630859375,-0.047313325107097626,-0.45147866010665894,-0.22421355545520782
1761506956448819000,5.45581884765625,0.1895366758108139,-0.25852757692337036,-0.3093239963054657
1761506956468976000,5.47597607421875,0.2074156552553177,-0.22638292610645294,-0.4243663251399994
1761506956489132000,5.496132080078125,0.14394564926624298,-0.2115890383720398,-0.42020097374916077
1761506956509289000,5.5162890625,0.16924071311950684,-0.2940180003643036,-0.20387162268161774
1761506956529444900,5.53644482421875,0.20402711629867554,-0.20940278470516205,0.04117174819111824
1761506956549600800,5.556600830078125,0.09412980079650879,-0.09573303908109665,0.23347850143909454
1761506956569758000,5.576758056640625,-0.10815145075321198,-0.13747408986091614,0.20470422506332397
1761506956589913900,5.596913818359375,-0.3758625090122223,-0.374661922454834,-0.16623444855213165
1761506956610071000,5.617071044921875,-0.5441794395446777,-0.6080774068832397,-0.8658689260482788
1761506956630227000,5.63722705078125,-0.3385838568210602,-0.5859205722808838,-1.1750915050506592
1761506956650384000,5.6573837890625,-0.16722753643989563,-0.21777711808681488,-1.309831142425537
1761506956670539800,5.677539794921875,-0.12094243615865707,0.03669730946421623,-1.699485182762146
1761506956690697000,5.697697021484375,-0.27614179253578186,-0.2773166298866272,-1.599188208580017
1761506956710852900,5.717852783203125,-0.13263677060604095,-0.10074745118618011,-0.4820941984653473
1761506956731010600,5.738010498046875,0.1277679055929184,0.8942550420761108,0.5893998742103577
1761506956751166500,5.75816650390625,0.3289684057235718,1.7879459857940674,1.361210584640503
1761506956771323400,5.778323486328125,0.3258664608001709,2.1095707416534424,1.9487271308898926
1761506956791479300,5.798479248046875,0.3634670674800873,2.2719483375549316,2.0670809745788574
1761506956811636500,5.818636474609375,0.45865732431411743,2.2047414779663086,1.7309523820877075
1761506956831792400,5.83879248046875,0.49106693267822266,1.5872154235839844,1.3340210914611816
1761506956851948500,5.858948486328125,0.5716267824172974,0.7963364720344543,1.0602848529815674
1761506956872105500,5.87910546875,0.8260442018508911,0.3065226674079895,0.9613312482833862
1761506956892261600,5.89926171875,1.0262861251831055,-0.18633076548576355,0.9691051244735718
1761506956912418300,5.919418212890625,0.8860212564468384,-0.4658809006214142,0.8239803314208984
1761506956932574500,5.939574462890625,0.4630439579486847,-0.5282729268074036,0.09903539717197418
1761506956952731400,5.9597314453125,-0.02052326872944832,-0.5148664712905884,-0.5891934633255005
1761506956972887600,5.979887451171875,-0.12666766345500946,-0.6857896447181702,-1.1100497245788574
1761506956993044500,6.00004443359375,-0.10082579404115677,-0.735645055770874,-1.2401002645492554
1761506957013200600,6.02020068359375,-0.05325337499380112,-0.4180126488208771,-1.0719977617263794
1761506957033357300,6.040357421875,-0.04887694492936134,-0.08782918751239777,-0.8037179112434387
1761506957053513500,6.060513427734375,-0.07992999255657196,0.1705828160047531,-0.44786545634269714
1761506957073670400,6.08067041015625,-0.20250031352043152,0.015818051993846893,-0.20187947154045105
1761506957093826600,6.10082666015625,-0.39889955520629883,-0.30843907594680786,-0.4889165163040161
1761506957113983500,6.1209833984375,-0.3626033067703247,-0.6357783675193787,-1.4028816223144531
1761506957134139400,6.141139404296875,-0.2326836884021759,-0.9807600378990173,-1.5532021522521973
1761506957154296300,6.16129638671875,-0.17032919824123383,-0.9530725479125977,-0.7841440439224243
1761506957174452200,6.1814521484375,-0.13031359016895294,-0.10471589863300323,-0.10710513591766357
1761506957194608400,6.2016083984375,-0.2707507312297821,0.478331595659256,-0.19584117829799652
1761506957214765300,6.221765380859375,-0.27243825793266296,0.1416177600622177,-0.16997408866882324
1761506957234921500,6.24192138671875,-0.22682054340839386,-0.17687168717384338,0.3614276051521301
1761506957255078400,6.262078369140625,-0.0663929209113121,0.23094290494918823,0.8800126314163208
1761506957275234600,6.282234619140625,0.15259741246700287,0.8542795777320862,1.262177586555481
1761506957295391200,6.30239111328125,0.2809237241744995,1.2519456148147583,1.1651278734207153
1761506957315547400,6.32254736328125,0.25143876671791077,1.2154135704040527,0.5353232026100159
1761506957335704300,6.342704345703125,0.10620042681694031,0.6394171118736267,0.1636149138212204
1761506957355860500,6.362860595703125,-0.005759224761277437,-0.39814087748527527,0.16751480102539062
1761506957376017400,6.383017333984375,0.010118331760168076,-1.0119779109954834,0.5516535639762878
1761506957396173600,6.403173583984375,0.09149648994207382,-0.7474339008331299,1.1535117626190186
1761506957416330200,6.423330322265625,0.14784958958625793,-0.22275972366333008,1.4199495315551758
1761506957436486400,6.443486328125,0.19105243682861328,-0.12014363706111908,1.0790863037109375
1761506957456643300,6.463643310546875,0.12487845122814178,-0.4048182964324951,0.23121853172779083
1761506957476799500,6.483799560546875,-0.002131709596142173,-0.7849911451339722,-0.6493944525718689
1761506957496956400,6.503956298828125,-0.16815946996212006,-0.9066043496131897,-1.250280737876892
1761506957517112600,6.524112548828125,-0.22991232573986053,-0.6628901958465576,-1.2713313102722168
1761506957537268500,6.5442685546875,-0.23351049423217773,-0.41383135318756104,-0.9518665671348572
1761506957557425400,6.56442529296875,-0.2987197935581207,-0.4501931071281433,-0.7120234370231628
1761506957577581300,6.584581298828125,-0.5575209856033325,-0.8160751461982727,-0.929221510887146
1761506957597738500,6.604738525390625,-0.8911228179931641,-1.4198023080825806,-1.7219980955123901
1761506957617894400,6.624894287109375,-0.882422924041748,-1.649918794631958,-2.165907621383667
1761506957638051600,6.645051513671875,-0.8064345121383667,-1.6178332567214966,-1.9376204013824463
1761506957658207500,6.66520751953125,-0.6930986642837524,-1.079467535018921,-1.0826778411865234
1761506957678364400,6.685364501953125,-0.23150211572647095,0.16004163026809692,-1.0750582218170166
1761506957698520300,6.705520263671875,0.036844994872808456,0.7300847768783569,-1.170054316520691
1761506957718681300,6.725681396484375,-0.04623139277100563,0.6669306755065918,-0.8667412400245667
1761506957738837200,6.745837158203125,-0.1546095311641693,0.6913731694221497,-0.648627519607544
1761506957758994400,6.765994384765625,-0.25202566385269165,0.8969875574111938,-0.1875305324792862
1761506957779150300,6.786150390625,-0.17517440021038055,1.1340508460998535,0.5128377079963684
1761506957799307300,6.806307373046875,0.31879550218582153,1.3532094955444336,0.8246473073959351
1761506957819463200,6.826463134765625,0.5965558886528015,1.3878931999206543,0.5291147828102112
1761506957839620400,6.846620361328125,0.3443462550640106,1.3554662466049194,0.2627599239349365
1761506957859776300,6.8667763671875,0.07993321865797043,0.6014633178710938,0.29338905215263367
1761506957879932200,6.88693212890625,0.0127998236566782,-0.10691644996404648,0.9438872337341309
1761506957900089300,6.90708935546875,-0.060996368527412415,-0.40058615803718567,1.4092227220535278
1761506957920245200,6.927245361328125,-0.04758535698056221,-0.5377886891365051,1.4865198135375977
1761506957940402200,6.947402099609375,-0.022289007902145386,-0.653445839881897,1.098097562789917
1761506957960558000,6.96755810546875,0.12817387282848358,-0.7549421787261963,0.5486945509910583
1761506957980715300,6.98771533203125,0.20838263630867004,-0.8073374032974243,0.10163567960262299
1761506958000871200,7.00787109375,-0.023233290761709213,-1.00413179397583,-0.11859312653541565
1761506958021028400,7.0280283203125,-0.34180933237075806,-0.8908491134643555,0.002300453372299671
1761506958041184300,7.048184326171875,-0.4574979543685913,-0.6232336759567261,0.1825851947069168
1761506958061341200,7.068341064453125,-0.5236260890960693,-0.5979962944984436,0.1955280303955078
1761506958081497000,7.0884970703125,-0.6916337609291077,-1.0141719579696655,-0.007785016670823097
1761506958101654300,7.108654296875,-1.117603063583374,-1.9233479499816895,-0.28014424443244934
1761506958121810200,7.12881005859375,-1.411903738975525,-2.215052604675293,-0.35065075755119324
1761506958141967400,7.14896728515625,-0.9631510972976685,-1.3689793348312378,-0.07412563264369965
1761506958162123300,7.169123291015625,-0.13490386307239532,-0.5981824994087219,0.17728306353092194
1761506958182280200,7.1892802734375,0.2730514109134674,0.0184781551361084,0.3373900055885315
1761506958202436000,7.20943603515625,0.08314056694507599,0.2891155481338501,0.7123250961303711
1761506958222593300,7.22959326171875,0.21339288353919983,1.1354131698608398,0.9233017563819885
1761506958242749200,7.249749267578125,0.3703804612159729,1.6541005373001099,0.8579908609390259
1761506958262905300,7.2699052734375,0.20591621100902557,1.6256794929504395,0.5587108135223389
1761506958283062300,7.290062255859375,-0.04437696933746338,1.6278358697891235,0.360293984413147
1761506958303218400,7.310218505859375,-0.03151720017194748,1.8137890100479126,0.2943895161151886
1761506958323375000,7.330375,-0.011979559436440468,1.5098990201950073,0.16490866243839264
1761506958343531300,7.35053125,0.05924202501773834,0.7845157980918884,0.21809101104736328
1761506958363688200,7.370688232421875,0.2087085247039795,0.2133503556251526,0.5479537844657898
1761506958383844000,7.390843994140625,0.35829269886016846,0.11585485190153122,0.7822972536087036
1761506958404001300,7.411001220703125,0.41842934489250183,0.35496601462364197,0.6439809799194336
1761506958424157200,7.4311572265625,0.41599950194358826,0.32537728548049927,0.3860469460487366
1761506958444314400,7.451314453125,0.5493773221969604,0.3344261050224304,0.045703619718551636
1761506958464470300,7.47147021484375,0.6627363562583923,0.23564231395721436,-0.28760722279548645
1761506958484627200,7.491627197265625,0.5743067860603333,0.05258117616176605,-0.566818356513977
1761506958504783000,7.511783203125,0.3320506811141968,-0.04354150965809822,-0.6895415782928467
1761506958524940300,7.531940185546875,0.0687924399971962,-0.08747068047523499,-0.6032750606536865
1761506958545096200,7.55209619140625,-0.05431409925222397,-0.026736587285995483,-0.5012391805648804
1761506958565253400,7.57225341796875,-0.14668706059455872,0.010303757153451443,-0.4710249900817871
1761506958585409300,7.5924091796875,-0.19314707815647125,0.11751699447631836,-0.8495230674743652
1761506958605565200,7.612565185546875,-0.2670131325721741,-0.42214837670326233,-1.58872389793396
1761506958625722000,7.63272216796875,-0.31316041946411133,-1.1957789659500122,-2.036768913269043
1761506958645878300,7.652878173828125,-0.3010754883289337,-1.277610182762146,-1.8337618112564087
1761506958666035200,7.67303515625,0.22952042520046234,-0.2238118052482605,-1.2261083126068115
1761506958686191400,7.69319140625,0.6239833831787109,0.6108924150466919,-1.1861251592636108
1761506958706348300,7.713348388671875,0.09219244122505188,0.28299427032470703,-1.4219170808792114
1761506958726504000,7.73350390625,-0.3557339608669281,-0.04686175659298897,-0.5063793659210205
1761506958746660900,7.753660888671875,-0.24536462128162384,0.6523949503898621,0.8106713891029358
1761506958766816800,7.773816650390625,0.15419049561023712,1.6097043752670288,2.026434898376465
1761506958786974000,7.793973876953125,0.14337632060050964,2.4226388931274414,2.6148104667663574
1761506958807129900,7.8141298828125,0.1518065631389618,2.148132085800171,2.5279905796051025
1761506958827287000,7.834287109375,0.08784227818250656,1.2427464723587036,1.472000241279602
1761506958847443000,7.85444287109375,-0.20159168541431427,-0.04435889050364494,0.7471325993537903
1761506958867600000,7.874599853515625,-0.14328765869140625,-0.8457558751106262,0.970966100692749
1761506958887755800,7.894755859375,-0.08801284432411194,-0.8690859079360962,1.7181735038757324
1761506958907913000,7.914912841796875,-0.03663714602589607,-0.3761720061302185,1.8184254169464111
1761506958928068900,7.93506884765625,0.09509897977113724,0.16420330107212067,1.0009742975234985
1761506958948226000,7.95522607421875,0.3724468946456909,-0.01761501096189022,-0.2082756906747818
1761506958968382000,7.9753818359375,0.5702465176582336,-0.690880537033081,-1.346287488937378
1761506958988537900,7.995537841796875,0.46565866470336914,-1.4636908769607544,-2.0586869716644287
1761506959008694000,8.015694091796876,0.20247964560985565,-1.329533338546753,-2.0611937046051025
1761506959028850700,8.0358505859375,0.0600227415561676,-0.24196888506412506,-1.0588557720184326
1761506959049006800,8.0560068359375,0.17126843333244324,-0.0064092110842466354,-0.3465963304042816
1761506959069163800,8.076163818359374,0.06784500181674957,-0.5040673613548279,0.21245282888412476
1761506959089320000,8.09631982421875,0.09958712756633759,-0.3016339838504791,-0.47222214937210083
1761506959109476900,8.116476806640625,0.12317916005849838,-0.26272502541542053,-1.518532156944275
1761506959129633000,8.136633056640624,0.010451067239046097,-0.8026467561721802,-1.9333128929138184
1761506959149789000,8.156788818359376,0.2947762608528137,-0.32057952880859375,-1.7407397031784058
1761506959169945900,8.17694580078125,0.5338716506958008,0.36414510011672974,-1.3142402172088623
1761506959190101800,8.197101806640624,0.2802601754665375,0.8096745610237122,-0.7974550127983093
1761506959210259000,8.217259033203124,-0.00021221814677119255,1.1585522890090942,-0.15844306349754333
1761506959230414800,8.237414794921875,-0.19614160060882568,1.6129179000854492,0.7038080096244812
1761506959250572000,8.257572021484375,-0.09518365561962128,2.340991735458374,1.724782943725586
1761506959270728000,8.27772802734375,0.032039109617471695,2.5566518306732178,2.4151995182037354
1761506959290884900,8.297884765625,-0.04384787008166313,1.6926621198654175,2.179368495941162
1761506959311040800,8.318040771484375,0.05247877165675163,0.19155243039131165,1.7774765491485596
1761506959331198000,8.338197998046875,0.509613573551178,-0.9645870327949524,1.4224518537521362
1761506959351353900,8.358353759765626,0.5664153695106506,-1.283388614654541,1.37324857711792
1761506959371511000,8.378510986328125,0.6529862880706787,-1.055269718170166,1.3171695470809937
1761506959391667000,8.3986669921875,0.6370962262153625,-0.6589846014976501,1.0833230018615723
1761506959411826000,8.418825927734375,0.17583243548870087,-0.3481351435184479,0.46667227149009705
1761506959431981800,8.43898193359375,-0.0767928957939148,-0.3082793354988098,-0.5446122884750366
1761506959452139000,8.459138916015625,0.029312288388609886,-0.22085577249526978,-1.7290551662445068
1761506959472295000,8.479294921875,0.13018250465393066,-0.2214294821023941,-2.5582032203674316
1761506959492451800,8.499451904296874,0.16181986033916473,-0.31435438990592957,-2.6770827770233154
1761506959512607700,8.519607666015625,0.0828225240111351,-0.006735782604664564,-2.1499574184417725
1761506959532765000,8.539764892578125,-0.10538255423307419,0.4464748799800873,-1.212166666984558
1761506959552920800,8.5599208984375,-0.24982355535030365,0.8713746666908264,-0.022854086011648178
1761506959573078000,8.580078125,-0.11387991160154343,0.6633429527282715,0.6324766278266907
1761506959593234000,8.60023388671875,-0.31274017691612244,-0.4313414394855499,0.707991361618042
1761506959613390800,8.620390869140625,-0.5778244733810425,-1.5636309385299683,-0.031083568930625916
1761506959633546800,8.640546630859374,-0.8360984325408936,-2.0449531078338623,-0.3884875476360321
1761506959653704000,8.660703857421876,-1.4048197269439697,-1.825820803642273,0.13267379999160767
1761506959673859800,8.68085986328125,-1.3064477443695068,-0.7698208093643188,0.7430309653282166
1761506959694017000,8.70101708984375,-1.0011303424835205,0.4015199840068817,0.6303836107254028
1761506959714173000,8.7211728515625,-0.7101717591285706,1.1484812498092651,0.22874701023101807
1761506959734326000,8.741325927734374,-0.44801807403564453,1.114205241203308,0.37849748134613037
1761506959754482200,8.761482177734376,-0.19945958256721497,0.8677978515625,0.8884720206260681
1761506959774639000,8.78163916015625,0.12590765953063965,0.8773905038833618,1.0142948627471924
1761506959794795300,8.801795166015625,0.14014704525470734,0.7256510257720947,0.610090970993042
1761506959814952200,8.8219521484375,0.11819299310445786,0.37462708353996277,0.056882571429014206
1761506959835108400,8.8421083984375,0.2344222515821457,-0.1688610017299652,-0.1318068653345108
1761506959855264300,8.86226416015625,0.44032374024391174,-0.6100274324417114,-0.006775456480681896
1761506959875421200,8.882421142578124,0.6085523366928101,-0.5707409381866455,0.2789436876773834
1761506959895577000,8.9025771484375,0.5033592581748962,-0.1366979032754898,0.8569867014884949
1761506959915734000,8.922734130859375,0.32376542687416077,0.38038474321365356,1.4958069324493408
1761506959935890200,8.94289013671875,0.31971675157546997,0.8202119469642639,1.3661237955093384
1761506959956047000,8.963047119140626,0.323244571685791,0.7220906615257263,0.3671995997428894
1761506959976203300,8.983203369140625,0.06714896112680435,0.11609092354774475,-0.7700793743133545
1761506959996360000,9.00335986328125,-0.2154827117919922,-0.3264756500720978,-1.521586298942566
1761506960016516000,9.02351611328125,-0.32978081703186035,-0.4716777801513672,-1.7398662567138672
1761506960036673000,9.043673095703125,-0.347354918718338,-0.3471490442752838,-1.577949047088623
1761506960056829200,9.0638291015625,-0.3625083267688751,-0.423715740442276,-1.005287766456604
1761506960076986000,9.083986083984374,-0.34990134835243225,-0.6203102469444275,-0.10476554930210114
1761506960097142300,9.104142333984376,-0.5521017909049988,-1.0811290740966797,0.5058886408805847
1761506960117299200,9.12429931640625,-0.9616994261741638,-2.258737325668335,-0.025614382699131966
1761506960137455000,9.144455078125,-0.9120266437530518,-2.4960696697235107,-0.6030455827713013
1761506960157612000,9.164612060546874,-0.5995712280273438,-1.6228182315826416,0.5592047572135925
1761506960177768200,9.184768310546875,-0.05159280449151993,-0.3005546033382416,1.340020775794983
1761506960197925000,9.204925048828125,0.12463773041963577,0.5615052580833435,1.1919121742248535
1761506960218081300,9.225081298828124,0.08068247884511948,0.8726487159729004,0.7139605283737183
1761506960238237200,9.2452373046875,0.1398269683122635,0.7836731672286987,0.3624623715877533
1761506960258394400,9.265394287109375,-0.004766574129462242,0.3423389196395874,0.2499590367078781
1761506960278550300,9.28555029296875,-0.0006130299298092723,0.2874020040035248,0.21346037089824677
1761506960298707200,9.305707275390626,0.1755051463842392,0.628436803817749,0.23448222875595093
1761506960318863000,9.325863037109375,0.40344905853271484,0.8203141093254089,0.18386310338974
1761506960339020300,9.346020263671875,0.5007256269454956,0.4457051157951355,-0.005433244630694389
1761506960359176200,9.36617626953125,0.4534282684326172,0.006606550887227058,0.0021101990714669228
1761506960379333400,9.38633349609375,0.45556342601776123,-0.08302289992570877,0.09043693542480469
1761506960399489300,9.4064892578125,0.5082519054412842,0.15300777554512024,0.08968552201986313
1761506960419646200,9.426646240234374,0.5439822673797607,0.18311966955661774,-0.17013801634311676
1761506960439802000,9.446802001953126,0.5683493614196777,0.07242309302091599,-0.6460900902748108
1761506960459959300,9.466959228515625,0.4796227514743805,-0.07430057972669601,-1.17483389377594
1761506960480115200,9.487115234375,0.34602445363998413,-0.23740363121032715,-1.3783764839172363
1761506960500272400,9.5072724609375,0.23100343346595764,-0.10303972661495209,-1.082177758216858
1761506960520428300,9.52742822265625,0.19329677522182465,0.2795533835887909,-0.5343680381774902
1761506960540585200,9.547585205078125,0.22723788022994995,0.6878944039344788,-0.31519731879234314
1761506960560741000,9.5677412109375,0.3513351380825043,0.6582698822021484,-0.1919587254524231
1761506960580897000,9.58789697265625,0.46272367238998413,0.26481762528419495,-0.3078029751777649
1761506960601054200,9.60805419921875,0.2845810651779175,-0.6499890089035034,-0.6314015984535217
1761506960621210000,9.628210205078124,-0.04397570341825485,-1.3568642139434814,-1.1347675323486328
1761506960641367300,9.6483671875,-0.26221245527267456,-1.9069647789001465,-1.2281780242919922
1761506960661523200,9.668523193359375,0.05540263280272484,-1.4650366306304932,-0.7477110028266907
1761506960681680100,9.68868017578125,0.2274225503206253,-0.4689095914363861,-0.6803209781646729
1761506960701836000,9.7088359375,0.010052685625851154,0.08315470069646835,-0.6688061952590942
1761506960721993200,9.7289931640625,-0.029615119099617004,0.3009580075740814,-0.007289848290383816
1761506960742149400,9.7491494140625,-0.04228958114981651,0.7377537488937378,0.3515091836452484
1761506960762306300,9.769306396484374,0.03238287940621376,0.8383429050445557,0.3560350239276886
1761506960782462500,9.78946240234375,-0.07544006407260895,0.5896356701850891,0.27240800857543945
1761506960802619100,9.809619140625,-0.13615667819976807,0.4430524706840515,0.3722454905509949
1761506960822775300,9.829775390625,-0.12597952783107758,0.20453430712223053,0.7912029027938843
1761506960842932200,9.84993212890625,0.3191482424736023,-0.10772546380758286,1.3208000659942627
1761506960863088400,9.87008837890625,0.6239396333694458,-0.01830850914120674,1.1635406017303467
1761506960883244300,9.890244384765625,0.24041442573070526,-0.32965943217277527,0.8051173686981201
1761506960903401200,9.910401123046874,-0.1468464732170105,-0.8696706295013428,0.7832762598991394
1761506960923557400,9.930557373046875,-0.2131003588438034,-0.8645502924919128,0.8400734663009644
1761506960943714000,9.950714111328125,-0.009169533848762512,-0.573280930519104,0.6482686996459961
1761506960963870200,9.9708701171875,0.12251703441143036,-0.2920810878276825,0.46142083406448364
1761506960984027100,9.991027099609376,0.07485482096672058,-0.22219456732273102,0.41787081956863403
1761506961004183300,10.011183349609375,0.03738453984260559,-0.20353375375270844,0.48840153217315674
1761506961024340200,10.03134033203125,-0.0245515089482069,-0.26742419600486755,0.6629390120506287
1761506961044496400,10.051496337890624,0.03526616096496582,-0.29227206110954285,0.8388916254043579
1761506961064653000,10.071653076171875,0.2218136340379715,-0.20293983817100525,0.5810710787773132
1761506961084809200,10.091809326171875,0.3249843418598175,-0.5387389063835144,0.11895690858364105
1761506961104966100,10.111966064453124,0.36422356963157654,-0.7900478839874268,-0.42702510952949524
1761506961125122300,10.132122314453126,0.369242399930954,-0.6048048734664917,-1.011376142501831
1761506961145279200,10.152279296875,0.4567969739437103,0.028402170166373253,-1.2462999820709229
1761506961165435400,10.172435302734375,0.878450870513916,0.8235402703285217,-1.5680785179138184
1761506961185591300,10.19259130859375,0.9654414653778076,0.5684337615966797,-1.1697628498077393
1761506961205748200,10.212748291015625,0.8254293203353882,0.351220041513443,-0.7052745819091797
1761506961225904000,10.232904052734375,0.831534206867218,0.3630429208278656,-0.7163994908332825
1761506961246061300,10.253061279296874,0.8247353434562683,0.2198537141084671,-0.9622164368629456
1761506961266217200,10.27321728515625,0.6599071025848389,0.18408185243606567,-1.1087586879730225
1761506961286374400,10.29337451171875,0.5636427998542786,0.26771339774131775,-0.6595863699913025
1761506961306530300,10.3135302734375,0.4633508324623108,0.39680489897727966,-0.06998802721500397
1761506961326687200,10.333687255859376,0.3379548192024231,0.4174319803714752,0.2775839567184448
1761506961346843100,10.353843017578125,0.21221747994422913,0.3720264434814453,0.41263583302497864
1761506961367000300,10.374000244140625,0.06855950504541397,0.2361874282360077,0.4900263249874115
1761506961387156200,10.39415625,-0.06054970994591713,0.09772439301013947,0.583009660243988
1761506961407313400,10.4143134765625,-0.2043287456035614,-0.12503528594970703,0.6972252726554871
1761506961427469300,10.43446923828125,-0.3015608787536621,-0.19982969760894775,0.7206168174743652
1761506961447625200,10.454625244140624,-0.38769617676734924,-0.3529197871685028,0.6157885193824768
1761506961467782100,10.4747822265625,-0.476006418466568,-0.5273777842521667,0.43851226568222046
1761506961487938000,10.49493798828125,-0.5844048261642456,-0.6881623268127441,0.4007178843021393
1761506961508095200,10.51509521484375,-0.6537788510322571,-0.7233449816703796,0.41540324687957764
1761506961528251100,10.535251220703126,-0.8004510998725891,-0.7475097179412842,0.49926698207855225
1761506961548408300,10.555408203125,-0.6821237206459045,-0.37599119544029236,0.32597261667251587
1761506961568564200,10.575564208984375,-0.1425905078649521,0.5889291763305664,-0.9462022185325623
1761506961588721200,10.59572119140625,-0.12686453759670258,0.7070883512496948,-1.907670497894287
1761506961608877000,10.615876953125,-0.22250108420848846,0.2153603732585907,-1.3015248775482178
1761506961629034200,10.6360341796875,-0.21873219311237335,0.14554838836193085,-0.5553221702575684
1761506961649190100,10.656190185546874,-0.2084028273820877,0.18607988953590393,-0.618120551109314
1761506961669347300,10.676347412109376,-0.26636114716529846,0.1787920892238617,-0.6056874394416809
