time,seconds_elapsed,z,y,x
1761507138264992800,0.07699267578125,0.6133581080704927,0.006501344718039035,-0.7215238837569952
1761507138285149700,0.097149658203125,0.9263654883444309,0.22634265777766704,-1.0468437061805278
1761507138305305600,0.1173056640625,1.3578852662742138,0.22887071495056152,-1.9064862400129436
1761507138325462500,0.137462646484375,0.8190250575661658,0.4451245249122381,-1.389475313410908
1761507138345619700,0.15761962890625,1.4108850350558757,0.7739142884686588,-1.0829006695982069
1761507138365775600,0.177775634765625,0.6278899067699909,0.9708087334439158,-0.7048158369969576
1761507138385932800,0.197932861328125,-0.5881225445270538,0.867170079793036,0.8005737473353743
1761507138406089500,0.21808935546875,-0.36383331214785575,0.5615618698596954,-0.06431384754367173
1761507138426245600,0.23824560546875,0.25692308948040005,0.4385457310438156,-1.2520507100142537
1761507138446402600,0.258402587890625,-1.2651871088325977,0.19989479583501815,-0.9944296283323317
1761507138466559700,0.278559814453125,0.09741700265705584,1.074750753955543,-1.5828613118737935
1761507138486715600,0.298715576171875,0.7910545161008834,0.14237784188985825,-0.9792039290845393
1761507138506872600,0.31887255859375,0.28982056595385075,-0.06840571996718645,-0.38368528295680876
1761507138527028500,0.339028564453125,1.1482067430496214,-0.15458017472848296,0.2604755212649703
1761507138547185700,0.359185546875,1.3003788337230682,-0.5437149552628397,1.1615003782562912
1761507138567342600,0.379342529296875,1.368390293675661,-1.0797526538960636,0.6660127166762948
1761507138587498800,0.399498779296875,2.080086610901356,-0.9399935431372374,-0.20596300983279942
1761507138607655400,0.419655517578125,1.7144108857572078,-0.1501337167136371,-1.5661211894750595
1761507138627812600,0.4398125,1.9514777666449545,-0.0911538506090641,-1.8991417224690317
1761507138647968500,0.459968505859375,2.980581744930148,-1.0729687659095972,-1.5270907632045447
1761507138668125700,0.480125732421875,3.4141683922618626,-1.9006315226353703,-0.7728010665297508
1761507138688282600,0.50028271484375,1.500063201677799,-2.786324078199267,0.5823053826808929
1761507138708438500,0.5204384765625,-2.1935037312448022,-2.906301579971611,1.8219006618782876
1761507138728595700,0.540595703125,-6.046429451474547,-0.4727558244857937,0.9050186028026044
1761507138748752600,0.560752685546875,-13.309642923140524,1.7443875063478946,0.5458622694898396
1761507138768908800,0.58090869140625,-14.216542663514613,5.258527846446633,1.0862604283548891
1761507138789065500,0.6010654296875,-12.397252184134722,3.9531197863847014,0.5882245435968041
1761507138809221600,0.6212216796875,-13.729308597147464,5.093302797454595,-0.563460616153106
1761507138829378600,0.641378662109375,-14.166452644699811,3.6636096015542745,1.1276718314778058
1761507138849535700,0.66153564453125,-10.111973840034008,1.4973957360342145,1.0739883912809192
1761507138869691600,0.681691650390625,-6.376560400506854,-0.17272870262041687,1.3520393167249858
1761507138889848800,0.701848876953125,-2.5807681878626343,-0.8518819828335196,1.299501612497121
1761507138910005500,0.722005615234375,1.169418457904458,-2.2137390022829173,0.6428523519717156
1761507138930161700,0.74216162109375,4.298496819865703,-2.6158599595099687,-0.6205033036500215
1761507138950318600,0.762318603515625,6.615252252247929,-2.675419525198638,-2.2212856182701883
1761507138970475800,0.782475830078125,8.255531733867526,-2.78656080956459,-3.4580671552211046
1761507138990631700,0.802631591796875,9.154183285856247,-4.126414452324807,-3.72370838868618
1761507139010788600,0.82278857421875,10.221824207806586,-4.747965803723037,-2.825378323736787
1761507139030945500,0.842945556640625,9.769225986012815,-5.708423239022493,-1.6350053406089544
1761507139051101700,0.863101806640625,8.9263091807276,-5.265568997129797,-1.4776763055637478
1761507139071258600,0.883258544921875,8.299820957449079,-5.328872717782855,-1.685245289288461
1761507139091415600,0.90341552734375,7.872958065414428,-4.405963799633086,-1.3344719497218727
1761507139111571500,0.923571533203125,7.08543815318048,-4.278375530596077,-0.950287631201744
1761507139131728600,0.943728759765625,6.286167012876271,-4.085364356794953,-1.0261863372728228
1761507139151884500,0.963884521484375,5.74050764554739,-4.121020484326779,-1.0934162914589047
1761507139172041700,0.984041748046875,5.532749861252308,-5.0129889052897685,-1.3350517954364418
1761507139192198700,1.00419873046875,4.697475095152854,-3.411800786347687,-1.3388900584250687
1761507139212354600,1.0243544921875,3.338337782990932,-3.5638860755205153,-0.6669850688397884
1761507139232511500,1.044511474609375,2.353016247808933,-3.7492706999659537,0.6868266643851995
1761507139252668700,1.064668701171875,-0.6177145497143268,-3.7593943268343804,3.72994669855386
1761507139272824600,1.084824462890625,-8.217504493290186,-3.9378248943582177,8.661438347113132
1761507139292981500,1.1049814453125,-16.955282568240165,-0.2896079461164772,11.351166091388464
1761507139313138700,1.125138671875,-22.224625823211667,8.008485310757159,8.639484289458393
1761507139333294600,1.145294677734375,-26.698369319868085,14.122071066659688,4.900428401775658
1761507139353451800,1.16545166015625,-24.71048986802101,15.151128867715597,1.784742020829022
1761507139373608700,1.185608642578125,-19.22689245247245,11.883755549263954,-0.557485706461966
1761507139393764600,1.2057646484375,-11.216886215758324,7.923363141527772,-1.450941151112318
1761507139413921500,1.225921630859375,-3.275834272804856,3.556195813278854,-1.3827680708572267
1761507139434077700,1.24607763671875,2.1610615973234175,0.4130702212646603,-1.227149639122188
1761507139454234600,1.266234619140625,5.784890977153181,-1.3296490596100687,-1.2089523036524652
1761507139474391800,1.286391845703125,8.674563786146043,-1.789471387438476,-1.7752438323825597
1761507139494547700,1.306547607421875,10.407028799510002,-1.3244906539335846,-3.1284903329402205
1761507139514704600,1.32670458984375,11.59343755518198,-0.9161418351676315,-3.804110251395404
1761507139534861600,1.346861572265625,12.97885614054799,-0.6790618025373667,-3.815233410695195
1761507139555017700,1.367017822265625,13.129710718882084,-1.5224783009730278,-3.2795433564558625
1761507139575174700,1.387174560546875,12.41299452766776,-2.206233302827924,-2.7071619864180683
1761507139595331600,1.40733154296875,11.156618501800297,-2.7827988266825674,-2.104886997897923
1761507139615487500,1.427487548828125,10.044386742973327,-2.6598355870977044,-2.032742383663356
1761507139635644700,1.447644775390625,9.140081695267558,-2.371221474324167,-2.015297035604715
1761507139655801600,1.467801513671875,8.20869457936883,-2.3375660190902647,-1.9281798931658267
1761507139675957800,1.487957763671875,7.196809446910024,-2.652983821506798,-2.3490908910587427
1761507139696114400,1.508114501953125,6.632026861438154,-2.6730694549411536,-2.7451848430812356
1761507139716270600,1.5282705078125,5.460763067927957,-2.500972474353015,-2.493798052679002
1761507139736427500,1.548427490234375,3.836694131875038,-1.974274997125566,-1.6664020571306346
1761507139756584700,1.568584716796875,2.640303495892882,-0.9312933001354337,-1.0658107839137314
1761507139776740600,1.58874072265625,-0.3582622340172529,-1.8287201326347886,2.4480507392436266
1761507139796897500,1.6088974609375,-8.467381755912303,-1.1074541691616178,5.478397508817911
1761507139817054700,1.6290546875,-18.378972139811516,2.3046773104451597,6.016365737122297
1761507139837210600,1.649210693359375,-25.03943774474859,11.93247661781311,1.5967010366559027
1761507139857367800,1.669367919921875,-26.280066750907896,14.30916366406679,-0.7688849159993231
1761507139877524700,1.689524658203125,-21.69940251019001,11.459721158653497,-1.5727372466139495
1761507139897684200,1.709684326171875,-16.228920596802233,6.0268146504223346,1.0096998973742126
1761507139917841400,1.72984130859375,-10.561167221820353,0.46289252905398603,2.247600209221989
1761507139937998600,1.74999853515625,-4.98853543203473,-2.008755066615343,1.7324284807458519
1761507139958154500,1.770154541015625,-0.8281938679277896,-3.1678307019427416,1.09173243002519
1761507139978311400,1.7903115234375,3.0738591635644434,-3.4735780280858277,0.3825824362814426
1761507139998467300,1.81046728515625,6.337088806340098,-3.821772457075119,-0.29415011959075926
1761507140018624500,1.83062451171875,8.37339180509448,-4.316434627616405,-1.025453346823156
1761507140038781400,1.850781494140625,9.8577489035964,-4.579790965014696,-2.371543253624439
1761507140058937300,1.870937255859375,10.853245795834065,-5.686441708838939,-2.206714218212664
1761507140079094500,1.891094482421875,10.795682080137729,-6.62120093151927,-1.3241304423190652
1761507140099251500,1.91125146484375,10.257834263342618,-6.875770735871791,-0.6221506324656307
1761507140119407400,1.931407470703125,9.585483868077397,-6.519154515495896,0.014750848277658223
1761507140139564500,1.951564453125,8.174204865267873,-4.671244090831279,0.4506412425071001
1761507140159721500,1.971721435546875,7.271971947661042,-5.131765506839752,0.3495135487638414
1761507140179877600,1.991877685546875,6.074429219034314,-4.292411070211231,-0.0888119636580348
1761507140200034300,2.012034423828125,4.545899801328778,-2.2417437382787466,0.04523468773812055
1761507140220191500,2.03219140625,4.304198246377706,-1.7563661134332418,-0.332704014390707
1761507140240347400,2.052347412109375,3.9909646561324594,-1.2493632244959474,-0.8689999255686998
1761507140260504600,2.072504638671875,3.2462083653479814,-1.1822009287185966,-0.20653291867524384
1761507140280661200,2.0926611328125,-0.49918753901123997,-1.2297723888412118,1.8827225025877354
1761507140300817400,2.1128173828125,-6.273773395249247,-0.6228459943186492,4.27368883408457
1761507140320974300,2.132974365234375,-11.938009702020883,-0.7435336171217263,6.439160941326618
1761507140341130500,2.153130615234375,-18.78939535369873,-0.2471219908309169,7.561926953649521
1761507140361287400,2.173287353515625,-24.63424950890541,4.508213337013125,2.8910224700361487
1761507140381444400,2.1934443359375,-22.851927700960633,6.936603682497143,-1.3564501189045608
1761507140401600300,2.213600341796875,-16.236210753810404,5.775670728865266,-1.2592146102942525
1761507140421757400,2.23375732421875,-10.353612851142882,4.048496807646751,0.9449011158578098
1761507140441914400,2.253914306640625,-3.6420126867741343,1.2489897150084375,2.892015864987671
1761507140462070500,2.274070556640625,2.0277099424540994,-0.5767281670704484,2.2016873299613593
1761507140482227200,2.294227294921875,4.97218109408319,-0.5246273929551244,0.19626769137904046
1761507140502384400,2.31438427734375,7.102905420809984,0.04274170187860727,-1.4148761505186558
1761507140522540300,2.334540283203125,9.160748051199317,0.29534685509465636,-2.4989330774798986
1761507140542697500,2.354697509765625,10.641199958956241,0.15034750559478996,-2.879958347447216
1761507140562854700,2.374854736328125,11.493168670225142,-0.3528063066989183,-2.2889194770820436
1761507140583010600,2.395010498046875,11.492290718346833,-0.9270959945760667,-1.2380594479322433
1761507140603167500,2.41516748046875,11.133963602399826,-1.9476399420477448,-0.3456758702971041
1761507140623324400,2.435324462890625,10.847685823619365,-2.244940634623915,-0.24316943554654716
1761507140643480600,2.45548046875,10.19634372959137,-2.1353854504056273,-0.021302242682501672
1761507140663637500,2.475637451171875,9.89590532351136,-2.1447852930441496,0.1880994363620877
1761507140683793700,2.495793701171875,9.197458948481083,-1.6169617343962193,0.28712592004239557
1761507140703950300,2.515950439453125,8.107994901779293,-1.0896147072188556,0.3979798753669485
1761507140724107500,2.536107421875,7.116392094370722,-0.5685204202933236,0.5760852295244112
1761507140744263400,2.556263427734375,6.647500324901938,-0.34665582124516364,0.6867538914099335
1761507140764420600,2.576420654296875,5.770094974559545,-0.026453378367982804,0.5692529358189553
1761507140784577300,2.596577392578125,3.219499806642532,-0.5228549033898859,0.9388585477579384
1761507140804733400,2.6167333984375,-1.5661580143541096,-0.7852465604744852,2.1309781553573903
1761507140824890400,2.636890380859375,-8.994387276175617,-1.0247066201090813,3.493079431891441
1761507140845047600,2.657047607421875,-18.683091864752768,-0.43487573729418216,4.40954487299025
1761507140865203500,2.677203369140625,-27.233087606465816,4.6062300591289995,0.6194895965628325
1761507140885360400,2.6973603515625,-29.321563275527954,8.879680700543522,-3.505094571594894
1761507140905517000,2.71751708984375,-24.721626179063318,8.84943461536169,-3.893957111059129
1761507140925673200,2.737673095703125,-17.545072169196605,5.3123991373658175,-1.3447102890111504
1761507140945830100,2.757830078125,-11.682516353082656,2.041020821056515,1.2050877371788025
1761507140965987300,2.7779873046875,-6.398852896335721,-0.39337537724617866,1.7687011327408253
1761507140986143200,2.798143310546875,-2.2273913877993823,-1.356112995904684,0.8818024893227964
1761507141006300200,2.818300048828125,1.1389081688284872,-1.264740534108877,-0.3916277663938701
1761507141026457000,2.83845703125,4.497483853206038,-0.9254526112832129,-1.629951564350724
1761507141046613200,2.85861328125,8.20158620866835,-1.322559685871005,-2.4525746464088556
1761507141066770200,2.878770263671875,11.125200450229643,-1.7358426731035113,-2.534220371699333
1761507141086926300,2.89892626953125,12.930428501987457,-2.346461711598933,-2.2309958420321343
1761507141107083000,2.9190830078125,13.463729907524584,-2.6904572275936602,-1.6397973971910773
1761507141127240200,2.939240234375,13.333909933912754,-3.4472032313793894,-0.9262361628763377
1761507141147396000,2.95939599609375,12.701009505504368,-3.682831019374728,-0.601491583057493
1761507141167553300,2.97955322265625,11.823407171285151,-3.5512744312286375,-0.5068479906365275
1761507141187710000,2.9997099609375,10.826275955843926,-3.0485318300843236,-0.43647316255345936
1761507141207866000,3.0198662109375,9.656373513814806,-2.4827578954875467,-0.579311023170501
1761507141228023000,3.04002294921875,8.0220795363456,-2.0133435634493826,-0.8852891623947768
1761507141248180200,3.06018017578125,6.52338002423644,-1.1988965543884784,-1.266928399541974
1761507141268336000,3.080336181640625,5.5649459114581346,-1.0365873197779059,-1.6689941194504498
1761507141288493000,3.1004931640625,3.3527982700198886,-0.5427391690332443,-0.9389015101168304
1761507141308650200,3.120650146484375,-0.8813631480574607,-0.7870218265186995,0.9123708652615546
1761507141328806100,3.14080615234375,-7.088932425037026,-0.47061062915064394,1.8423698878027497
1761507141348963000,3.160963134765625,-13.11973877544403,0.49827064336203036,1.886041710138321
1761507141369120000,3.1811201171875,-18.189450269430875,2.9909052782848478,2.142442237049341
1761507141389276000,3.20127587890625,-22.367136936092376,5.503094727700948,1.902912180918455
1761507141409433000,3.22143310546875,-22.734431786870957,6.919307095259428,0.42456908200904725
1761507141429590300,3.24159033203125,-18.94538554135561,6.434305902510881,-0.653728916099295
1761507141449746200,3.26174609375,-14.580704476964472,4.110576539462804,0.17642682648599148
1761507141469903000,3.281903076171875,-8.857495756742358,1.6764587562426925,0.7279658264379948
1761507141490060000,3.30206005859375,-3.0742338420957327,-0.17194401851613073,0.6323154681272805
1761507141510216200,3.32221630859375,1.6033435434103012,-1.1897436722483485,-0.09848013837654143
1761507141530373000,3.342373046875,5.163168360841274,-1.3683572681888938,-0.8852874088291078
1761507141550529300,3.362529296875,8.012076028725504,-1.4539952779859304,-1.3302125387117265
1761507141570686200,3.382686279296875,10.145255347388982,-1.62830876557976,-1.302429482642561
1761507141590843100,3.402843017578125,11.55854159836769,-1.8048118721723556,-0.9587289310064167
1761507141610999000,3.4229990234375,12.257082665944099,-2.3211162579402327,-0.24181246797963976
1761507141631156200,3.44315625,12.431508674001693,-2.897538720062375,0.30624424281455576
1761507141651313200,3.463313232421875,11.913159338402748,-3.3016280547529457,0.4161247134644538
1761507141671469300,3.48346923828125,10.904995856815576,-2.9902380465477703,0.38475298525355756
1761507141691626000,3.5036259765625,10.053720388507843,-2.5626120611861345,-0.04701762563213706
1761507141711783200,3.523783203125,9.118822634139656,-1.9629174445480106,-0.48519269673265514
1761507141731939000,3.54393896484375,8.053632027950883,-1.5412936222106217,-0.7317552818488329
1761507141752096300,3.56409619140625,6.773967480954528,-0.9557404897801578,-1.057114121108502
1761507141772253000,3.5842529296875,5.817672718292474,-0.5808212816029786,-1.5354944344125687
1761507141792409000,3.6044091796875,4.5646986098229885,-0.6810289378918707,-1.214680033649504
1761507141812566000,3.62456591796875,1.4799357749283313,-1.0142439705446362,-0.07547163976542651
1761507141832723200,3.64472314453125,-3.5086166082412,-1.4433992113001644,1.4546034730121493
1761507141852879000,3.664879150390625,-9.630402621734142,-1.4047319192536174,2.5031536177843807
1761507141873036000,3.6850361328125,-17.05736347105503,-1.3507294031701982,4.421778039358556
1761507141893193200,3.705193115234375,-24.430265397930143,3.412938558205962,1.5586476387239991
1761507141913345000,3.725344970703125,-26.68439457052946,5.311398435890674,-1.7662775588557122
1761507141933502000,3.745501953125,-24.344995344662664,6.200907481002807,-4.165898029190302
1761507141953659100,3.7656591796875,-20.415666183710098,5.136100321173668,-2.4866788683235646
1761507141973815000,3.78581494140625,-14.074935221475362,3.268290433296561,0.3019425270326435
1761507141993972000,3.805971923828125,-7.137123332232236,1.728396887142211,1.1477086573343724
1761507142014129200,3.826129150390625,-1.4272382039636373,0.9973895010512321,0.5881353309433907
1761507142034285000,3.84628515625,2.967511835476756,0.7059010018851608,-0.8893422371778636
1761507142054442200,3.866442138671875,6.925248175746202,0.4015004141759127,-2.431883302166313
1761507142074599000,3.886598876953125,10.520018049830197,-0.33884076358005405,-2.93461465126425
1761507142094754800,3.9067548828125,13.422115456110237,-1.1502342302892357,-3.2350714697837826
1761507142114912000,3.926912109375,14.855253239506482,-2.1178991858147085,-3.1870909904688594
1761507142135068000,3.94706787109375,15.35326939665079,-3.316663126799464,-3.6024443542346356
1761507142155225000,3.96722509765625,14.810435608136652,-3.502567391204834,-4.095492075316607
1761507142175382000,3.987382080078125,13.41144325544834,-3.194639506152272,-3.8397108493477106
1761507142195537200,4.007537109375,11.826362513959408,-2.8677833410069344,-3.538731468258798
1761507142215693800,4.02769384765625,10.587484735381603,-2.1581372343093155,-3.6467242254659533
1761507142235850000,4.04785009765625,9.90650036728382,-1.0771940554544328,-3.690247725372016
1761507142256007000,4.0680068359375,9.459258119565249,-0.3693647889204323,-3.5425668086379765
1761507142276163000,4.0881630859375,8.375735153350233,0.477680019547604,-2.7508991290748117
1761507142296320000,4.108320068359375,6.742063107171655,0.521388922490552,-1.7887229071587323
1761507142316477200,4.128477294921875,3.564580487525463,-0.3465074988156557,-0.09901303967684506
1761507142336633000,4.148633056640625,-3.5179169360280036,-1.2439964367657899,2.837039535436034
1761507142356790000,4.1687900390625,-12.014400867784023,-1.4249194056272505,4.38880720538795
1761507142376947200,4.188947265625,-19.393215818095207,-2.4363434964455664,6.35991263256669
1761507142397103000,4.20910302734375,-27.28585824266672,2.6870886279433965,4.655424298147857
1761507142417260300,4.22926025390625,-29.864867019641398,4.1736444055333735,1.8842137640587984
1761507142437417000,4.2494169921875,-25.336807410907745,4.523178266432881,-0.39857553970515724
1761507142457572900,4.26957275390625,-18.86970164707899,2.2341410081900657,0.6687737058222294
1761507142477730000,4.28972998046875,-12.196334474992751,-0.21169687730967998,2.155694663462788
1761507142497887200,4.30988720703125,-5.449121729972958,-1.6074237984612583,2.5435128084406253
1761507142518043100,4.330043212890625,0.34682255611419677,-1.608593719023466,1.375553901694715
1761507142538200000,4.350199951171875,4.369131614059209,-0.33031039725244044,-0.7399189337559043
1761507142558357000,4.37035693359375,8.074904533082247,0.9829816940575837,-2.7522064122810956
1761507142578513200,4.39051318359375,11.421515638899802,1.347498604555428,-3.8395322779104113
1761507142598670800,4.4106708984375,13.478667948937415,1.8198441677398978,-3.995246863496303
1761507142618827000,4.430826904296875,14.777092141461372,1.9142390460968017,-3.833964999172091
1761507142638984000,4.45098388671875,15.180323398017883,1.0522886006481944,-3.1575349333778022
1761507142659141000,4.47114111328125,14.180980351746081,0.33138299492001533,-2.252444288252294
1761507142679297000,4.491297119140625,12.568670242547988,0.2240922485023737,-1.67708799405694
1761507142699454000,4.511453857421875,10.98881746484041,0.3863391584664583,-1.5679527888163924
1761507142719611100,4.531611083984375,9.333581237107515,0.7155043312065303,-1.4767890013352036
1761507142739767000,4.55176708984375,7.0339639865309,0.9913789355248213,-0.9629697103813291
1761507142759924000,4.571924072265625,4.436975900751352,1.1123084042597562,0.21085311996191738
1761507142780081200,4.5920810546875,2.8529578200578687,1.8639125881776213,0.12154080556631087
1761507142800237000,4.612237060546875,1.9808312869012354,1.9719450928732751,-0.9175961986944079
1761507142820394000,4.63239404296875,-0.42755730403959746,-0.19169884909354148,0.3788566937565803
1761507142840551200,4.65255126953125,-4.440955325776338,-3.0422976118698712,3.3628245739936826
1761507142860707000,4.67270703125,-8.708501711583137,-2.6128768520459533,3.6355703787669538
1761507142880864300,4.6928642578125,-12.430547720015047,-3.340781084489822,4.216368279494345
1761507142901021000,4.71302099609375,-17.070965295428035,-4.148162173752486,6.1458303214251995
1761507142921177000,4.733177001953125,-22.26085448993444,-3.250151550015807,6.44337242154181
1761507142941334000,4.753333984375,-21.723229960501193,0.1988750973984599,3.4526451301723715
1761507142961491200,4.7734912109375,-16.76537842054367,0.7620797660291194,1.643038717199862
1761507142981647000,4.793647216796875,-12.428684264230727,-0.32198826684802767,2.4282874696314334
1761507143001804000,4.813803955078125,-6.556207358083128,-2.0015654473721978,2.3576330939546226
1761507143021961000,4.8339609375,-0.8056926977843045,-1.9371223474256694,1.1939549332678316
1761507143042117000,4.8541171875,3.353353565815091,-0.5655420255370438,-0.7787251958817243
1761507143062274000,4.874274169921875,6.099433896431327,1.9144082651838659,-2.7863950976088643
1761507143082431000,4.894430908203125,8.17820007238388,3.9016394822552796,-3.824005622954666
1761507143102587000,4.9145869140625,10.07541550296545,4.58596439295262,-3.8870612140655516
1761507143122744000,4.934744140625,11.532044052064418,4.488482216104865,-3.4158412939101455
1761507143142901000,4.95490087890625,12.192100198423862,3.6089424840822812,-2.5828496703118082
1761507143163057200,4.97505712890625,12.359004578804969,2.7869720207139848,-2.093653948482871
1761507143183213800,4.9952138671875,11.830550028777122,2.970139553631842,-2.2870845167398453
1761507143203371000,5.01537109375,10.880250707137584,3.315453458748758,-2.421581542252004
1761507143223527000,5.03552685546875,10.170079992043972,3.528154544664919,-2.746670989985764
1761507143243684000,5.05568408203125,9.475846266272663,3.5497248636990784,-2.944659659938514
1761507143263841300,5.07584130859375,8.821777962151168,3.133098411257565,-2.9460481916874643
1761507143283997200,5.0959970703125,8.110047742655873,2.1385852693602443,-2.583357912094891
1761507143304154000,5.116154052734375,6.325126565867662,-0.33109891728162766,-0.468579050257802
1761507143324311000,5.13631103515625,3.0997026298731565,-3.4257185448020695,2.4495836478993294
1761507143344467200,5.15646728515625,-2.509314478501677,-4.479499868226051,3.9173265884697437
1761507143364624100,5.1766240234375,-9.464087439417838,-5.564840112996101,4.618337261030078
1761507143384780300,5.1967802734375,-16.106629265129566,-7.26815092806816,5.167600205808878
1761507143404937000,5.21693701171875,-23.468184453082085,-5.889481232440471,4.324757634803652
1761507143425094100,5.23709423828125,-25.78673261409998,-3.939812561044097,2.3199673801660534
1761507143445250000,5.25725,-23.215250140976906,-2.612650057552755,1.129029748892784
1761507143465407200,5.2774072265625,-18.84993311676979,-1.9331690797552465,1.5626738255001604
1761507143485564000,5.29756396484375,-11.782235787463188,-2.6634514395073055,2.840495813369751
1761507143505720000,5.317719970703125,-4.65749788955152,-3.6302000839054585,3.9230134019345044
1761507143525877000,5.337876953125,0.9920780237048864,-3.7822459178507324,3.2761095826148985
1761507143546034200,5.3580341796875,4.71676840916574,-2.9696576153337952,1.9018899982638655
1761507143566190000,5.378190185546875,7.262843469309806,-1.7355732085123656,0.6184612764284014
1761507143586347000,5.398346923828125,8.897764638766645,0.05455839640051126,-0.5662301539316773
1761507143606504000,5.41850390625,9.80228186791837,0.942124490751326,-1.7497927263922988
1761507143626660000,5.43866015625,10.287058019739389,0.8676344824343919,-2.23295311357975
1761507143646817000,5.458817138671875,9.751028066021203,0.576663577401638,-2.119860256754607
1761507143666974000,5.478973876953125,8.06432351783514,1.5572434710144996,-2.2576396649383006
1761507143687129900,5.4991298828125,7.2707625718712805,2.909454198783636,-3.1814082686573264
1761507143707287000,5.519287109375,6.956198025283217,5.029054489427804,-3.809293206991255
1761507143727444200,5.5394443359375,6.353444897857308,6.6537856887817375,-3.952791285082698
1761507143747600100,5.55960009765625,5.685775353884696,7.588716760897636,-3.753550569242239
1761507143767757000,5.579757080078125,5.687607245486975,7.540697118616103,-3.629415655529499
1761507143787914000,5.5999140625,5.027196878862381,7.648103015846013,-3.741934950250387
1761507143808070000,5.62006982421875,3.414389341536164,6.925201998516917,-2.632043909330666
1761507143828227000,5.64022705078125,-0.08380582593381404,6.882768047413229,-1.6603955101922154
1761507143848384300,5.66038427734375,-2.998085252916813,6.329408188709616,-1.28180945007056
1761507143868540200,5.6805400390625,-4.4243455517590045,4.102496693381667,-0.1006806806281209
1761507143888697000,5.700697021484375,-6.01794511526823,0.7982564103037119,1.9478288887485862
1761507143908854500,5.7208544921875,-6.17930589004755,-3.3984815783083437,3.439962174209952
1761507143929010700,5.7410107421875,-7.6096707015991205,-11.035827053296565,8.510528239199518
1761507143949167600,5.761167724609375,-9.7826647287786,-12.673197953993082,8.650074072533846
1761507143969324500,5.781324462890625,-10.271210462266206,-9.432738361430168,5.558640673834085
1761507143989480400,5.80148046875,-9.930940396535396,-6.647016925299167,3.522632274112105
1761507144009637600,5.8216376953125,-9.366575744214654,-4.640802775338292,2.5512317122548818
1761507144029794600,5.841794677734375,-6.350275620171427,-2.3316505114361643,1.1020772984288632
1761507144049950700,5.86195068359375,-2.011860046893358,-1.1367580050572752,0.06144976334944367
1761507144070107400,5.882107421875,1.392950734436512,-0.17480492437258363,-0.8327901096768677
1761507144090264600,5.9022646484375,3.819492821705341,0.27047274527475235,-1.6825940441273153
1761507144110420500,5.92242041015625,5.290101965361833,0.9139104959189891,-1.909367348407209
1761507144130577700,5.94257763671875,6.020208968546986,0.9540295942090451,-0.8675354059740901
1761507144150734300,5.962734375,6.484098984205723,1.2177382521763442,-0.11245996574908494
1761507144170890500,5.982890380859375,7.260178634014725,0.910851985131204,-0.2847727810449898
1761507144191047400,6.00304736328125,7.4896403005957595,1.3597550056688488,-0.5273246692150831
1761507144211203600,6.02320361328125,7.664267968705296,1.6006988741204142,-0.6842154589734971
1761507144231360500,6.043360595703125,7.746691400370001,1.689529542478919,-0.7870648619428277
1761507144251517400,6.063517333984375,7.609823846334218,1.9756822335749864,-1.0304816963791847
1761507144271673300,6.08367333984375,7.414354465726017,2.444666065241396,-1.302746147376299
1761507144291830500,6.10383056640625,7.342482238692045,2.365679330027103,-1.5212512433961034
1761507144311987500,6.123987548828125,6.611573855996132,2.0223381862878798,-0.9192553640782832
1761507144332143600,6.1441435546875,4.146483719146252,0.7078431489288807,0.7529816828161477
1761507144352300300,6.16430029296875,-0.2072550954699516,0.4937891870990395,0.916816446493566
1761507144372457500,6.18445751953125,-4.829388826173544,-1.4787904042854905,0.528425031672418
1761507144392613400,6.20461328125,-10.159439355564118,-1.1198507093980907,0.19345467978492378
1761507144412770600,6.2247705078125,-15.291195510053633,-1.8476164101541042,1.6426266292676328
1761507144432927500,6.244927490234375,-19.34786744084954,-2.808678533348441,1.6879326286762952
1761507144453083400,6.26508349609375,-19.218760583943126,-1.5071850163817404,2.3094266969293353
1761507144473240600,6.285240478515625,-16.617510749065875,-1.8316387965604661,2.396133212740719
1761507144493397500,6.3053974609375,-11.666071414238214,-2.410346447010338,2.3515020438537
1761507144513553700,6.3255537109375,-5.824793948474526,-2.597516493567824,2.1693054017946123
1761507144533710600,6.345710693359375,-1.1532348003447055,-2.380511426847428,1.1844900625690817
1761507144553867500,6.365867431640625,2.3896406358510256,-1.746392270299047,-0.08873283400721847
1761507144574023400,6.3860234375,6.037860360571742,-0.4942660108305514,-0.8225069083325565
1761507144594180600,6.4061806640625,7.9658871090024705,0.40384544293209906,-1.3298290923520921
1761507144614337500,6.426337646484375,8.971101677656174,1.3043006833419204,-1.187879631942138
1761507144634493700,6.44649365234375,9.551575753256678,1.2408480557374655,-0.825316047469154
1761507144654650400,6.466650390625,9.388781146281957,1.4591276724383233,-0.3493052032427862
1761507144674807600,6.4868076171875,9.256556449615955,1.287715751504898,0.3632541240204125
1761507144694963500,6.50696337890625,8.97356894455254,1.420274502430856,0.12504863102417438
1761507144715120600,6.52712060546875,9.049828592890501,1.769521655343473,-0.38578740633521225
1761507144735277300,6.54727734375,9.158133484786749,2.522605629490316,-1.0234854077510536
1761507144755433500,6.56743359375,9.998511126983166,2.9206314263582227,-0.7924231010403484
1761507144775590400,6.58759033203125,10.608628061175345,2.3763766651302576,-0.8083128171548247
1761507144795747600,6.60774755859375,9.833986919736862,1.4080983269467948,-0.22100412802761418
1761507144815903500,6.627903564453125,8.337813126713037,1.3003911086827515,0.13834347180724144
1761507144836060400,6.648060302734375,5.474212332087755,0.18017098145037888,0.4722141918897628
1761507144856217600,6.668217529296875,0.35311025808155533,-0.7681053099289537,0.8788296840570866
1761507144876373500,6.68837353515625,-8.6930709182173,-2.68671891784817,1.2203257113862782
1761507144896530700,6.70853076171875,-15.695690502935648,-1.1552435098186136,0.027046996879577637
1761507144916687400,6.728687255859375,-21.391163074970244,-1.8742577488422392,-0.6330133872635663
1761507144936843300,6.74884326171875,-25.072986963129043,-1.5358666287258267,0.8765932302419096
1761507144957000200,6.769000244140625,-24.423138907051086,0.574936607478559,2.029839063437283
1761507144977157400,6.789157470703125,-20.079795229721068,-0.3172140381835401,3.6794106895372267
1761507144997313300,6.809313232421875,-14.041494724166393,-1.6480869405001402,4.653909509670734
1761507145017470500,6.829470458984375,-6.857073634186387,-1.7672938962914049,3.9819250251084566
1761507145037626400,6.84962646484375,-1.1707155119776724,-2.6625135741353034,3.0603263127744196
1761507145057783300,6.869783203125,2.801926721000671,-3.410202411240339,2.069917245195061
1761507145077940200,6.889940185546875,5.749917863449454,-4.553016939857602,-0.331108415762335
1761507145098096400,6.910096435546875,6.956895359897613,-5.436323623198271,-2.7181255712419747
1761507145118253300,6.93025341796875,8.164878233996033,-4.507901786845922,-2.9168086531996726
1761507145138410200,6.95041015625,9.29211408520937,-3.986513814203441,-1.7882042901121078
1761507145158566100,6.970566162109375,10.025074139738082,-2.6060668797701596,-0.6843444921806454
1761507145178723300,6.990723388671875,10.32256538645029,-0.3425209133975208,-0.8292525832004844
1761507145198880300,7.01088037109375,10.013578932255506,2.489484865655005,-1.1032286604210735
1761507145219036400,7.031036376953125,9.460937450954317,5.603786806505918,-1.0186679244667292
1761507145239193000,7.051193115234375,8.631537714368104,6.654469579392671,-1.6484880686469374
1761507145259350300,7.071350341796875,7.597330859985947,6.362035616070032,-2.6339433132112027
1761507145279506200,7.091506103515625,6.2339043261975045,4.909935942572355,-2.359973957992345
1761507145299663400,7.111663330078125,5.08197359418869,3.2508705119401213,-1.1869063299305735
1761507145319820300,7.1318203125,3.948957990530133,1.1378154051557183,-0.45720688463300463
1761507145339976200,7.15197607421875,0.9727473002910614,0.37827392543256283,0.3776541860990226
1761507145360133000,7.172133056640625,-3.3200603680223226,-0.8692416253700852,2.060400498178601
1761507145380290300,7.192290283203125,-9.166941060620546,-1.3844132077157496,3.404428504014015
1761507145400446200,7.2124462890625,-12.648646865582466,-2.1636948684364556,1.5267853505171836
1761507145420603400,7.232603271484375,-13.935565329229831,-4.310043465274572,1.167145690666884
1761507145440760300,7.25276025390625,-14.912266335582732,-2.536757196700573,1.1690857188187538
1761507145460916200,7.272916259765625,-14.011702812492846,-3.300010682684183,1.6616937333092092
1761507145481073400,7.293073486328125,-12.114765614330768,-3.798153388817608,2.4726965202003717
1761507145501230300,7.313230224609375,-8.504139414945245,-2.689720730012655,2.0334495090194045
1761507145521386200,7.33338623046875,-4.638334923920035,-2.492541915138066,1.7402105129241943
1761507145541543200,7.353543212890625,-1.6354080761909484,-2.3155212144121524,1.9859785866618156
1761507145561700400,7.373700439453125,0.9540542902588843,-0.11573825676739215,1.1248780360408126
1761507145581856300,7.393856201171875,3.731666654214263,1.6615402963131665,0.49639345131330187
1761507145602013400,7.414013427734375,5.604505768430233,2.2404683115154502,0.544549214129895
1761507145622170000,7.434170166015625,6.952061948391795,1.8838915463671086,-0.23186317476481197
1761507145642326300,7.454326171875,7.919900433853268,1.012661085267365,-1.3283385615333914
1761507145662483200,7.474483154296875,8.915635811021923,0.8575061793908476,-1.4904757275126874
1761507145682640400,7.494640380859375,9.846913036805391,2.040273655951023,-0.7794158815596253
1761507145702796300,7.51479638671875,10.137229861843585,3.079830054667592,-0.39272849417738614
1761507145722953200,7.534953125,10.13733273769617,3.2761580979317424,-0.28749122795714066
1761507145743110100,7.555110107421875,9.704598907801508,3.167951990234852,-0.11724213112485594
1761507145763266300,7.575266357421875,8.67802181764543,3.2774373240873214,-0.32607838570587333
1761507145783423200,7.59542333984375,7.203707974252104,3.117714964164793,-0.6794148537587374
1761507145803579400,7.615579345703125,5.04633237196505,2.2407570653289555,-0.055882598775555375
1761507145823736000,7.635736083984375,2.0737404567450284,0.5870365028560162,0.24293966364497319
1761507145843893200,7.655893310546875,-2.0136568671822546,-1.1698097953096032,-1.0467322816953062
1761507145864049200,7.676049072265625,-7.154183188104629,-2.0582254922270775,-0.7923875913355499
1761507145884206300,7.696206298828125,-11.551150903594493,-1.9470210794970393,0.344543578331545
1761507145904364500,7.716364501953125,-12.733110278642178,-4.576997534903883,-0.23577698720768092
1761507145924520400,7.7365205078125,-13.330758191883563,-9.290725261199475,-1.4333948268972336
1761507145944677600,7.756677734375,-13.056397645390033,-9.719079853096604,-1.79780506215021
1761507145964834600,7.77683447265625,-11.600297504079341,-7.666744003430009,-1.9519410002425313
1761507145984990700,7.79699072265625,-10.468860694044828,-4.10175405832082,-1.0808666064873338
1761507146005147400,7.8171474609375,-7.6524717324495315,-1.1736755308270455,-0.26491235293494536
1761507146025304600,7.8373046875,-3.3094571409434077,-0.0422848980218172,-0.7168617371648549
1761507146045460500,7.85746044921875,-0.017922025659680367,0.08677841200381517,-0.7580863124787807
1761507146065617700,7.87761767578125,3.00042217143178,1.7132120313614605,-0.025893178068799896
1761507146085774300,7.8977744140625,6.015491876897215,2.4336250312671064,0.44562619082406163
1761507146105930500,7.917930419921875,8.039121272039413,2.3042814429953693,0.3919047932369634
1761507146126087400,7.93808740234375,9.702397598364948,2.0619366217046973,-0.06951987348785624
1761507146146244600,7.95824462890625,10.911097096300125,1.850531713078916,-0.2474662376913242
1761507146166400500,7.978400390625,11.671081935876607,1.6936963067695499,-0.10097067655064165
1761507146186556700,7.998556640625,11.781936512255667,1.9531059523686765,-0.2023409103455022
1761507146206713300,8.01871337890625,11.229784275776147,2.5391128199160096,-0.12498963084593415
1761507146226870500,8.03887060546875,10.32275009536743,3.2828593491360545,-0.04895834790375084
1761507146247026400,8.0590263671875,9.171261261907219,3.8025051542863246,-0.4082394766399637
1761507146267183600,8.07918359375,7.669567828679084,4.184536386425793,-0.5417044922232628
1761507146287340300,8.09934033203125,5.772812416824698,3.945901525568962,0.6866077609375119
1761507146307496400,8.119496337890626,2.2696932369560003,1.974233788332343,1.6676126019641757
1761507146327653400,8.1396533203125,-3.8845933626472946,0.9110127286508679,0.9918537864949554
1761507146347810600,8.159810546875,-10.008343954211472,0.8865326596498488,1.0532014046441762
1761507146367966500,8.179966552734374,-14.489738842403888,0.7462190568134188,0.536476564974524
1761507146388123400,8.200123291015625,-15.39821912996769,-3.1914740278586744,-2.193211908691376
1761507146408279300,8.220279296875,-16.409622031867503,-6.420654393777251,-1.6586939669713376
1761507146428436500,8.2404365234375,-16.663185289525984,-7.110598313400149,-1.102100460108742
1761507146448593700,8.26059375,-15.683631816351413,-5.624051011377572,0.07724942656029016
1761507146468749600,8.28074951171875,-13.963454037630557,-4.178701981183886,0.5152180153032765
1761507146488906500,8.300906494140625,-10.131057310688496,-3.266878520672023,-0.03871511324364692
1761507146509063400,8.3210634765625,-5.118522578907013,-2.755150941300392,-0.4787229892618954
1761507146529219600,8.341219482421875,-0.6318418592661619,-1.8525807545632123,-0.5452145461708306
1761507146549376500,8.36137646484375,2.2705466389149427,-0.46547933067679403,-0.2892989714988507
1761507146569533700,8.38153369140625,4.2669642020046705,1.530700039742887,0.04910016752723604
1761507146589689600,8.401689697265626,6.717137340229749,3.079003540715575,0.27215576645825057
1761507146609846500,8.421846435546875,9.20746070253551,3.458090536096692,0.3795420091396197
1761507146630003500,8.44200341796875,11.06203935291767,3.409956035263836,0.7881843674920499
1761507146650159600,8.46215966796875,11.844239531433582,3.2306536533415318,1.1046361891314387
1761507146670316500,8.482316650390626,11.791181310462951,3.664170158046484,0.9559808744072914
1761507146690473500,8.502473388671875,10.867916126221418,4.202676731011271,0.6257569133292883
1761507146710629400,8.52262939453125,9.65224620475173,4.501643310973048,0.24322768680611623
1761507146730786600,8.54278662109375,8.638900936612487,4.644028751647472,0.037730486120469864
1761507146750943500,8.562943603515626,7.642851671189069,4.246752019581199,0.022057408431358633
1761507146771099600,8.583099609375,5.96277910836339,2.7614889121502637,0.5525745535448193
1761507146791256300,8.60325634765625,4.591684231904149,3.5252889261007305,0.920180954490602
1761507146811413500,8.62341357421875,2.2562737834125755,1.5848235518574714,0.969527169200778
1761507146831569400,8.6435693359375,-1.336091952139139,-1.0961597449481486,1.1376641601167619
1761507146851726600,8.6637265625,-4.946799400067329,-2.4354975471407174,0.35952560501657427
1761507146871883500,8.683883544921875,-8.773980438187717,-3.6604561059594154,0.19602566278409211
1761507146892039400,8.704039306640626,-12.496215247189998,-6.30715076419413,-0.3700142658051103
1761507146912195300,8.7241953125,-14.700824894338846,-9.102187725681066,-0.9190600607018917
1761507146932352500,8.7443525390625,-16.138600274407864,-6.902559958598017,-0.5341841066557914
1761507146952508400,8.76450830078125,-15.003940410673618,-3.947867564944923,0.018273031054437158
1761507146972665600,8.78466552734375,-11.785907753974199,-3.8571111892208454,-0.5578828160207718
1761507146992822500,8.804822509765625,-7.459049347499013,-4.182481499722599,-0.6336308615747839
1761507147012978400,8.824978515625,-2.3808827443778515,-2.6044261268258095,-0.24424342145361005
1761507147033135400,8.84513525390625,1.3944623080432414,-0.2596229960888624,-0.6884710705913603
1761507147053292500,8.86529248046875,3.8423049574941395,1.4379972061261534,-0.4119887096382677
1761507147073448400,8.885448486328125,5.2203755181849,2.7564479953736067,-0.277636937815696
1761507147093605600,8.905605712890624,6.675089173573255,3.73418945069015,0.07586195425726473
1761507147113762600,8.925762451171876,8.877188883727788,3.4523730352327227,0.18545593611598013
1761507147133918500,8.94591845703125,10.646080716735124,2.83430572655797,0.05671257875971496
1761507147154075600,8.96607568359375,10.974528242725134,3.1646590861693022,-0.130934656855464
1761507147174232600,8.986232666015624,10.6267271969676,4.1351252897858615,-0.21363617480918765
1761507147194388700,9.006388671875,9.987283630526065,4.657520685905218,-0.26222718723788857
1761507147214545400,9.02654541015625,8.991714257574081,4.855018065209687,-0.240355912495777
1761507147234702600,9.04670263671875,7.35869804495573,3.75707348267138,-0.3016274697341025
1761507147254858500,9.0668583984375,5.029541396161914,2.1497072596162554,0.1949069974850863
1761507147275015700,9.087015625,2.0035469765782357,0.3806169814273715,1.2382178533643484
1761507147295172400,9.10717236328125,-0.6634323447942734,-1.905032826334238,0.4685155565675348
1761507147315328500,9.12732861328125,-2.9610628054678436,-2.957491084460914,-0.5676696121502667
1761507147335485400,9.1474853515625,-6.049905018630623,-2.1974311338216066,1.1746473715338854
1761507147355642600,9.167642578125,-9.696265379220247,-2.321139346554875,1.7740055227592586
1761507147375798500,9.187798583984375,-12.219424258679151,-4.945283734807372,0.7121750406533479
1761507147395955500,9.20795556640625,-15.192667331284284,-5.052565713396668,0.34812695324365045
1761507147416112400,9.2281123046875,-16.595516359400747,-3.9663668059706687,-0.009230952345021068
1761507147436268500,9.2482685546875,-16.17312915147543,-2.9484950003176924,-0.8072875657603145
1761507147456425500,9.268425537109374,-13.259834643876552,-3.0601889501303434,-0.5566576581399888
1761507147476582400,9.28858251953125,-8.784629842495917,-4.68392529322803,0.272047447245568
1761507147496738600,9.308738525390625,-4.617202704042196,-4.580933705309033,0.07844776949938387
1761507147516895500,9.3288955078125,-1.1337982784688472,-2.962089810428023,0.5026391407698393
1761507147537051400,9.349051513671874,1.57512808727324,-0.6083680446982384,0.9316116453696042
1761507147557208600,9.36920849609375,3.841479612585902,1.7265654339313505,0.4558468848587945
1761507147577365500,9.389365478515625,6.347458809185028,2.951914453372359,-0.4955765819724649
1761507147597521700,9.409521728515625,8.402956922274827,4.470522781044244,-0.4727724833596498
1761507147617678300,9.42967822265625,9.836589211189747,5.213798477882147,-0.11122684375755489
1761507147637835500,9.44983544921875,10.301637164711952,5.405383126011491,0.25550376073438674
1761507147657991400,9.469991455078125,10.50007533199787,5.495030079188942,0.4320878966739401
1761507147678148600,9.490148681640624,10.297454326069355,5.670948371630907,0.20673761093448847
1761507147698305500,9.510305419921876,9.49539560087323,5.833758760696649,-0.03644866614900529
1761507147718461400,9.53046142578125,8.232646532842516,6.058648297056555,-0.288202865091525
1761507147738618600,9.55061865234375,6.994549675509333,6.396323085597157,-0.5574878253538161
1761507147758775600,9.570775634765624,6.18200871926546,6.141179280748963,-0.6866583220809698
1761507147778931700,9.590931640625,5.0327498368144035,4.4000066447943444,-0.3771033107506111
1761507147799088400,9.61108837890625,2.9054718511492013,1.319309159642458,0.5012051259113476
1761507147819245600,9.63124560546875,-0.2297387299567461,-0.60586570648849,0.1624513464950025
1761507147839401500,9.6514013671875,-4.777096328878402,-2.538711253377795,-0.042216910819523036
1761507147859558700,9.67155859375,-9.123287212333082,-4.16187301145792,0.37467400124445555
1761507147879715300,9.69171533203125,-12.245989609521626,-7.28283061080575,0.19254421387650072
1761507147899871500,9.71187158203125,-14.440548987299204,-8.79290491888821,1.080822036693245
1761507147920028000,9.73202783203125,-15.707585523390769,-10.40999583262205,1.242783846105635
1761507147940185000,9.75218505859375,-15.790449684560299,-8.79337253639996,0.5158175520990044
1761507147960341000,9.772341064453125,-13.93345754329562,-7.811537089768052,-0.3882202229727059
1761507147980498200,9.792498291015624,-9.201438373506068,-6.992618415185809,-0.8900148026771842
1761507148000654800,9.81265478515625,-3.5989544662922617,-4.367739867439866,-0.0976272844068706
1761507148020811000,9.83281103515625,0.8696353008627891,-0.8795207350611686,0.2884378794237971
1761507148040968000,9.852968017578124,4.1924166182816025,2.2550836968451735,-0.01856784928254783
1761507148061125000,9.873125,6.182744047802687,4.8385792638450855,-0.5611150759402662
1761507148081281000,9.893281005859375,8.22769680148065,6.5528107013821595,-0.48122532747164365
1761507148101438000,9.91343798828125,9.55271031024456,6.591372779488563,0.08454035075344145
1761507148121595000,9.933594970703124,10.030154804003239,5.903032787930965,0.07666369909420609
1761507148141751000,9.9537509765625,9.618613984262943,5.775175638824701,-0.36366007447279985
1761507148161908000,9.973907958984375,8.52007523522377,6.774361448708176,-0.7608902639836073
1761507148182065000,9.99406494140625,7.727258385625481,7.033914302170277,-0.6342962666809558
1761507148202220800,10.014220703125,7.129503504878282,6.700591279098391,-0.886792625760287
1761507148222378000,10.0343779296875,6.805047678872943,6.326675548875332,-1.0969963419027626
1761507148242535200,10.05453515625,6.721819945088028,6.72392480841279,-0.9353151760626583
1761507148262691000,10.074691162109374,6.394063323971629,6.5565685926109545,-0.17262546144165097
1761507148282848000,10.094847900390626,5.796552188852429,3.5724779627770182,0.7566929584242403
1761507148303005000,10.1150048828125,2.9132617743730544,-1.3401269067436457,0.10326229461915791
1761507148323161000,10.1351611328125,-2.289932891908288,-2.0006822347968813,-1.780327126996219
1761507148343318000,10.155318115234374,-7.152417931997776,-1.497422916302085,-1.3936822635814547
1761507148363475200,10.17547509765625,-10.944016200083494,-4.898711368724704,-2.0442871293760834
1761507148383631000,10.195631103515625,-12.974057215833664,-8.208295350918174,-2.146063934677839
1761507148403788000,10.2157880859375,-14.579991360259056,-10.283642073816061,-0.11890958027988671
1761507148423945000,10.235945068359374,-16.82533633790016,-8.812791522619127,0.6417738360200077
1761507148444101000,10.25610107421875,-16.327770262610912,-7.224568391451239,1.5098171184509992
1761507148464258000,10.276258056640625,-12.430332615959644,-7.463722015485167,1.3236604867197572
1761507148484415000,10.2964150390625,-6.66060647471249,-6.905413009941578,0.8491323918644338
1761507148504571000,10.31657080078125,-1.4259393963247537,-4.909474170279503,0.6913743177521974
1761507148524728000,10.33672802734375,2.007818662548065,-1.7508628398418427,0.6576904401414096
1761507148544885000,10.356885009765625,3.896025441765785,1.57275960457623,0.4592710506211966
1761507148565041200,10.377041259765624,6.6312459401935335,3.5172733774274585,0.2537880063250661
1761507148585197800,10.39719775390625,8.823734356915951,4.94730150437057,-0.5562254772678017
1761507148605355000,10.41735498046875,9.720824650937319,6.3030491740942,-1.4765145683079957
1761507148625511000,10.437510986328125,9.92451650096774,6.295220672425628,-1.5076321756273507
1761507148645668000,10.457668212890624,9.60895592907965,6.145785313239693,-0.6432051839973777
1761507148665824000,10.477823974609375,9.072967476415634,6.2002475557893515,-0.3120212918460369
1761507148685981000,10.49798095703125,8.124733270612358,5.832587378829717,-0.8274328204274177
1761507148706137900,10.518137939453124,7.330856682828069,5.4424476590365165,-1.0119048600725828
1761507148726294000,10.5382939453125,6.252145500808954,5.451771367698908,-0.3401193321485072
1761507148746451000,10.558450927734375,5.25539948529303,4.181428775799274,0.3985880338605493
1761507148766608000,10.57860791015625,3.3868086761713028,0.6880781257510185,0.44040246482640505
1761507148786764000,10.598763916015624,0.2302086855560541,-1.0785679741561411,-0.6603804098777473
1761507148806921000,10.6189208984375,-4.579026410382986,-1.4633300925642252,-0.8130586965076625
1761507148827078100,10.639078125,-9.135334793001412,-1.6493600291758774,0.1408640032608062
1761507148847234000,10.659234130859375,-10.51251629589796,-5.349386513501406,0.09684873778242617
1761507148867391200,10.67939111328125,-11.223856054770946,-7.7965815126985305,-0.17378522593602538
1761507148887548000,10.6995478515625,-11.426000090837478,-8.862260779187082,-0.4482324277997017
1761507148907704300,10.719704345703125,-12.042504680240153,-8.434836746138334,-0.45923619850352404
1761507148927861500,10.739861572265625,-11.589308492553233,-5.676656812405586,0.36751320623699574
1761507148948018400,10.760018310546876,-7.352727738374472,-4.522690775176883,0.30145711813587694
1761507148968174300,10.78017431640625,-2.4431717350304125,-4.636199373196066,-0.34405689079314467
1761507148988331300,10.800331298828125,1.5796750830531119,-3.575846562427282,-0.4507981135692447
1761507149008488400,10.820488525390624,3.1867987295240163,-1.1014905845820904,-0.5161596435349435
1761507149028644400,10.840644287109376,4.578382267260551,1.320778355412185,0.010190554624795914
