time,seconds_elapsed,z,y,x
1761430266943477800,0.084477783203125,1.4323176991850137,0.05655059313103556,0.8763215006284415
1761430266963421000,0.1044208984375,1.6537778456181287,0.14688099852800368,0.6923989115595817
1761430266983365000,0.124365234375,1.0994634626686572,0.3359475263565779,0.05827332527041435
1761430267003308000,0.14430810546875,0.49125557696819305,-0.07459405321329832,-0.03964446651563048
1761430267023252000,0.164251953125,0.390517320933938,0.04209434388577938,0.28115320230834184
1761430267043196000,0.18419580078125,0.5566027861475944,-0.13958981860652564,-0.034251229169964786
1761430267063139000,0.20413916015625,0.5326888265967369,0.19448855287730693,-0.06383870431259274
1761430267083083000,0.2240830078125,0.4909025257468223,-0.1236107437081635,-0.17459836894981562
1761430267103026000,0.24402587890625,0.21325930432081222,-0.3280358764491975,-0.063371963583678
1761430267122969900,0.263969970703125,0.46412733154594893,-0.5197932507969438,0.29033304552063344
1761430267142914000,0.2839140625,1.069911204969883,-0.6742465842753649,0.35886757949925957
1761430267162857000,0.30385693359375,0.8289584225594997,-1.0679252918496727,0.20769209864772856
1761430267182801000,0.32380078125,0.244957341876626,-0.7949521080613136,-0.5666084126595408
1761430267202744000,0.343744140625,-0.261811446043849,-0.4581844974935054,-0.5604812350161373
1761430267222688000,0.36368798828125,-0.41328912471234797,-0.3428837553605437,-0.06916201822720468
1761430267242632000,0.3836318359375,-0.3312801190674305,-0.21820099850669503,0.06515110208541154
1761430267262575000,0.4035751953125,-0.45744683086872096,-0.1180095627002418,0.20953429244831204
1761430267282519000,0.42351904296875,-0.8979670768558978,-0.08364289045706391,0.23702742566019294
1761430267302462200,0.443462158203125,-1.013136593824625,-0.15624445467889309,0.1368763218641281
1761430267322406100,0.46340625,-0.6539484771341085,-0.17488061995729803,0.1751011308401823
1761430267342350300,0.483350341796875,-0.4457523014217615,-0.17970964754894375,0.38512978267669673
1761430267362293200,0.503293212890625,-0.2725023514062166,-0.08791589160114527,0.3125838941648602
1761430267382237200,0.5232373046875,-0.20642273629903793,-0.24922376714944838,0.12422536847516893
1761430267402180000,0.54318017578125,-0.17364684037864206,-0.21851094123870132,-0.045746728913486
1761430267422124000,0.5631240234375,-0.045208091992139814,-0.3321634777732193,-0.13974953921288252
1761430267442068200,0.583068115234375,0.12996902669370175,-0.28033289890140295,-0.08014905699193477
1761430267462011100,0.60301123046875,0.16817922262251375,-0.17405206017866728,0.021357699196785686
1761430267481955000,0.622955078125,0.15996142937541008,0.01706935435310006,-0.028182576780766248
1761430267501898000,0.64289794921875,0.24180033915042876,0.1399890470571816,-0.08324410039782523
1761430267521842200,0.66284228515625,0.2676671863347292,0.095834263510257,-0.08353490003794431
1761430267541786000,0.6827861328125,0.2342220128506422,0.04189253770336508,-0.0708911070421338
1761430267561729300,0.702729248046875,0.1732838522851467,0.031867548903822894,0.003727057699114084
1761430267581673200,0.722673095703125,-0.05154138666689396,0.023077070335298776,-0.07688099510669708
1761430267601616100,0.7426162109375,-0.2589250769525766,0.0377712199896574,-0.11036942321062088
1761430267621560000,0.76256005859375,-0.4602601347237825,-0.032197803771495816,-0.12460370026826857
1761430267641504000,0.78250390625,-0.2694002937376499,-0.04006196127533913,-0.13747341097444296
1761430267661447200,0.802447265625,-0.08494739718437194,-0.040142625296115876,-0.041042350614815946
1761430267681391400,0.822391357421875,-0.07622866867780685,-0.05318666965588927,0.09023279024139046
1761430267701334300,0.842334228515625,-0.09592997896969317,-0.1441841606594622,0.2000267516516149
1761430267721278200,0.8622783203125,-0.22974925135076044,-0.138653852930665,0.13184884909093378
1761430267741222100,0.88222216796875,-0.3422814055532217,-0.01181216447725892,0.05340542697310447
1761430267761165000,0.9021650390625,-0.2325099482357502,0.09317688086926937,0.06208776899203658
1761430267781109000,0.92210888671875,0.08279109593331814,0.1158094223074615,0.11992051088809966
1761430267801052200,0.94205224609375,0.3267044817149639,0.10398118347823619,0.21757526782378553
1761430267820996000,0.96199609375,0.35613749694824215,0.13685586359798907,0.26979338470846415
1761430267840940300,0.981940185546875,0.26770342669188973,0.26906024812832474,0.17351736878007648
1761430267860883200,1.00188330078125,0.2734387554734945,0.25280104111433027,0.06957695570364594
1761430267880827100,1.0218271484375,0.4692921669632196,0.09698810972049832,0.07090045939236879
1761430267900770300,1.041770263671875,0.4724181900292635,-0.07706321980580687,-0.016787614802271127
1761430267920714200,1.06171435546875,0.19130232405662537,-0.09117313983142375,-0.0048648295573890206
1761430267940658200,1.081658203125,0.07072305699884891,0.06231953192129731,-0.06131386201009154
1761430267960601000,1.10160107421875,0.28197745123803614,0.1394390119589865,-0.11930968551337719
1761430267980545000,1.121544921875,0.298417713907361,0.128193979845196,-0.09710472183749079
1761430268000488000,1.141488037109375,0.15596622225940227,0.19546572734639048,0.020863632069528102
1761430268020432100,1.16143212890625,-0.09970248324573039,0.24648849696666,-0.009739011465013027
1761430268040376000,1.1813759765625,-0.033875966116786,0.13859613139405846,-0.1409526313923299
1761430268060319200,1.2013193359375,0.11276362487077712,-0.015560849486291408,-0.21773601134344933
1761430268080263200,1.22126318359375,0.19025778343975544,0.00918181597366929,-0.24392419943660495
1761430268100206000,1.2412060546875,-0.060663435277342796,-0.003156856595724821,-0.0783298787407577
1761430268120150000,1.26114990234375,-0.2648603122204542,0.06005231764167547,-0.011607874076813459
1761430268140094000,1.281093994140625,-0.17257248914539813,0.03975713310986757,-0.056855421296507114
1761430268160037000,1.301037109375,-0.00041442601978778834,-0.08131386298760772,-0.046360330767184495
1761430268179981300,1.320981201171875,0.10120645806789398,-0.1783273994103074,0.013464461728930472
1761430268199924200,1.34092431640625,0.01697276211082935,-0.0905409794077277,0.16476795287430285
1761430268219868200,1.3608681640625,-0.3246738526701927,-0.08004004365950822,0.24270269481763243
1761430268239812000,1.38081201171875,-0.33749592484235763,0.001450198808312416,0.03691679511740804
1761430268259757000,1.400757080078125,-0.14846096119582652,0.04964812026619911,-0.0026360475920140744
1761430268279701000,1.420700927734375,-0.12006313422918319,0.09684417120516299,0.1013503965832293
1761430268299644000,1.440643798828125,-0.2794961558163166,0.04603804001025855,0.09396759285554289
1761430268319588000,1.460588134765625,-0.2911427544683218,0.034304128400981425,0.008717267201840876
1761430268339532000,1.480531982421875,-0.12161153271496296,0.16484810543842612,-0.051582010938227174
1761430268359475200,1.50047509765625,-0.07157996608912945,0.17005181156136095,-0.04250643181800842
1761430268379419100,1.520419189453125,-0.12616378919184207,0.04945106332413852,-0.11244023813530803
1761430268399362000,1.540362060546875,0.07261281626820563,-0.0356885684967041,-0.14176628586277365
1761430268419306000,1.560305908203125,0.23480010499954224,-0.011635784997045992,-0.08630261118561029
1761430268439249200,1.580249267578125,0.2328483864098787,0.02939969748556614,-0.06214505213722586
1761430268459193000,1.600193115234375,0.16123977874815462,0.035494507229328155,-0.05974705108478665
1761430268479137300,1.62013720703125,0.1431190156459808,0.0615890256896615,-0.00944192821457982
1761430268499080200,1.640080078125,0.21704817520976066,0.027267800023406744,0.0029725860700011253
1761430268519024000,1.660024169921875,0.2874211035966873,0.12777546217218042,0.04429316910430789
1761430268538967000,1.679967041015625,0.1933779612869024,0.274857097838819,0.1651591441489756
1761430268558911000,1.699910888671875,0.0503846178472042,0.2469185589469969,0.2057650030426681
1761430268578855000,1.71985498046875,0.0233189162671566,0.14462678986042737,0.16002148899957536
1761430268598798000,1.739798095703125,0.06650806965231895,0.08204816861152649,0.06946078197807073
1761430268618742000,1.759741943359375,-0.011160860961675644,0.029158874467015265,0.02341740820556879
1761430268638685000,1.779684814453125,0.006951134312152862,0.009580898293852806,0.039664924781769514
1761430268658629000,1.799629150390625,-0.007888122901320457,-0.022809213179349898,0.06210048234313726
1761430268678573000,1.819572998046875,-0.002435702714323997,-0.08506094056144356,0.05052022692561149
1761430268698516200,1.83951611328125,-0.006695698246359825,-0.031522023401781916,0.08383475976735354
1761430268718460200,1.859460205078125,0.03806698806583881,-0.06595138561762869,0.11354016220122574
1761430268738403000,1.879403076171875,0.17121113766431809,-0.12943886533975602,0.07678893290907145
1761430268758347000,1.899346923828125,0.18038462420105933,-0.08718355873860419,0.04860518708452582
1761430268778291000,1.919291015625,-0.007166238367557525,0.05484517745263874,0.04912541156634688
1761430268798234000,1.939234130859375,-0.09087620271146298,0.10016447473429142,0.07031535298079251
1761430268818178300,1.95917822265625,-0.05071253462731838,0.08317790329381823,-0.016069091269373892
1761430268838121200,1.979121337890625,0.14347849660813808,0.023238690637797117,-0.016324965726584196
1761430268858065200,1.999065185546875,0.23489421302378177,0.01827310411967337,0.13557999844327567
1761430268878009000,2.019009033203125,0.28459143312871454,0.05744849181883037,0.14503639357462525
1761430268897952000,2.038951904296875,0.2076654298365116,0.046488852517679334,0.05899243332520127
1761430268917896000,2.05889599609375,0.12034370473623275,0.08100026699379086,-0.0075495385967195025
1761430268937839000,2.078839111328125,0.10662263789772987,0.10319726655893027,0.08256035591736435
1761430268957783000,2.098782958984375,-0.07805179245173931,-0.015214520266652107,0.3469998123772442
1761430268977727200,2.118727294921875,-0.1548971317231655,0.06681976594999432,0.08486921738162637
1761430268997670100,2.138670166015625,-0.05561258162856102,0.008804945485293864,0.034426731867343185
1761430269017614000,2.158614013671875,0.04321837947964668,-0.06808087192699312,0.020484569624066352
1761430269037557200,2.17855712890625,-0.02326923190653324,-0.08193477136492729,-0.0021219605900347233
1761430269057501200,2.198501220703125,-0.15622516545653342,-0.15726429924592375,-0.013317892865091562
1761430269077445000,2.218445068359375,-0.20471417881548404,-0.1410982504080981,0.029197160650789734
1761430269097388000,2.238387939453125,-0.1825473551928997,-0.09157017632499337,0.020467326228320596
1761430269117332000,2.25833203125,-0.08912789773941039,-0.0720157271578908,-0.0030278233885765076
1761430269137275000,2.27827490234375,0.011692191359400748,-0.08586356218121945,-0.03880085529834032
1761430269157219000,2.298218994140625,0.13262158702909946,-0.06450096761360764,-0.011019114403426646
1761430269177163000,2.3181630859375,0.20694354530274867,-0.012824556390196085,0.03482508353516459
1761430269197106200,2.338106201171875,0.16031155798733235,-0.05492072690688073,0.028953999544680118
1761430269217050000,2.358050048828125,0.18046645726561544,-0.05217654276527464,-0.0039032910488545893
1761430269236993000,2.377992919921875,0.2920382420033216,-0.04944003047347068,0.018409955307096243
1761430269256935700,2.397935791015625,0.43099195466339585,-0.023908187397196887,0.007425473825633525
1761430269276878600,2.417878662109375,0.43351767374873157,-0.10826149114593862,0.05270546201020479
1761430269296822500,2.437822509765625,0.3280594034552574,-0.16222886285074054,0.06184738436490297
1761430269316766500,2.457766357421875,0.15722060623466969,-0.021850158888846633,0.11987930209487675
1761430269336709400,2.47770947265625,-0.03205634947419166,0.15383410560153424,0.08286372277811169
1761430269356653600,2.497653564453125,0.15742811150550842,0.2696277458179742,0.07054375490918754
1761430269376596700,2.5175966796875,0.3199000623971224,0.22553397174328565,0.21079744425192473
1761430269396540700,2.537540771484375,0.3709276543229818,0.25673604247570037,0.24008140640333295
1761430269416484600,2.557484619140625,0.1997352213591337,0.22147541706748305,0.16169439064785837
1761430269436427500,2.577427490234375,0.020961539486050604,0.04381685682944953,-0.037129561085253955
1761430269456371500,2.597371337890625,0.012189619487524032,-0.24815949891880154,0.04052548713386059
1761430269476314600,2.617314697265625,-0.06913023484945297,-0.32107144426405426,0.15613339551985264
1761430269496258600,2.637258544921875,-0.2839543042689562,-0.2325513031594455,0.14221592932641505
1761430269516202800,2.65720263671875,-0.42100656722187996,-0.1811217063039541,0.1630441978216171
1761430269536145700,2.677145751953125,-0.3637847968310117,-0.13031601350046693,0.005273702619224787
1761430269556089600,2.697089599609375,-0.08026479232609271,-0.11440861559882759,-0.0782110746666789
1761430269576032500,2.717032470703125,-0.00913198548257351,-0.10109488745220005,-0.04715060436204076
1761430269595976700,2.736976806640625,-0.04106850796937942,-0.12744184630364178,0.00338847339451313
1761430269615920600,2.756920654296875,0.008356909456849098,-0.05102539996877312,0.07201046646088362
1761430269635863600,2.776863525390625,0.2609831785261631,0.0523605940952897,0.08873612194284797
1761430269655807500,2.796807373046875,0.48095922388136386,0.2415461451936513,0.19801073565408586
1761430269675750400,2.81675048828125,0.3094827132791281,0.26106048154607414,0.21500278698727487
1761430269695694600,2.836694580078125,-0.04119944087266922,0.1529690862700343,0.07988163822740316
1761430269715638500,2.856638427734375,-0.05842296287417412,0.10834690440706908,0.07945522950887679
1761430269735581700,2.876581787109375,0.15097615888714788,0.1885327132128179,0.02927987049818039
1761430269755525600,2.896525634765625,0.19020926812291145,0.07865297321528196,0.06369067414402961
1761430269775468500,2.916468505859375,0.0909837547391653,0.02068323400132358,-0.03220160316377878
1761430269795412500,2.93641259765625,0.09414777172803879,0.031047830018773672,-0.01693009201288223
1761430269815356400,2.9563564453125,0.054173488736152645,0.04235219110436737,-0.002449146717786789
1761430269835299600,2.976299560546875,0.027247487887740132,0.01606945659555495,-0.07642039185762405
1761430269855243800,2.996243896484375,0.13639175321757793,-0.08143157108314335,-0.18849603446424007
1761430269875186700,3.016186767578125,0.11113748497366904,-0.11291012066937982,-0.21073606945350765
1761430269895130600,3.036130615234375,-0.1548188057899475,-0.0350621071614325,-0.30086934484317895
1761430269915074600,3.056074462890625,-0.4007517147004604,-0.05804360816776752,-0.31728666502833364
1761430269935017500,3.076017578125,-0.4184603898704052,-0.0830541307836771,-0.2568342421531677
1761430269954961700,3.095961669921875,-0.4279045100420713,-0.1618127563305199,-0.18538506283685563
1761430269974904600,3.115904541015625,-0.3789817814409733,-0.16234773999005556,-0.18388430288508534
1761430269994848500,3.1358486328125,-0.19183949967324732,-0.10418167448639869,-0.21558730887696145
1761430270014792700,3.155792724609375,-0.15336626889407634,-0.06184511934258043,-0.15108604900240896
1761430270034735600,3.175735595703125,-0.19319792854487894,-0.05618376911263913,-0.06947276467680931
1761430270054679600,3.195679443359375,-0.13895721979141235,-0.007576682331971824,-0.00010229133069515228
1761430270074622700,3.215622802734375,0.0004857376903295517,0.035180472844094035,0.014660539645701645
1761430270094566700,3.235566650390625,0.0923521204829216,0.0855250144092366,0.11649316678792238
1761430270114510600,3.255510498046875,0.04069207587242126,0.08781096992194652,0.15700900931060313
1761430270134453500,3.27545361328125,0.017319383591413495,0.14020320126451552,0.17710589479133484
1761430270154397400,3.2953974609375,0.16768588614761828,0.1547336847897619,0.21487477669343352
1761430270174340600,3.315340576171875,0.4399696263670921,0.2308182322891429,0.23807255079895256
1761430270194284800,3.335284912109375,0.4980500594139099,0.23874164569955317,0.31630452212318777
1761430270214228700,3.355228759765625,0.27267829249501224,0.1651274338364601,0.30519246873930095
1761430270234171600,3.375171630859375,0.0536222845941782,0.1454141773784533,0.17604995599761605
1761430270254115000,3.395114990234375,0.03569382919371128,0.17468754507061093,0.1543359907090664
1761430270274058000,3.41505810546875,0.058013797551393506,0.16334431327935306,0.19553294736370444
1761430270294002200,3.435002197265625,0.06735679543614387,0.16818926909249274,0.15226576030626893
1761430270313946400,3.4549462890625,0.10333177965879439,0.03779759653992951,0.1396717978015542
1761430270333889300,3.47488916015625,0.12456979799866676,-0.04473389860913157,0.04477379222810268
1761430270353833200,3.494833251953125,0.06756254714131354,-0.12529935438223183,-0.0408354298658669
1761430270373776100,3.514776123046875,-0.06577507920265198,-0.10532744698803871,0.03860080268159508
1761430270393720000,3.534719970703125,-0.12708908734321595,-0.08940496111512183,0.055769818016886706
1761430270413664000,3.5546640625,-0.07989712805747985,-0.13974847976695745,0.006672755762189626
1761430270433607200,3.574607177734375,-0.00041851767301559446,-0.15973361196890473,-0.05278378794342279
1761430270453551000,3.594551025390625,0.018767244312167166,-0.13403090583775193,-0.04071194961667061
1761430270473494000,3.614493896484375,-0.030564065089821815,-0.06806943721752613,-0.007491232538223266
1761430270493438200,3.634438232421875,-0.24761750099658963,-0.05625880711022764,0.03457052425220609
1761430270513382100,3.654382080078125,-0.16210311757922172,0.0058541328556835645,-0.004321078069508075
1761430270533325300,3.6743251953125,0.11524959646761417,-0.026390396134369075,-0.02114215674996376
1761430270553269200,3.694269287109375,0.06328910760581492,-0.006573387040942907,-0.04540288391187787
1761430270573212200,3.714212158203125,-0.14460603933334348,0.01376742673087865,0.040787937462329865
1761430270593156000,3.734156005859375,-0.25361820271611213,0.10108023787233977,0.074398822902143
1761430270613100000,3.75410009765625,-0.12203472656309604,0.12942469068393112,0.03236249281391501
1761430270633043000,3.77404296875,0.07109656648635863,0.04482413417585194,-0.01677986988723278
1761430270652987100,3.793987060546875,-0.13230360712110995,-0.018186521814763545,0.008420768473297357
1761430270672930300,3.813930419921875,-0.31244448569417,-0.03035308922026306,-0.05391805267035961
1761430270692874200,3.833874267578125,-0.17374328649044035,0.052764790982007974,-0.1467826527200639
1761430270712818200,3.853818115234375,0.21772680512368678,0.10431830647811292,-0.02977101501598954
1761430270732761000,3.873760986328125,0.3129699708729982,0.09902038273308425,-0.04100947125852108
1761430270752705000,3.893705078125,0.23041151465177534,-0.03114036714043468,-0.0721373077109456
1761430270772648200,3.913648193359375,0.2918973722279072,-0.08863963929843156,0.010127426260709761
1761430270792592100,3.933592041015625,0.28790742580890655,0.05867975064683705,0.09212949070818721
1761430270812536300,3.953536376953125,0.30714871737360955,0.1272690104873851,0.19569851318895815
1761430270832479200,3.973479248046875,0.22016192331612108,0.16388532482087612,0.15321327028945086
1761430270852423200,3.993423095703125,0.25286416947841645,0.05980974105745553,0.13981193692460656
1761430270872366000,4.013365966796875,0.21510113279521464,0.020941008154675363,0.04426598883643746
1761430270892310000,4.03331005859375,0.1525923619121313,0.02225998179875314,0.0052225569538772105
1761430270912254200,4.053254150390625,0.09615852702856063,0.026561478384956715,-0.026512670807167887
1761430270932197000,4.073197021484375,0.03076630966365337,0.005175356811285018,0.04782390051372349
1761430270952141000,4.09314111328125,0.07653028197288513,-0.009588497078418731,0.0158477036036551
1761430270972084000,4.113083984375,0.040727731707692144,-0.06919635888822376,0.012633198536559939
1761430270992028200,4.133028076171875,-0.15571955402195453,-0.052210152773931616,0.05756663830578327
1761430271011972000,4.15297216796875,-0.1643997040838003,-0.04573686510659754,-0.008386573942750691
1761430271031915300,4.172915283203125,-0.1272211892902851,-0.033017741852253674,0.02634951613470912
1761430271051859200,4.192859130859375,0.036544893065094945,-0.01449139362387359,0.040592707151174544
1761430271071802000,4.212802001953125,0.028128362375497817,-0.05861614735871553,0.020220365729928014
1761430271091746000,4.23274609375,0.013572013756632804,-0.062374184717983006,0.0060427872955799095
1761430271111690000,4.25268994140625,-0.019452303966879844,0.005675853679329157,0.02555515088662505
1761430271131633200,4.272633056640625,0.029123218631744382,0.11626841812133788,0.14360577624961732
1761430271151577300,4.292577392578125,0.1228729309529066,0.09395056865550577,0.17584274298772215
1761430271171520300,4.312520263671875,0.0853764362514019,0.07178586392477154,0.16748649111799896
1761430271191464200,4.332464111328125,0.047184360501170156,-0.021424553887918592,0.0764389504276216
1761430271211408100,4.352408203125,0.1271861179769039,0.017303236174210906,0.016988105810433626
1761430271231351000,4.37235107421875,0.12405834134519099,-0.0069124828021973365,0.07461568052321672
1761430271251295000,4.392294921875,0.022119477349519728,0.005700038272514939,-0.035511312233656646
1761430271271238100,4.412238037109375,0.05716273368000984,-0.003793620129302144,-0.08385916355624795
1761430271291182000,4.43218212890625,0.18927169501185417,-0.11230923216678201,-0.06231500187665224
1761430271311126000,4.4521259765625,0.24914193408489227,-0.10076309821456671,0.02573386845439672
1761430271331069000,4.47206884765625,0.15327800608873365,0.005877367600798607,0.05739639630541205
1761430271351013000,4.49201318359375,0.01481003111898899,0.1202387099917978,0.09050707713812589
1761430271370956300,4.511956298828125,-0.06651333034932613,0.10764876607507466,0.07869856592267752
1761430271390900200,4.531900146484375,-0.10843290219008922,0.0509942011129111,0.03940057475715875
1761430271410844200,4.55184423828125,-0.08301146068572998,-0.02026785813346505,0.013927841456979513
1761430271430787000,4.571787109375,-0.015816577813029288,0.0027834932386875152,0.07055676052123308
1761430271450731000,4.59173095703125,0.12473638673722744,-0.022857509300485253,0.08839461502879857
1761430271470674000,4.611673828125,0.14167173944711683,-0.0011271773990243672,0.0784958829574287
1761430271490618000,4.6316181640625,0.05022679693698883,0.08021591168306767,0.016459113500267266
1761430271510562300,4.651562255859375,0.041138650596141815,-0.05929952651299536,-0.00497398902028799
1761430271530505200,4.671505126953125,0.08079144654870032,-0.1436615250248462,-0.061426382473856206
1761430271550449200,4.69144921875,0.04654080190062523,-0.1380799985654652,-0.0020185002155601976
1761430271570392000,4.71139208984375,-0.015736498314142228,-0.16732830488160252,0.06960048270970583
1761430271590336000,4.7313359375,0.008415361645817757,-0.1397804458077997,0.054741351751983164
1761430271610280000,4.751280029296875,0.03196457953751087,-0.11715418797992169,0.05669760038629174
1761430271630223000,4.77122314453125,-0.00783960758447647,-0.057845747508108614,0.01499737038463354
1761430271650167000,4.7911669921875,-0.07426292156279087,0.02836575132794678,0.00780848179385066
1761430271670110000,4.81110986328125,-0.1376256789267063,-0.04747716943528503,0.15477467438727616
1761430271690054100,4.83105419921875,-0.10529168155491352,-0.00448218691535294,0.13313742759674788
1761430271709997000,4.8509970703125,-0.02817220151722431,0.021810484465584156,0.12076076110452413
1761430271729941200,4.870941162109375,0.10975801331400871,0.0636763533577323,0.10281696200445294
1761430271749885200,4.89088525390625,0.025814824736118316,0.10440773832723498,0.10851122812330723
1761430271769828000,4.910828125,0.028946693021059035,0.1681545996379107,0.14785963430181145
1761430271789772000,4.93077197265625,0.07343114691376686,0.03993986926563084,0.010830167702585458
1761430271809715000,4.95071484375,0.1450368319660425,-0.02734678354375064,-0.046570174125581974
1761430271829659000,4.970658935546875,0.1928641665458679,-0.09839176597334444,-0.06234276666641235
1761430271849603000,4.99060302734375,0.10946867497861384,-0.09956899305917322,-0.09889964243024588
1761430271869546200,5.010546142578125,0.14446458503603934,-0.08311733221299945,-0.005414134003221989
1761430271889490200,5.030490234375,0.2283095739364624,-0.08275668220706284,0.021602759999036786
1761430271909433000,5.05043310546875,0.15477204403877257,0.0031111177578568455,0.09612506315037607
1761430271929377000,5.070376953125,0.05613748228549957,0.12622604077309368,0.08888999733030796
1761430271949321000,5.090321044921875,0.03542202651500702,0.2002813109345734,0.13747194966971873
1761430271969264000,5.11026416015625,0.04344575849473476,0.18612360624447463,0.14870280712768436
1761430271989208000,5.1302080078125,0.04677636422216892,0.08900171407647431,0.0572103722140193
1761430272009151000,5.15015087890625,0.0839729991942644,0.029797245435789224,-0.05049041630923748
1761430272029095200,5.17009521484375,0.19991642314493654,0.08338511630371212,0.007797668138891458
1761430272049039000,5.1900390625,0.29885259819328786,0.17457023883387446,0.11169833372682332
1761430272068982000,5.20998193359375,0.10425298615694045,0.10487425986044108,0.11403452158942819
1761430272088926000,5.229926025390625,-0.0768845022380352,0.03177650961950421,0.02099412658140063
1761430272108869000,5.249869140625,-0.12809388047158718,-0.002640212310478091,-0.0009467793308198452
1761430272128813000,5.26981298828125,-0.10948211898207663,-0.05562792532816529,0.0178257256783545
1761430272148756000,5.289755859375,-0.11079320158064365,-0.14003244780749083,0.036193303148448465
1761430272168700000,5.309699951171875,-0.015604980888962745,-0.17601145061813295,-0.0979027403473854
1761430272188644000,5.32964404296875,0.030824177330732342,-0.16866043026819824,-0.056913288963586085
1761430272208587300,5.349587158203125,-0.10476794994175434,-0.07153649227358401,-0.00630377631932497
1761430272228531200,5.36953125,-0.24742577781677244,-0.015443506716936825,-0.011220774455368518
1761430272248474000,5.38947412109375,-0.14788871426582337,0.0036111762344837187,-0.06367021587789058
1761430272268417800,5.409417724609375,0.004167641073465347,0.011694821707904339,-0.001982552119344473
1761430272288361700,5.42936181640625,0.04049509199559689,0.015530454348027705,0.006185264506191015
1761430272308305000,5.449304931640625,0.15183657510876655,0.11114245340973138,-0.006831161194294691
1761430272328249000,5.4692490234375,0.11119885977208614,0.1298730189733207,-0.0003422375664114952
1761430272348192000,5.48919189453125,0.03920680575072765,0.14050905234329403,0.03182297910973429
1761430272368136000,5.509135986328125,0.005067804783582687,0.058135305039212104,0.011289601907879114
1761430272388079900,5.529079833984375,0.0786181941628456,0.10898461778871714,0.02836407082751393
1761430272408022800,5.549022705078125,0.06765957777500152,0.060643050076439976,0.04819134558662772
1761430272427966700,5.568966796875,0.1375380006432533,0.08366809796355665,0.07952654117941856
1761430272447910000,5.588909912109375,0.17118132704794406,-0.011949234860390423,0.011650105783343315
1761430272467853800,5.608853759765625,0.20551555832624435,-0.028648367661610243,0.016298516111075877
1761430272487798000,5.628798095703125,0.25385610312521456,0.025768647506833074,0.0804408795453608
1761430272507741000,5.648740966796875,0.17222294505536556,0.03513458787575364,0.15289397520720957
1761430272527684900,5.668684814453125,0.09654664956331252,-0.013517580155655741,0.14131898048669098
1761430272547628000,5.6886279296875,-0.017397125002741813,-0.07608673945646732,0.03656520520076156
1761430272567572000,5.708572021484375,-0.015816577813029288,-0.07401665518414229,-0.004554740694910288
1761430272587515000,5.728514892578125,0.09206512023508548,-0.07058631540928036,0.05323723079934716
1761430272607458800,5.748458740234375,-0.021540216156840323,-0.14443484748490154,0.033389059382677076
1761430272627402800,5.76840283203125,-0.11642273190021514,-0.15317060019150375,0.009488251574337482
1761430272647345700,5.788345703125,-0.12419804207682608,-0.18270042686276136,0.013259879067540168
1761430272667289900,5.808289794921875,-0.16033727695047856,-0.1426576452119276,-0.049189708974212404
1761430272687233000,5.82823291015625,-0.13561375458240507,-0.025405330619774756,0.021509236496686936
1761430272707177000,5.848177001953125,-0.07933949417471885,0.09198434661645442,-0.024255758725851773
1761430272727121000,5.868120849609375,0.022722119417786596,0.08943221444822848,0.008134498877823353
1761430272747063800,5.888063720703125,0.17013269477784632,0.07354578626938164,0.0884535056091845
1761430272767007700,5.9080078125,0.13812953679561615,0.08948993598483503,-0.021320143665373326
1761430272786951000,5.927950927734375,-0.12148819859623908,0.09182433374915272,-0.11462284287139772
1761430272806894800,5.947894775390625,-0.02744154915511608,0.07005213546734303,-0.18050298988372088
1761430272826839000,5.967839111328125,0.27280045756995674,-0.04861329732574522,-0.1869632719390094
1761430272846782000,5.987781982421875,0.33183541486263274,-0.13566902843359857,-0.13819514937773347
1761430272866726000,6.007725830078125,-0.04017243591248989,-0.05332235179953277,0.02543547002971172
1761430272886668800,6.027668701171875,-0.08343173192441462,0.15354107747171072,0.026104893723875283
1761430272906613000,6.047613037109375,0.0339022696018219,0.0701160310164094,0.038335429743677374
1761430272926557000,6.067556884765625,-0.032550854992866515,0.028793511753343045,0.10141396333873272
1761430272946499800,6.087499755859375,0.15443419038653372,0.04237363575119525,0.14858955601155757
1761430272966443800,6.10744384765625,0.5159171400159597,-0.03162818718999624,0.14897081041410565
1761430272986386700,6.12738671875,0.26413024438023563,0.024694588534533976,0.2629870656944811
1761430273006331000,6.147330810546875,-0.08570143042206764,0.11209073057789355,0.16906199680641293
1761430273026274000,6.167274169921875,-0.23136545437574385,0.10487897256817669,0.1844295156776905
1761430273046218000,6.187218017578125,-0.17366437603533266,0.13754837590679525,0.23179741605222223
1761430273066162000,6.207161865234375,-0.11353051759004593,0.20181264868769794,0.25753859103024
1761430273086104800,6.227104736328125,0.07934826200306415,0.22708430645782499,0.3150217888362706
1761430273106048800,6.247048828125,0.05664367824196815,0.14911182631999254,0.2508468383066356
1761430273125992000,6.266991943359375,-0.06657704323530196,0.13615421813465653,0.10512406990304589
1761430273145936000,6.286935791015625,0.07778934212327003,0.07698080221936106,0.002178951474279165
1761430273165880000,6.306880126953125,0.14017828601896762,-0.08826046725511551,0.08042042127922176
1761430273185823000,6.326822998046875,-0.017694646644592284,-0.0529390881029889,0.04050619791150093
1761430273205767000,6.346766845703125,-0.06539104832112788,0.03106576753426343,0.007973901488631963
1761430273225709800,6.366709716796875,-0.050903088763356204,0.04322473615519702,-0.07809124767929315
1761430273245653800,6.38665380859375,-0.01833236002624035,0.025623905273899433,-0.04652589659243822
1761430273265598000,6.406597900390625,-0.01504442439675331,-0.09253485663868487,-0.0015652034901082515
1761430273285541000,6.426541015625,-0.06560206072330474,-0.09263590586036444,-0.02162409504801035
1761430273305485300,6.4464853515625,-0.044725276911258695,-0.06684241617321968,-0.031617227404564616
1761430273325428200,6.46642822265625,0.019961422532796858,-0.034493988417275245,-0.0039237493149936195
1761430273345372200,6.4863720703125,0.03528992456793785,-0.04913008774146437,0.0006168167240917683
1761430273365316000,6.506316162109375,-0.007265022566914558,-0.05913538545984774,0.08704977629110217
1761430273385259300,6.52625927734375,0.024808862563967703,-0.06549286472778768,0.1391986273318529
1761430273405203200,6.546203125,0.0755593911141157,-0.014452449852973222,0.1458610078305006
1761430273425146000,6.56614599609375,0.10616203464865684,0.08282152760419995,0.11614318430647254
1761430273445090000,6.586090087890625,0.04407938022315502,0.05832980469800531,0.13504822965413332
1761430273465034200,6.6060341796875,-0.007211246553063392,-0.04501351926811039,0.11578399560526012
1761430273484977200,6.62597705078125,0.17972060733437537,-0.08936499443091452,0.06950009107515215
1761430273504921000,6.645921142578125,0.32797815491259097,-0.03181994690243155,0.09869286781176924
1761430273524864300,6.6658642578125,0.27592121993899343,0.10794679917357862,0.09994009139388799
1761430273544808200,6.68580810546875,0.08484101420044898,0.0961366805229336,0.06360562620908021
1761430273564752100,6.705752197265625,-0.03512099774181843,0.052443998062424356,0.039339638350158926
1761430273584695000,6.725695068359375,0.03325988004505634,-0.0029886604219675063,0.005019727858155965
1761430273604639000,6.745638916015625,0.11797522203922271,-0.01809588438924402,0.016141133592277764
1761430273624582100,6.76558203125,0.0858037217527628,0.022648542724922296,0.0681913465641439
1761430273644526300,6.7855263671875,-0.0010498013138771057,0.007218516544066369,0.03642155894637108
1761430273664470300,6.80547021484375,-0.003544540739059448,0.05812372419927269,0.002540770523995161
1761430273684413200,6.8254130859375,-0.005438976183533668,0.03280088423117995,0.038413317285478116
1761430273704357000,6.845357177734375,-0.013152327039837836,-0.010582513084448873,0.006648790364712476
1761430273724300000,6.865300048828125,-0.07708674681186675,0.012716383307985961,-0.07801438305079937
1761430273744244200,6.885244140625,-0.0599006342113018,0.0342107875617221,-0.04491714622154832
1761430273764187100,6.905187255859375,-0.06454232253730297,-0.024542466712743044,-0.0882644127778709
1761430273784131000,6.925131103515625,0.0664841042548418,-0.00147142425943166,-0.06248188287615776
1761430273804075300,6.9450751953125,0.16982056008875368,-0.09820420751199126,-0.008357786239683628
1761430273824018200,6.96501806640625,0.11934417230486868,-0.13433164234999567,-0.024242606983333824
1761430273843962000,6.984962158203125,0.02167231810390949,-0.010566986721754074,-0.016794629064947365
1761430273863905300,7.0049052734375,0.022720365852117536,0.010277209994941949,0.01339227327555418
1761430273883849200,7.02484912109375,0.06005962416529655,0.07209091128595173,0.09871493351310491
1761430273903793200,7.044793212890625,0.09629004445374012,0.1091990277243778,0.10056976759955287
1761430273923736000,7.064736083984375,0.14065291779339312,0.07597020040471106,0.07237433133721351
1761430273943680000,7.084679931640625,0.07626607807874679,0.051414874210394916,0.05459054510444403
1761430273963623200,7.104623046875,0.09526479305922984,0.09290460326652973,0.06820245248004794
1761430273983567400,7.1245673828125,0.13207389001846312,0.04278868282549083,0.049321080268919466
1761430274003511300,7.14451123046875,0.059139586710929865,-0.00342175460960716,-0.044558249781280757
1761430274023454200,7.1644541015625,-0.012931962287425994,-0.0168745259007439,-0.10875804249122738
1761430274043398100,7.184398193359375,0.005551204386353492,-0.019941183462366462,-0.03933773865401745
1761430274063341000,7.204341064453125,0.13145955751240251,-0.03027381343897432,-0.06347907721996307
1761430274083285000,7.224284912109375,0.13761106587946415,0.00755235160831362,0.025712971796840428
1761430274103229000,7.24422900390625,0.026706220617890356,0.04704823996610939,0.06306421280875801
1761430274123172000,7.264172119140625,-0.07656067711114883,-0.023745251920446752,0.02110153247863054
1761430274143116300,7.2841162109375,-0.07556231372356415,-0.01962692988142371,-0.02906082092002034
1761430274163059200,7.30405908203125,0.04106207822859287,-0.0036355434907600283,-0.009373100762069224
1761430274183003100,7.324003173828125,-0.014893033227324486,-0.025251857091113925,0.0609855068385601
1761430274202947000,7.343947021484375,-0.00537877042889595,0.00011584493201225996,-0.003931494230031967
1761430274222890200,7.36389013671875,0.05943827739655971,0.014735668974835425,-0.04958952194675803
1761430274242834200,7.383834228515625,0.04787117372155189,0.10888840913893655,0.036495793226361276
1761430274262776800,7.40377685546875,0.0034901802033185957,0.11368002732964232,0.09360752737149595
1761430274282720800,7.423720703125,0.15788754571080207,-0.03523024853626266,0.03904898484051227
1761430274302664700,7.443664794921875,0.23987433952391146,-0.11854867454562336,-0.014828005167096852
1761430274322607900,7.46360791015625,0.10640811836421489,-0.044279323242045934,-0.052498979652673
1761430274342552000,7.483552001953125,0.02016658971607685,0.042145927942544216,0.07233882163241505
1761430274362495000,7.503494873046875,0.032444472008943556,-0.00020651889014989137,0.2101518398247659
1761430274382439000,7.52343896484375,0.00232055190205574,-0.08872682439154013,0.1750780422255397
1761430274402382800,7.5433828125,-0.13981529792547226,-0.10272557566026225,0.2123673239171505
1761430274422325800,7.56332568359375,-0.27552023792266844,-0.009026735009811817,0.1555344067133963
1761430274442269700,7.583269775390625,-0.29544951175153256,0.08141812707968056,0.14564882638454438
1761430274462212900,7.603212890625,-0.28304946438372136,0.08960000876318663,0.15689181267172098
1761430274482156800,7.62315673828125,-0.12879238412976265,0.05255239034034311,0.11743526994362473
1761430274502099700,7.643099609375,-0.03377542835175991,-0.04538585971184075,0.06719049895852804
1761430274522044000,7.6630439453125,-0.02971709287166595,0.0033603432785719633,-0.0481757096260786
1761430274541987800,7.68298779296875,0.11543372086286544,-0.12382526324167847,-0.13006284245699642
1761430274561931000,7.702930908203125,0.3212280961304903,-0.16172314181830733,-0.12405176547393203
1761430274581875000,7.722875,0.26250527352690695,-0.1354836253967136,-0.12061112350076436
1761430274601817900,7.74281787109375,0.27296646178662776,-0.0753061104727909,-0.04500000219941139
1761430274621761800,7.76276171875,0.36841245663166045,-0.0355636634754017,0.009017711453139782
1761430274641705700,7.782705810546875,0.3790758894652128,-0.03656560705956072,0.07787658201530576
1761430274661648600,7.802648681640625,0.27542437633275985,0.11504081255514174,0.11376827186867594
1761430274681592800,7.8225927734375,0.12378595414459705,0.15586594022270292,0.12644406743794678
1761430274701536000,7.842535888671875,0.14230419213175774,0.17791260806433856,0.20293679387941954
1761430274721480000,7.86247998046875,0.08267185346782208,0.05765522990468889,0.14891411179080605
1761430274741423900,7.882423828125,-0.12384323728978633,0.05550190606201067,0.16615253910049796
1761430274761366800,7.90236669921875,-0.17382044337987898,0.024311288305372,0.1922071639418602
1761430274781310700,7.922310791015625,-0.1991436852067709,0.016412443080637603,0.23561975081935524
1761430274801254000,7.94225390625,-0.18360124816000462,0.03307887918865308,0.11155381068959831
1761430274821197800,7.96219775390625,-0.12796119400262831,0.024363456884026528,0.14791896327361465
1761430274841142000,7.98214208984375,-0.16307050130665302,-0.0344511356562376,0.14082579014226793
1761430274861085000,8.0020849609375,-0.11878420033454894,-0.11921367779299616,0.0029785774193704126
1761430274881028900,8.02202880859375,0.015061375531554221,-0.11487183093009516,0.07268339728638529
1761430274900971800,8.0419716796875,-0.03265782249867916,0.003387048622407019,0.020580869605392217
1761430274920916000,8.061916015625,-0.1569230845928192,0.03728237702678889,0.014967267507314681
1761430274940860000,8.08185986328125,-0.1318961953639984,0.04792476707231253,-0.06307517259418964
1761430274960802800,8.101802734375,0.06503098283708095,0.04606290045687929,0.026677579045295715
1761430274980746800,8.121746826171876,0.20066227307617662,0.01774381954856217,0.10099822214469313
1761430275000689700,8.141689697265624,0.21197744781672953,0.05450032780403271,-0.029169688121974468
1761430275020633900,8.1616337890625,0.32083822003006934,0.019892887341231107,-0.004687719424813985
1761430275040577000,8.181576904296875,0.28568916523754595,0.004090612048190087,0.10586085974499583
1761430275060521000,8.20152099609375,-0.02635433844029903,-0.000453808182105422,0.06429039360284805
1761430275080465000,8.22146484375,-0.09169102622568606,-0.000735584265552461,0.04621127768531441
1761430275100407800,8.24140771484375,0.18564415216445923,-0.0029680560253560542,0.034831221015006304
1761430275120351700,8.261351806640626,0.3403144893944263,0.023615579392481593,0.05349617399647832
1761430275140295000,8.281294921875,0.023723989936709402,0.03798239678861573,0.03959595119878649
1761430275160238800,8.30123876953125,-0.215747614005208,0.014805007883999495,-0.013797493075579405
1761430275180183000,8.32118310546875,0.028778935238718984,-0.04822053514849394,-0.06255494811236859
1761430275200126000,8.3411259765625,0.31209318803846836,-0.13920052702799438,-0.020331132628023624
1761430275220070000,8.36106982421875,0.22720073591172693,-0.11119706967379897,-0.010835136138647793
1761430275240012800,8.3810126953125,0.00741699825823307,-0.042107093769498165,0.043859599992632864
1761430275259957500,8.40095751953125,0.029331892946362494,0.03084890991318971,0.0746289783962071
1761430275279901400,8.4209013671875,0.01172434006333351,-0.03640968584548682,0.08129574280902743
1761430275299844600,8.4408447265625,-0.04289630791842937,-0.0002485496672801673,0.0016366612911224365
1761430275319788500,8.46078857421875,-0.11459376290738582,0.03535893468353897,0.015589637189358472
1761430275339731500,8.4807314453125,-0.1308779582321644,0.14682400764375925,0.1019127066411078
1761430275359675400,8.50067529296875,0.006162029761075973,0.11158460768666117,0.05529240976348519
1761430275379618300,8.520618408203125,0.18870704686641693,-0.058660169163532554,-0.05293795559182763
1761430275399562200,8.540562255859374,0.1840413931429386,-0.16436450490625573,-0.1048055054731667
1761430275419506400,8.56050634765625,0.04873334350883961,-0.1336601362966001,-0.0636028497301042
1761430275439449600,8.58044970703125,0.03868658126890659,-0.05307743712775409,0.025640198821574447
1761430275459393500,8.6003935546875,0.09412848250567912,0.05895098706996068,0.1285572601996362
1761430275479336400,8.62033642578125,0.12371055082082748,0.002481295421719551,-0.008094166867434978
1761430275499280400,8.6402802734375,0.028670798689126968,-0.022502101725246755,0.08451163611561059
1761430275519224300,8.660224365234376,0.10809154140651225,-0.0007948949710465967,0.2050609464265406
1761430275539167500,8.68016748046875,0.15328209774196147,-0.006172423290926963,0.01040156702697277
1761430275559111400,8.700111328125,-0.020767478218674657,-0.06732364208521321,0.03265796862915158
1761430275579054300,8.720054443359375,-0.11204817007780074,-0.06154264753097668,0.05206935606375336
1761430275598998500,8.73999853515625,-0.09973054029643535,0.038709962144494056,0.06383344361558556
1761430275618942500,8.7599423828125,-0.05729366658329963,0.12716900244532153,0.1714427544631064
1761430275638885400,8.779885498046875,0.03331599414646625,0.08160181308351457,0.23405162471979854
1761430275658829600,8.79982958984375,-0.03458031499385834,-0.034398912278655915,0.12207725053057074
1761430275678772500,8.8197724609375,0.008401917642354964,-0.06181021242598071,0.02260170790851116
1761430275698716400,8.83971630859375,-0.0008189151674509048,-0.07502141177989542,0.07813917847424745
1761430275718660400,8.859660400390625,-0.0089624741345644,-0.008411836248170584,0.0687388974443078
1761430275738603300,8.879603271484376,-0.0629419016033411,0.019560933706816285,0.1039697853013873
1761430275758547500,8.89954736328125,0.0898246478319168,0.045291094100475306,0.04031374407932162
1761430275778490600,8.91949072265625,0.13395078980624675,-0.0161383388469927,0.034501550669223065
1761430275798434600,8.9394345703125,0.030938743621110914,-0.04151026038751006,-0.052731327103823424
1761430275818377500,8.95937744140625,-0.00898468596637249,-0.06891648250091821,-0.11471212859004735
1761430275838321400,8.9793212890625,0.18612638272345064,-0.0664212316190824,-0.029802725328505038
1761430275858265300,8.999265380859375,0.4121481379836798,0.008047459915187209,0.0460430815115571
1761430275878208500,9.01920849609375,0.31592648259103295,0.13664191032005474,0.17224705658331513
1761430275898152400,9.03915234375,-0.02689209857881069,0.1540158005776815,0.17730229414626955
1761430275918095400,9.059095458984375,-0.3606125965356827,0.20628502659508957,0.08091887232065201
1761430275938039600,9.07903955078125,-0.2946189061462879,0.1562425549827516,-0.0006029343292117119
1761430275957983500,9.0989833984375,-0.030596213793754577,-0.002165233476180583,-0.027100919023901222
1761430275977926400,9.118926513671875,0.12553250555098056,-0.1102527380283922,-0.10899988842308521
1761430275997870300,9.138870361328125,0.07609247507750988,-0.188831148170121,-0.1343622932165861
1761430276017813500,9.1588134765625,0.07457213364243508,-0.13299796432713046,-0.0970217197291553
1761430276037757400,9.17875732421875,0.04441021961271763,-0.01827723230551928,-0.09197364255934953
1761430276057700400,9.198700439453125,0.04864566522538662,0.10314853204637765,-0.03775383046343923
1761430276077644300,9.218644287109376,0.05637888982594013,0.13830936860824003,0.06137275259047746
1761430276097588500,9.23858837890625,0.1380401049464941,0.1011657789976336,0.04200228168815374
1761430276117531600,9.25853173828125,0.12525485765337943,-0.021415621662791817,0.0905564692378044
1761430276137475600,9.2784755859375,-0.04193126227855682,0.05372901463797316,0.09229863673001527
1761430276157418500,9.29841845703125,-0.1318441729158163,0.12874427067171781,0.07404679459407926
1761430276177362400,9.318362548828125,-0.014554010531306266,0.08420008594840765,0.030261428881436583
1761430276197306400,9.338306396484375,0.13886077367961405,0.04964855865761637,0.08531915310621262
1761430276217249300,9.358249267578126,0.18215514100492,0.0016672756250947713,0.07397723648920655
1761430276237193500,9.378193359375,0.16120821456611156,0.04254289137087762,0.13972396638020873
1761430276257136600,9.39813671875,0.02967792990505695,0.02693834887333214,0.07982435508221387
1761430276277079800,9.418079833984375,-0.0617436317294836,-0.007393544317409396,0.08378989771232008
1761430276297023700,9.438023681640624,-0.03761690621078014,0.07811347777741029,0.04296367406621575
1761430276316966700,9.457966552734375,0.05920972933769226,0.08618979846090077,0.02560761172622442
1761430276336910800,9.477910888671875,0.1265413903325796,0.07267824618723243,0.05508329705744981
1761430276356853800,9.497853759765626,0.08676701382696628,-0.039683739080093795,0.029263503885269163
1761430276376797700,9.517797607421874,0.07434592367112636,-0.0646259274338372,0.04316869511902332
1761430276396740600,9.53774072265625,-0.09199205499887465,-0.052681606210581954,0.10767930734381079
1761430276416684500,9.5576845703125,-0.1776671819359064,0.014401066725607961,0.13557634518146514
1761430276436628700,9.577628662109374,0.008988777619600296,0.10244003671715035,0.12712649674415588
1761430276456572000,9.597572021484375,0.23848025481700896,-0.060734217224922026,-0.036286680520325895
1761430276476515800,9.617515869140625,-0.05005260941386223,-0.11375270897336304,0.058835196936875576
1761430276496458800,9.637458740234376,-0.14898352376520632,-0.12940510920062662,0.014315233339369297
1761430276516402700,9.657402587890624,0.17045535086095331,-0.024869707639422266,-0.019128478839993475
1761430276536346600,9.6773466796875,0.20720950276255606,0.07915071187065914,0.167914872597903
1761430276556289800,9.697289794921875,0.005863923597335815,0.08242909422051162,0.13306319331675767
1761430276576233700,9.717233642578124,-0.32575229555666446,-0.04471769182642456,0.10397285404130815
1761430276596176600,9.7371767578125,-0.22331366534531116,-0.054268112783622924,-0.018429975181818006
1761430276616120800,9.757120849609375,-0.00590074847638607,-0.0778369167251978,0.06857260096669196
1761430276636064800,9.777064697265626,0.07357961547374725,0.036510013547958804,0.09092851742058992
1761430276656007700,9.797007568359374,0.017950082710385323,0.16660872190278023,0.019365210205316542
1761430276675951600,9.81695166015625,0.05216214891374111,0.013600554864527657,-0.11195713079348206
1761430276695894800,9.836894775390626,0.19556816480755804,-0.12093309459728188,-0.15362638113498686
1761430276715838700,9.856838623046874,-0.03070493486523628,-0.22999986511096357,-0.2470738956391811
1761430276735781600,9.87678173828125,0.09263619812130927,-0.24775665373895317,0.10469225435703992
1761430276755725600,9.8967255859375,0.1971913820952177,-0.0752475395528134,0.0856985078126192
1761430276775669800,9.916669677734374,-0.23175883760750293,0.016270568658225237,0.11372180237844585
