time,seconds_elapsed,z,y,x
1761430266943477800,0.084477783203125,0.5139904618263245,-0.3644336760044098,1.081206202507019
1761430266963421000,0.1044208984375,0.5337352156639099,-0.6462776064872742,0.7833465933799744
1761430266983365000,0.124365234375,0.5009754300117493,-0.4914923310279846,0.5973334312438965
1761430267003308000,0.14430810546875,0.41256868839263916,-0.22804564237594604,0.5386388897895813
1761430267023252000,0.164251953125,0.3387965261936188,-0.30204570293426514,0.36419156193733215
1761430267043196000,0.18419580078125,0.14719568192958832,-0.18191584944725037,0.09362494200468063
1761430267063139000,0.20413916015625,-0.03630221262574196,0.18187353014945984,-0.17212998867034912
1761430267083083000,0.2240830078125,-0.08418703079223633,0.3118530511856079,-0.4454124867916107
1761430267103026000,0.24402587890625,0.09406588971614838,0.5069637298583984,-0.5238783359527588
1761430267122969900,0.263969970703125,0.3355735242366791,0.501498818397522,-0.540199875831604
1761430267142914000,0.2839140625,0.43613508343696594,0.17086747288703918,-0.5730254054069519
1761430267162857000,0.30385693359375,0.43640604615211487,-0.31202688813209534,-0.5530179738998413
1761430267182801000,0.32380078125,0.26499101519584656,-0.640432596206665,-0.4096987545490265
1761430267202744000,0.343744140625,0.0968438908457756,-0.7554691433906555,-0.22138844430446625
1761430267222688000,0.36368798828125,0.027650000527501106,-0.8061612248420715,-0.17734397947788239
1761430267242632000,0.3836318359375,0.009003577753901482,-0.6942405104637146,-0.288248747587204
1761430267262575000,0.4035751953125,0.03684185445308685,-0.4637090861797333,-0.4058801531791687
1761430267282519000,0.42351904296875,0.09347281605005264,-0.19230544567108154,-0.3444153070449829
1761430267302462200,0.443462158203125,0.1311379224061966,-0.06021713465452194,-0.12021724879741669
1761430267322406100,0.46340625,0.12580588459968567,-0.12647083401679993,0.06512442976236343
1761430267342350300,0.483350341796875,0.150929793715477,-0.15913325548171997,0.12546510994434357
1761430267362293200,0.503293212890625,0.20347845554351807,-0.11691094934940338,0.11904588341712952
1761430267382237200,0.5232373046875,0.19804328680038452,-0.11217526346445084,0.10636332631111145
1761430267402180000,0.54318017578125,0.16221190989017487,-0.07551860809326172,0.11434582620859146
1761430267422124000,0.5631240234375,0.09099379926919937,-0.03053313121199608,0.0897129699587822
1761430267442068200,0.583068115234375,0.030771374702453613,0.003745384979993105,0.026688946411013603
1761430267462011100,0.60301123046875,0.005517122335731983,0.025534555315971375,-0.04028811678290367
1761430267481955000,0.622955078125,0.0034912738483399153,0.07567838579416275,-0.06666267663240433
1761430267501898000,0.64289794921875,0.025753406807780266,0.11687693744897842,-0.10429596900939941
1761430267521842200,0.66284228515625,0.05065074935555458,0.11770068854093552,-0.14329002797603607
1761430267541786000,0.6827861328125,0.07622671127319336,0.07138167321681976,-0.1547877937555313
1761430267561729300,0.702729248046875,0.09827782213687897,0.007753583136945963,-0.14136861264705658
1761430267581673200,0.722673095703125,0.1171395480632782,-0.008356018923223019,-0.10995491594076157
1761430267601616100,0.7426162109375,0.13151907920837402,-0.0023004915565252304,-0.04596816003322601
1761430267621560000,0.76256005859375,0.12592646479606628,0.025448065251111984,0.04886902496218681
1761430267641504000,0.78250390625,0.08831806480884552,0.030860690400004387,0.06707871705293655
1761430267661447200,0.802447265625,0.07839777320623398,0.08304150402545929,0.0054673305712640285
1761430267681391400,0.822391357421875,0.10572335124015808,0.13388898968696594,-0.022124024108052254
1761430267701334300,0.842334228515625,0.11865896731615067,0.06635083258152008,0.008572527207434177
1761430267721278200,0.8622783203125,0.1087033748626709,0.017201680690050125,0.07487298548221588
1761430267741222100,0.88222216796875,0.10019157826900482,0.09757047891616821,0.1352168470621109
1761430267761165000,0.9021650390625,0.10822364687919617,0.21677328646183014,0.16766652464866638
1761430267781109000,0.92210888671875,0.1301250159740448,0.19066879153251648,0.1585964858531952
1761430267801052200,0.94205224609375,0.1424511969089508,0.08183232694864273,0.12572136521339417
1761430267820996000,0.96199609375,0.16474482417106628,0.022707859054207802,0.08096518367528915
1761430267840940300,0.981940185546875,0.18926896154880524,0.05609412491321564,0.05797810107469559
1761430267860883200,1.00188330078125,0.19864489138126373,0.08284322917461395,0.05688445270061493
1761430267880827100,1.0218271484375,0.18763719499111176,0.015366951003670692,0.052024662494659424
1761430267900770300,1.041770263671875,0.12071708589792252,-0.12215860933065414,0.05133852735161781
1761430267920714200,1.06171435546875,0.059657659381628036,-0.13351653516292572,0.06222643703222275
1761430267940658200,1.081658203125,0.030521975830197334,0.01013579685240984,0.03259589523077011
1761430267960601000,1.10160107421875,0.02008422650396824,0.12767565250396729,-0.0554572194814682
1761430267980545000,1.121544921875,0.014557784423232079,0.12118571996688843,-0.1165105551481247
1761430268000488000,1.141488037109375,0.027680931612849236,0.037011321634054184,-0.09069456160068512
1761430268020432100,1.16143212890625,0.04576326161623001,0.020232873037457466,-0.02717764303088188
1761430268040376000,1.1813759765625,0.054214105010032654,0.054465241730213165,-0.007274189498275518
1761430268060319200,1.2013193359375,0.029223661869764328,0.07419697940349579,-0.05014261603355408
1761430268080263200,1.22126318359375,0.005918616894632578,0.047508157789707184,-0.11351215839385986
1761430268100206000,1.2412060546875,0.0007619675016030669,-0.012493647634983063,-0.11958053708076477
1761430268120150000,1.26114990234375,0.0058723073452711105,-0.0007504383102059364,-0.0988164022564888
1761430268140094000,1.281093994140625,0.025405865162611008,0.11406916379928589,-0.11375711858272552
1761430268160037000,1.301037109375,0.04309632629156113,0.16854140162467957,-0.13309842348098755
1761430268179981300,1.320981201171875,0.03818068280816078,0.06560619920492172,-0.11505705863237381
1761430268199924200,1.34092431640625,0.04214789345860481,-0.11994112282991409,-0.05464250221848488
1761430268219868200,1.3608681640625,0.05394938588142395,-0.1736491471529007,0.004789131227880716
1761430268239812000,1.38081201171875,0.033629871904850006,-0.08666908740997314,-0.011732532642781734
1761430268259757000,1.400757080078125,0.03683839365839958,0.03519633039832115,-0.09337630867958069
1761430268279701000,1.420700927734375,0.08071514964103699,0.08155962824821472,-0.12079717963933945
1761430268299644000,1.440643798828125,0.07786368578672409,-0.003315547714009881,-0.048410918563604355
1761430268319588000,1.460588134765625,0.051908284425735474,-0.06687133759260178,0.005280166864395142
1761430268339532000,1.480531982421875,0.06236906722187996,-0.015182185918092728,0.0031902221962809563
1761430268359475200,1.50047509765625,0.08244388550519943,0.005856738891452551,0.012898298911750317
1761430268379419100,1.520419189453125,0.08886659145355225,0.02334747277200222,0.07339615374803543
1761430268399362000,1.540362060546875,0.06000299006700516,-0.02894897386431694,0.11069835722446442
1761430268419306000,1.560305908203125,0.035031553357839584,-0.06598082929849625,0.09380300343036652
1761430268439249200,1.580249267578125,0.022730974480509758,-0.0646633431315422,0.06430146098136902
1761430268459193000,1.600193115234375,0.005939645692706108,-0.0595560297369957,0.05242317542433739
1761430268479137300,1.62013720703125,-0.021264899522066116,-0.04008916765451431,0.04812275618314743
1761430268499080200,1.640080078125,-0.040917783975601196,0.006651927251368761,0.009365297853946686
1761430268519024000,1.660024169921875,-0.039300329983234406,0.03199729323387146,-0.049415089190006256
1761430268538967000,1.679967041015625,-0.0021052206866443157,0.005116223357617855,-0.05974453315138817
1761430268558911000,1.699910888671875,0.03599512577056885,-0.08421649038791656,-0.016748277470469475
1761430268578855000,1.71985498046875,0.05403343588113785,-0.11671330779790878,0.01115418877452612
1761430268598798000,1.739798095703125,0.0625557005405426,-0.09015366435050964,-0.008718952536582947
1761430268618742000,1.759741943359375,0.053071312606334686,-0.06642124801874161,-0.022281261160969734
1761430268638685000,1.779684814453125,0.03590672090649605,-0.07174806296825409,-0.036454226821660995
1761430268658629000,1.799629150390625,0.0328475758433342,-0.03777196258306503,-0.0537896491587162
1761430268678573000,1.819572998046875,0.026409735903143883,-0.010095281526446342,-0.06361064314842224
1761430268698516200,1.83951611328125,0.04270600527524948,0.0002121375873684883,-0.036614712327718735
1761430268718460200,1.859460205078125,0.058434803038835526,-0.033699583262205124,0.004709239583462477
1761430268738403000,1.879403076171875,0.029866769909858704,-0.09684426337480545,-0.0010839349124580622
1761430268758347000,1.899346923828125,0.017852161079645157,-0.09568081796169281,-0.0639459416270256
1761430268778291000,1.919291015625,0.026097608730196953,-0.029178617522120476,-0.09557145088911057
1761430268798234000,1.939234130859375,0.05007869005203247,0.030032038688659668,-0.06790430098772049
1761430268818178300,1.95917822265625,0.049707695841789246,0.03324810415506363,-0.012122311629354954
1761430268838121200,1.979121337890625,0.03605068475008011,0.014584027230739594,-0.0010809535160660744
1761430268858065200,1.999065185546875,0.04708131402730942,-0.010965149849653244,-0.026336241513490677
1761430268878009000,2.019009033203125,0.05937620624899864,-0.049515314400196075,-0.08423837274312973
1761430268897952000,2.038951904296875,0.05138218030333519,-0.00030280742794275284,-0.15651346743106842
1761430268917896000,2.05889599609375,0.028498884290456772,0.035050343722105026,-0.20291553437709808
1761430268937839000,2.078839111328125,0.03616684302687645,0.028544379398226738,-0.17431825399398804
1761430268957783000,2.098782958984375,0.09889781475067139,-0.052556440234184265,-0.10058288276195526
1761430268977727200,2.118727294921875,0.10001155734062195,-0.09776195138692856,-0.03500429913401604
1761430268997670100,2.138670166015625,0.10107854753732681,-0.02252008765935898,-0.04328865185379982
1761430269017614000,2.158614013671875,0.11528322100639343,0.04331928491592407,-0.0877206102013588
1761430269037557200,2.17855712890625,0.12373021245002747,0.07373687624931335,-0.10759823769330978
1761430269057501200,2.198501220703125,0.12087047845125198,0.07935208827257156,-0.07688586413860321
1761430269077445000,2.218445068359375,0.11890649050474167,0.04833248257637024,-0.017520753666758537
1761430269097388000,2.238387939453125,0.11358814686536789,0.01253502257168293,0.024779722094535828
1761430269117332000,2.25833203125,0.11919018626213074,0.008384877815842628,0.041994668543338776
1761430269137275000,2.27827490234375,0.10674603283405304,0.01645452156662941,0.031703412532806396
1761430269157219000,2.298218994140625,0.11083793640136719,0.05381868779659271,-0.007469236850738525
1761430269177163000,2.3181630859375,0.11368902027606964,0.06740143895149231,-0.03640938550233841
1761430269197106200,2.338106201171875,0.11554032564163208,0.04649338126182556,-0.027157774195075035
1761430269217050000,2.358050048828125,0.0964808389544487,0.015255770646035671,0.013496710918843746
1761430269236993000,2.377992919921875,0.07664352655410767,0.0012747705914080143,0.02716165781021118
1761430269256935700,2.397935791015625,0.06303030997514725,0.017274588346481323,-0.016105761751532555
1761430269276878600,2.417878662109375,0.0452875941991806,0.014690287411212921,-0.05501982197165489
1761430269296822500,2.437822509765625,-0.0015789107419550419,-0.04432635009288788,-0.0629955604672432
1761430269316766500,2.457766357421875,-0.025567293167114258,-0.056894540786743164,-0.043983783572912216
1761430269336709400,2.47770947265625,-0.03220245987176895,0.053988128900527954,-0.036272816359996796
1761430269356653600,2.497653564453125,-0.020898478105664253,0.16162610054016113,-0.07878527790307999
1761430269376596700,2.5175966796875,0.01643930748105049,0.12020595371723175,-0.12547102570533752
1761430269396540700,2.537540771484375,0.07056678831577301,0.01706526428461075,-0.13669688999652863
1761430269416484600,2.557484619140625,0.12071151286363602,-0.06791085004806519,-0.08917433023452759
1761430269436427500,2.577427490234375,0.1280049979686737,-0.08963138610124588,-0.027368322014808655
1761430269456371500,2.597371337890625,0.11523367464542389,-0.08819796144962311,0.009149953722953796
1761430269476314600,2.617314697265625,0.11657396703958511,-0.18957312405109406,0.024270689114928246
1761430269496258600,2.637258544921875,0.1410161405801773,-0.24283398687839508,0.0851489007472992
1761430269516202800,2.65720263671875,0.159119114279747,-0.2324230819940567,0.17070694267749786
1761430269536145700,2.677145751953125,0.10776838660240173,-0.15882627665996552,0.16107791662216187
1761430269556089600,2.697089599609375,0.07352752983570099,0.02939765714108944,0.03087165392935276
1761430269576032500,2.717032470703125,0.05356983840465546,0.1775520294904709,-0.07686066627502441
1761430269595976700,2.736976806640625,0.036848146468400955,0.20333357155323029,-0.0997312068939209
1761430269615920600,2.756920654296875,0.03462623059749603,0.19506840407848358,-0.05785859003663063
1761430269635863600,2.776863525390625,0.03155180811882019,0.1219182088971138,-0.054307691752910614
1761430269655807500,2.796807373046875,0.08985060453414917,0.03924231231212616,-0.106121726334095
1761430269675750400,2.81675048828125,0.14428748190402985,-0.025510849431157112,-0.10128089785575867
1761430269695694600,2.836694580078125,0.1521778702735901,-0.08043563365936279,-0.032657522708177567
1761430269715638500,2.856638427734375,0.14203649759292603,-0.019575243815779686,0.04615894705057144
1761430269735581700,2.876581787109375,0.1445961594581604,0.002577526494860649,0.042411450296640396
1761430269755525600,2.896525634765625,0.14047253131866455,-0.0001756497658789158,0.010196788236498833
1761430269775468500,2.916468505859375,0.13008442521095276,-0.008247111923992634,0.0023936680518090725
1761430269795412500,2.93641259765625,0.12181176245212555,-0.04014516994357109,0.02877153642475605
1761430269815356400,2.9563564453125,0.1117321327328682,-0.07375355809926987,0.06936418265104294
1761430269835299600,2.976299560546875,0.10453072935342789,-0.05744557827711105,0.1030692607164383
1761430269855243800,2.996243896484375,0.06491459906101227,-0.1448412537574768,0.05022990331053734
1761430269875186700,3.016186767578125,0.039307575672864914,-0.13407668471336365,-0.08002940565347672
1761430269895130600,3.036130615234375,0.0258947741240263,0.0068010492250323296,-0.1816897690296173
1761430269915074600,3.056074462890625,0.008868531323969364,0.09073464572429657,-0.1923709213733673
1761430269935017500,3.076017578125,0.01535024307668209,0.046940695494413376,-0.1321076899766922
1761430269954961700,3.095961669921875,0.004149560816586018,-0.040148600935935974,-0.017306793481111526
1761430269974904600,3.115904541015625,-0.012223339639604092,-0.07866281270980835,0.03578401356935501
1761430269994848500,3.1358486328125,-0.030424684286117554,-0.034367505460977554,-0.011110367253422737
1761430270014792700,3.155792724609375,-0.04916246607899666,0.04156775772571564,-0.07252733409404755
1761430270034735600,3.175735595703125,-0.0556611642241478,0.09506335854530334,-0.0760369524359703
1761430270054679600,3.195679443359375,-0.06618036329746246,0.0684715285897255,-0.03092891536653042
1761430270074622700,3.215622802734375,-0.09054060280323029,0.03862008824944496,-0.02124219946563244
1761430270094566700,3.235566650390625,-0.09466671198606491,0.060062456876039505,-0.06393895298242569
1761430270114510600,3.255510498046875,-0.09020619094371796,0.12208796292543411,-0.08309517800807953
1761430270134453500,3.27545361328125,-0.08571209758520126,0.16221705079078674,-0.06755579262971878
1761430270154397400,3.2953974609375,-0.09055623412132263,0.1852453351020813,-0.0802229642868042
1761430270174340600,3.315340576171875,-0.0781053751707077,0.20713332295417786,-0.14859966933727264
1761430270194284800,3.335284912109375,-0.03758029267191887,0.14963409304618835,-0.2011042684316635
1761430270214228700,3.355228759765625,-0.016631027683615685,0.02392362430691719,-0.16347487270832062
1761430270234171600,3.375171630859375,-0.022722458466887474,-0.034914691001176834,-0.07267407327890396
1761430270254115000,3.395114990234375,-0.011889060027897358,-0.023314228281378746,-0.012106704525649548
1761430270274058000,3.41505810546875,0.013013238087296486,-0.031400036066770554,0.011060928925871849
1761430270294002200,3.435002197265625,0.018320536240935326,-0.029226427897810936,0.012102654203772545
1761430270313946400,3.4549462890625,0.03268568217754364,0.010071208700537682,-0.047998446971178055
1761430270333889300,3.47488916015625,0.03524750471115112,0.07108806818723679,-0.12318166345357895
1761430270353833200,3.494833251953125,0.022930733859539032,0.10852716863155365,-0.15323837101459503
1761430270373776100,3.514776123046875,0.025447027757763863,0.09013314545154572,-0.10683752596378326
1761430270393720000,3.534719970703125,0.04765958711504936,0.05481076240539551,-0.017030570656061172
1761430270413664000,3.5546640625,0.04047297686338425,0.021140338853001595,0.034618884325027466
1761430270433607200,3.574607177734375,0.04339094087481499,0.05216893553733826,0.00397126842290163
1761430270453551000,3.594551025390625,0.0465955026447773,0.0718207061290741,-0.027084698900580406
1761430270473494000,3.614493896484375,0.051238156855106354,0.0327676385641098,-0.0007357536815106869
1761430270493438200,3.634438232421875,0.06282185763120651,0.0283355750143528,0.06881887465715408
1761430270513382100,3.654382080078125,0.07953575998544693,0.06295470893383026,0.09455188363790512
1761430270533325300,3.6743251953125,0.08738149702548981,0.06837645173072815,0.043770357966423035
1761430270553269200,3.694269287109375,0.074271559715271,0.03065890073776245,0.017288414761424065
1761430270573212200,3.714212158203125,0.06708807498216629,0.019105417653918266,0.04292608052492142
1761430270593156000,3.734156005859375,0.08821098506450653,0.03618425130844116,0.09041604399681091
1761430270613100000,3.75410009765625,0.11211293935775757,0.05875759571790695,0.11919976025819778
1761430270633043000,3.77404296875,0.10952570289373398,0.011928323656320572,0.10330217331647873
1761430270652987100,3.793987060546875,0.0979224443435669,-0.06129273399710655,0.12336888909339905
1761430270672930300,3.813930419921875,0.05643084645271301,0.014560967683792114,0.19299542903900146
1761430270692874200,3.833874267578125,0.014365059323608875,0.10445020347833633,0.20517927408218384
1761430270712818200,3.853818115234375,0.008780548349022865,0.1809171736240387,0.11517566442489624
1761430270732761000,3.873760986328125,0.010589211247861385,0.23406709730625153,0.028308574110269547
1761430270752705000,3.893705078125,-0.004758765455335379,0.21912387013435364,0.015583137050271034
1761430270772648200,3.913648193359375,-0.03930078074336052,0.1889375001192093,0.0462573766708374
1761430270792592100,3.933592041015625,-0.043808743357658386,0.10874651372432709,0.06805918365716934
1761430270812536300,3.953536376953125,-0.013145245611667633,0.036673493683338165,0.07248955965042114
1761430270832479200,3.973479248046875,0.021890221163630486,0.004722780082374811,0.070345938205719
1761430270852423200,3.993423095703125,0.04859768599271774,-0.023524759337306023,0.06075705587863922
1761430270872366000,4.013365966796875,0.05182750150561333,-0.051217325031757355,0.04571473225951195
1761430270892310000,4.03331005859375,0.04814428091049194,-0.037282947450876236,0.03822682425379753
1761430270912254200,4.053254150390625,0.025926681235432625,-0.0291751716285944,0.0019470605766400695
1761430270932197000,4.073197021484375,0.02888387255370617,0.02472637966275215,-0.04049675539135933
1761430270952141000,4.09314111328125,0.031508173793554306,0.026350470259785652,-0.04960055276751518
1761430270972084000,4.113083984375,0.02825404517352581,-0.05524750426411629,-0.011855678632855415
1761430270992028200,4.133028076171875,0.029500868171453476,-0.09961690753698349,0.06644269824028015
1761430271011972000,4.15297216796875,0.009683685377240181,-0.06994884461164474,0.11282281577587128
1761430271031915300,4.172915283203125,-0.0030487002804875374,-0.032648466527462006,0.0988587886095047
1761430271051859200,4.192859130859375,0.0019235225627198815,0.0316322036087513,0.05421937257051468
1761430271071802000,4.212802001953125,-0.016633354127407074,0.011292063631117344,0.013422302901744843
1761430271091746000,4.23274609375,-0.032112445682287216,0.026844922453165054,-0.004126862622797489
1761430271111690000,4.25268994140625,-0.05312791466712952,0.03242965042591095,0.009766742587089539
1761430271131633200,4.272633056640625,-0.03721974045038223,0.0675298273563385,0.008928587660193443
1761430271151577300,4.292577392578125,-0.003502216888591647,0.053644441068172455,-0.0050625926814973354
1761430271171520300,4.312520263671875,0.017474675551056862,-0.0003940444439649582,0.01779516041278839
1761430271191464200,4.332464111328125,0.025056399405002594,-0.020031411200761795,0.03537692129611969
1761430271211408100,4.352408203125,0.026434093713760376,-0.03766307234764099,0.03230869770050049
1761430271231351000,4.37235107421875,0.0440559946000576,-0.05928526073694229,0.010096228681504726
1761430271251295000,4.392294921875,0.04382125660777092,-0.022036034613847733,0.00995838176459074
1761430271271238100,4.412238037109375,0.033369459211826324,0.018191609531641006,0.0007883203215897083
1761430271291182000,4.43218212890625,0.014320919290184975,0.0210398118942976,-0.014387546107172966
1761430271311126000,4.4521259765625,-0.007361096795648336,-0.047290898859500885,-0.02551114186644554
1761430271331069000,4.47206884765625,-0.011881210841238499,-0.06668555736541748,-0.029539011418819427
1761430271351013000,4.49201318359375,-0.002261970890685916,-0.05344920977950096,-0.04269907623529434
1761430271370956300,4.511956298828125,0.016210807487368584,-0.016723670065402985,-0.042667221277952194
1761430271390900200,4.531900146484375,0.013036349788308144,-0.011525164358317852,-0.03613220155239105
1761430271410844200,4.55184423828125,0.009469548240303993,-0.0011732070706784725,-0.026775343343615532
1761430271430787000,4.571787109375,0.014584346674382687,0.012960642576217651,-0.01915460266172886
1761430271450731000,4.59173095703125,0.015264645218849182,-0.02467663772404194,-0.006727015599608421
1761430271470674000,4.611673828125,0.022497622296214104,-0.09022092819213867,-0.010694007389247417
1761430271490618000,4.6316181640625,0.03550403565168381,-0.05122365429997444,-0.02303706668317318
1761430271510562300,4.651562255859375,0.03821048140525818,-0.0256132073700428,-0.042960118502378464
1761430271530505200,4.671505126953125,0.029483458027243614,-0.049988195300102234,-0.05581669136881828
1761430271550449200,4.69144921875,0.03269846737384796,-0.0964813381433487,-0.018935104832053185
1761430271570392000,4.71139208984375,0.0287675429135561,-0.16521282494068146,0.039410706609487534
1761430271590336000,4.7313359375,0.02268425188958645,-0.16441130638122559,0.04408050701022148
1761430271610280000,4.751280029296875,0.01592269539833069,-0.13450776040554047,-0.01695653609931469
1761430271630223000,4.77122314453125,0.0034606296103447676,-0.06377242505550385,-0.07782111316919327
1761430271650167000,4.7911669921875,-0.00039296457543969154,-0.03418949618935585,-0.08709743618965149
1761430271670110000,4.81110986328125,0.005375124514102936,-0.014534678310155869,-0.03261672332882881
1761430271690054100,4.83105419921875,0.005408552475273609,-0.03742918372154236,0.023205051198601723
1761430271709997000,4.8509970703125,0.016588838770985603,0.0059149060398340225,0.040280066430568695
1761430271729941200,4.870941162109375,0.03755146637558937,-0.01632111147046089,0.0421074703335762
1761430271749885200,4.89088525390625,0.05530983954668045,-0.07842715084552765,0.05261620506644249
1761430271769828000,4.910828125,0.09578924626111984,-0.08034557104110718,0.07479698210954666
1761430271789772000,4.93077197265625,0.0906522125005722,-0.08230435848236084,0.07913148403167725
1761430271809715000,4.95071484375,0.06872093677520752,-0.03564558923244476,0.04804946854710579
1761430271829659000,4.970658935546875,0.04289505258202553,0.006897941697388887,0.011243358254432678
1761430271849603000,4.99060302734375,0.004830600693821907,0.03563332557678223,-0.01163889467716217
1761430271869546200,5.010546142578125,-0.015755310654640198,0.051931899040937424,-0.007479249965399504
1761430271889490200,5.030490234375,-0.0391111858189106,0.0018314337357878685,0.0007802196778357029
1761430271909433000,5.05043310546875,-0.0481424443423748,-0.03318662941455841,0.009160766378045082
1761430271929377000,5.070376953125,-0.04321543127298355,-0.020082637667655945,0.000728079816326499
1761430271949321000,5.090321044921875,-0.01974453032016754,-0.0011031660251319408,-0.009030967950820923
1761430271969264000,5.11026416015625,0.0028165671974420547,0.01715397834777832,-0.016644200310111046
1761430271989208000,5.1302080078125,-0.0025356044061481953,0.042172275483608246,-0.01925947703421116
1761430272009151000,5.15015087890625,-0.02825346775352955,0.059903308749198914,-0.012168492190539837
1761430272029095200,5.17009521484375,-0.026650650426745415,0.05437016487121582,-0.02775389887392521
1761430272049039000,5.1900390625,-0.0010487447725608945,-0.0037382543087005615,-0.05025382712483406
1761430272068982000,5.20998193359375,0.023618942126631737,-0.04848749190568924,-0.04708828777074814
1761430272088926000,5.229926025390625,0.024593502283096313,-0.0647861585021019,-0.01507613155990839
1761430272108869000,5.249869140625,0.030406076461076736,-0.06710237264633179,0.016703367233276367
1761430272128813000,5.26981298828125,0.035265401005744934,-0.04570848122239113,0.04880804568529129
1761430272148756000,5.289755859375,0.023290934041142464,-0.049889739602804184,0.0703526958823204
1761430272168700000,5.309699951171875,-0.007345875725150108,-0.0519348606467247,0.0435161292552948
1761430272188644000,5.32964404296875,-0.026236364617943764,-0.0447566993534565,-0.019945507869124413
1761430272208587300,5.349587158203125,-0.023052481934428215,-0.0004334435798227787,-0.05075817555189133
1761430272228531200,5.36953125,-0.006373092532157898,0.059050705283880234,-0.01878388784825802
1761430272248474000,5.38947412109375,-0.011753459461033344,0.031160717830061913,0.034316662698984146
1761430272268417800,5.409417724609375,-0.015904458239674568,-0.029332108795642853,0.06981862336397171
1761430272288361700,5.42936181640625,-0.03114512749016285,-0.03760833665728569,0.04793958365917206
1761430272308305000,5.449304931640625,-0.03553907945752144,0.0053236838430166245,-0.008661375381052494
1761430272328249000,5.4692490234375,-0.031291618943214417,0.007563166785985231,-0.06252572685480118
1761430272348192000,5.48919189453125,-0.016410697251558304,0.04526571184396744,-0.05414577201008797
1761430272368136000,5.509135986328125,-0.027270691469311714,0.00437754113227129,-0.019145812839269638
1761430272388079900,5.529079833984375,-0.014942189678549767,-0.016513705253601074,0.013217025436460972
1761430272408022800,5.549022705078125,-0.019325949251651764,-0.037930235266685486,0.03217223659157753
1761430272427966700,5.568966796875,-0.011503057554364204,-0.020292198285460472,0.019870828837156296
1761430272447910000,5.588909912109375,-0.028637275099754333,0.0005113668739795685,-0.009960676543414593
1761430272467853800,5.608853759765625,-0.04052412137389183,0.034299254417419434,-0.05393916368484497
1761430272487798000,5.628798095703125,-0.04306955635547638,0.02174755372107029,-0.08953113108873367
1761430272507741000,5.648740966796875,-0.01809210702776909,-0.006259124260395765,-0.08444971591234207
1761430272527684900,5.668684814453125,0.004075166303664446,-0.06563069671392441,-0.038685962557792664
1761430272547628000,5.6886279296875,0.0045202202163636684,-0.07408696413040161,-0.00554984575137496
1761430272567572000,5.708572021484375,0.0034620598889887333,-0.01854439452290535,-0.0027532042004168034
1761430272587515000,5.728514892578125,0.006176903378218412,-0.01790180616080761,-0.03377791866660118
1761430272607458800,5.748458740234375,0.0011810333235189319,-0.009928020648658276,-0.052972059696912766
1761430272627402800,5.76840283203125,-0.008237119764089584,-0.002766984049230814,-0.03908862918615341
1761430272647345700,5.788345703125,-0.015552504919469357,-0.022966418415308,-0.011569012887775898
1761430272667289900,5.808289794921875,-0.030146552249789238,-0.0008605835027992725,-0.0010771217057481408
1761430272687233000,5.82823291015625,-0.04493095353245735,0.03435108810663223,-0.001401705900207162
1761430272707177000,5.848177001953125,-0.023015109822154045,0.12027544528245926,-0.016706258058547974
1761430272727121000,5.868120849609375,-0.006080885883420706,0.11703680455684662,-0.020075205713510513
1761430272747063800,5.888063720703125,0.004606171045452356,0.02396814525127411,-0.00011875550262629986
1761430272767007700,5.9080078125,0.0033451938070356846,-0.0176895372569561,0.007280729245394468
1761430272786951000,5.927950927734375,-0.02384890615940094,-0.001485015731304884,0.023627053946256638
1761430272806894800,5.947894775390625,-0.09016094356775284,0.0054137930274009705,0.046378761529922485
1761430272826839000,5.967839111328125,-0.1557755023241043,0.0891093760728836,-0.04921774938702583
1761430272846782000,5.987781982421875,-0.1862703412771225,0.07925610989332199,-0.17797476053237915
1761430272866726000,6.007725830078125,-0.1879623383283615,0.030609961599111557,-0.14329902827739716
1761430272886668800,6.027668701171875,-0.174756720662117,-0.01954207755625248,-0.044210366904735565
1761430272906613000,6.047613037109375,-0.14872749149799347,-0.03206611052155495,-0.012696225196123123
1761430272926557000,6.067556884765625,-0.10107811540365219,-0.004763070959597826,0.036194294691085815
1761430272946499800,6.087499755859375,-0.06556316465139389,-0.023703064769506454,0.06146892160177231
1761430272966443800,6.10744384765625,-0.0820997953414917,-0.14515598118305206,-0.04576645419001579
1761430272986386700,6.12738671875,-0.06238672509789467,-0.11537346988916397,-0.1436101794242859
1761430273006331000,6.147330810546875,-0.052776556462049484,-0.0057962508872151375,-0.13559450209140778
1761430273026274000,6.167274169921875,-0.05955765023827553,0.022882141172885895,-0.06797454506158829
1761430273046218000,6.187218017578125,-0.05969672277569771,0.00012771552428603172,-0.018547991290688515
1761430273066162000,6.207161865234375,-0.03411516547203064,0.033965855836868286,-0.010506950318813324
1761430273086104800,6.227104736328125,0.009958800859749317,0.04685718193650246,-0.034825656563043594
1761430273106048800,6.247048828125,0.03330256789922714,0.014766987413167953,-0.058214280754327774
1761430273125992000,6.266991943359375,0.04542790353298187,0.08868349343538284,-0.07496902346611023
1761430273145936000,6.286935791015625,0.048729196190834045,0.13954806327819824,-0.09581279009580612
1761430273165880000,6.306880126953125,0.055337369441986084,0.031387053430080414,-0.08545186370611191
1761430273185823000,6.326822998046875,0.06270566582679749,-0.08724787086248398,-0.010854915715754032
1761430273205767000,6.346766845703125,0.06383458524942398,-0.11275025457143784,0.039856042712926865
1761430273225709800,6.366709716796875,0.06396159529685974,-0.0501747764647007,0.0035812309943139553
1761430273245653800,6.38665380859375,0.05908951908349991,0.019898004829883575,-0.03264383226633072
1761430273265598000,6.406597900390625,0.07658462971448898,0.01888725906610489,-0.028308793902397156
1761430273285541000,6.426541015625,0.06264127045869827,-0.041103437542915344,0.029671579599380493
1761430273305485300,6.4464853515625,0.043795790523290634,-0.06145791336894035,0.05638505518436432
1761430273325428200,6.46642822265625,0.03275775909423828,-0.006688692141324282,0.021352609619498253
1761430273345372200,6.4863720703125,0.01999981515109539,0.060761645436286926,-0.026567405089735985
1761430273365316000,6.506316162109375,0.01327770110219717,0.08201977610588074,-0.021179988980293274
1761430273385259300,6.52625927734375,0.0044852751307189465,0.022909853607416153,0.017693374305963516
1761430273405203200,6.546203125,0.0030841282568871975,-0.021676022559404373,0.01926911249756813
1761430273425146000,6.56614599609375,0.019601810723543167,0.029048612341284752,-0.0075007155537605286
1761430273445090000,6.586090087890625,0.04556799679994583,0.03967205435037613,0.020095812156796455
1761430273465034200,6.6060341796875,0.04212689772248268,0.0013472875580191612,0.08761131763458252
1761430273484977200,6.62597705078125,0.021069861948490143,-0.015954487025737762,0.0899210125207901
1761430273504921000,6.645921142578125,0.011851775459945202,-0.00217214273288846,0.009228888899087906
1761430273524864300,6.6658642578125,0.030838584527373314,0.013156292960047722,-0.06767052412033081
1761430273544808200,6.68580810546875,0.05279973894357681,0.016106197610497475,-0.06749145686626434
1761430273564752100,6.705752197265625,0.05759286880493164,-0.005312025547027588,-0.010858428664505482
1761430273584695000,6.725695068359375,0.04593399167060852,-0.022761229425668716,0.019006676971912384
1761430273604639000,6.745638916015625,0.03734258562326431,-0.005032816901803017,-0.014165329746901989
1761430273624582100,6.76558203125,0.05028470978140831,0.03096000850200653,-0.04467557370662689
1761430273644526300,6.7855263671875,0.04887242615222931,0.025621652603149414,-0.05240816995501518
1761430273664470300,6.80547021484375,0.056374307721853256,0.02548859268426895,-0.04810028523206711
1761430273684413200,6.8254130859375,0.06349098682403564,-0.035391710698604584,-0.014937122352421284
1761430273704357000,6.845357177734375,0.06382342427968979,-0.07901762425899506,0.01744852028787136
1761430273724300000,6.865300048828125,0.04519980773329735,-0.06137508898973465,0.032227523624897
1761430273744244200,6.885244140625,0.04125526174902916,-0.00851922295987606,0.019107669591903687
1761430273764187100,6.905187255859375,0.024411898106336594,0.06030340492725372,-0.009005241096019745
1761430273784131000,6.925131103515625,0.013576467521488667,0.09306623786687851,-0.027616851031780243
1761430273804075300,6.9450751953125,0.00477204006165266,0.017000533640384674,-0.0221403781324625
1761430273824018200,6.96501806640625,-0.0163749810308218,-0.0523468516767025,-0.0017801433568820357
1761430273843962000,6.984962158203125,-0.035851821303367615,-0.017087256535887718,0.0025368337519466877
1761430273863905300,7.0049052734375,-0.04221359267830849,0.029754897579550743,-0.026330437511205673
1761430273883849200,7.02484912109375,-0.034226227551698685,0.045637767761945724,-0.038947321474552155
1761430273903793200,7.044793212890625,-0.009478366933763027,0.03792542591691017,-0.026031041517853737
1761430273923736000,7.064736083984375,0.002170947613194585,-0.0017998176626861095,-0.004647619556635618
1761430273943680000,7.084679931640625,0.0058067068457603455,-0.03610421344637871,0.004823488648980856
1761430273963623200,7.104623046875,0.014828755520284176,-0.03188600391149521,-0.0023044096305966377
1761430273983567400,7.1245673828125,0.0212631206959486,-0.03954081982374191,-0.022920792922377586
1761430274003511300,7.14451123046875,0.011300836689770222,-0.014489185065031052,-0.0395619235932827
1761430274023454200,7.1644541015625,0.0023910924792289734,0.03404144197702408,-0.03873453661799431
1761430274043398100,7.184398193359375,0.0035670576617121696,0.038063835352659225,-0.009251423180103302
1761430274063341000,7.204341064453125,-0.012376679107546806,-0.019725162535905838,0.0017800229834392667
1761430274083285000,7.224284912109375,-0.0050207218155264854,-0.061744190752506256,-0.015259943902492523
1761430274103229000,7.24422900390625,0.005894076079130173,-0.053786035627126694,-0.031074007973074913
1761430274123172000,7.264172119140625,0.00014009035658091307,-0.03971942514181137,-0.0472915917634964
1761430274143116300,7.2841162109375,-0.009799093008041382,0.04093600809574127,-0.05669628083705902
1761430274163059200,7.30405908203125,-0.015318939462304115,0.050453655421733856,-0.05875416100025177
1761430274183003100,7.324003173828125,-0.023845668882131577,-0.016193058341741562,-0.010508543811738491
1761430274202947000,7.343947021484375,-0.03681016340851784,-0.015644386410713196,0.0036315107718110085
1761430274222890200,7.36389013671875,-0.055909816175699234,0.004290094133466482,-0.016412565484642982
1761430274242834200,7.383834228515625,-0.05107712373137474,0.03544287383556366,-0.02354264073073864
1761430274262776800,7.40377685546875,-0.033811524510383606,0.06941445916891098,0.00937781110405922
1761430274282720800,7.423720703125,-0.03483935445547104,0.01407204382121563,0.02429194375872612
1761430274302664700,7.443664794921875,-0.05384112894535065,-0.04911750182509422,-0.009982945397496223
1761430274322607900,7.46360791015625,-0.06863405555486679,-0.0084450151771307,-0.02945432811975479
1761430274342552000,7.483552001953125,-0.05477107688784599,0.005888241343200207,-0.018503038212656975
1761430274362495000,7.503494873046875,-0.02582152560353279,-0.03993437439203262,-0.0009720821981318295
1761430274382439000,7.52343896484375,-0.019151287153363228,-0.056984417140483856,-0.0021106393542140722
1761430274402382800,7.5433828125,-0.021645070984959602,-0.09198500961065292,0.010339105501770973
1761430274422325800,7.56332568359375,-0.025509722530841827,-0.05240286886692047,0.011815774254500866
1761430274442269700,7.583269775390625,-0.016454944387078285,0.0004992415197193623,-0.002588307484984398
1761430274462212900,7.603212890625,-0.00030265457462519407,0.0462648831307888,0.0029138424433767796
1761430274482156800,7.62315673828125,0.02179599739611149,0.050040632486343384,0.02650885283946991
1761430274502099700,7.643099609375,0.019215276464819908,-0.016193043440580368,0.04400758817791939
1761430274522044000,7.6630439453125,0.008578930050134659,0.007613062392920256,0.08644676953554153
1761430274541987800,7.68298779296875,-0.02723567560315132,-0.013393889181315899,0.08591663092374802
1761430274561931000,7.702930908203125,-0.06991412490606308,-0.10505051165819168,0.033028122037649155
1761430274581875000,7.722875,-0.0966394767165184,-0.13397909700870514,0.0031903311610221863
1761430274601817900,7.74281787109375,-0.08272580057382584,-0.10452990978956223,-0.023908507078886032
1761430274621761800,7.76276171875,-0.0819321870803833,-0.11573280394077301,-0.01929415948688984
1761430274641705700,7.782705810546875,-0.08802468329668045,-0.2523651421070099,-0.03335196524858475
1761430274661648600,7.802648681640625,-0.06342583894729614,-0.2827845513820648,-0.03352997452020645
1761430274681592800,7.8225927734375,-0.030440496280789375,-0.1886005699634552,-0.029807409271597862
1761430274701536000,7.842535888671875,0.0071372101083397865,-0.09970241039991379,-0.08567190170288086
1761430274721480000,7.86247998046875,0.01055198535323143,-0.03216669708490372,-0.13293512165546417
1761430274741423900,7.882423828125,0.019339222460985184,0.0020960900001227856,-0.1220129132270813
1761430274761366800,7.90236669921875,0.02907445654273033,-0.0022310311906039715,-0.09039672464132309
1761430274781310700,7.922310791015625,0.04714325815439224,0.015645548701286316,-0.05859526991844177
1761430274801254000,7.94225390625,0.05345957726240158,0.03227948024868965,-0.05441218987107277
1761430274821197800,7.96219775390625,0.07056449353694916,0.026846082881093025,-0.048532091081142426
1761430274841142000,7.98214208984375,0.0820717066526413,0.013041790574789047,0.0005353189771994948
1761430274861085000,8.0020849609375,0.06466416269540787,0.018908705562353134,0.020641334354877472
1761430274881028900,8.02202880859375,0.058000754565000534,0.016011230647563934,-0.0129033662378788
1761430274900971800,8.0419716796875,0.05512832850217819,0.04890396445989609,-0.021772174164652824
1761430274920916000,8.061916015625,0.053130120038986206,0.07123211026191711,0.00851275771856308
1761430274940860000,8.08185986328125,0.0453692264854908,0.10337849706411362,0.04990372434258461
1761430274960802800,8.101802734375,0.04645921662449837,0.0751689001917839,0.08033911883831024
1761430274980746800,8.121746826171876,0.05316904932260513,0.029283441603183746,0.07054481655359268
1761430275000689700,8.141689697265624,0.0437728613615036,0.05024729296565056,0.04750831425189972
1761430275020633900,8.1616337890625,0.03581710159778595,0.04925171285867691,-0.006879346910864115
1761430275040577000,8.181576904296875,0.043045930564403534,0.009886616840958595,-0.039877887815237045
1761430275060521000,8.20152099609375,0.0404474101960659,0.02616625651717186,0.016856662929058075
1761430275080465000,8.22146484375,0.0412374883890152,0.026246823370456696,0.09618078172206879
1761430275100407800,8.24140771484375,0.035110954195261,-0.029442723840475082,0.08170585334300995
1761430275120351700,8.261351806640626,0.03996407613158226,-0.06407707184553146,0.031080497428774834
1761430275140295000,8.281294921875,0.04785311594605446,-0.08669643104076385,0.04034430533647537
1761430275160238800,8.30123876953125,0.04550206661224365,-0.03978116065263748,0.1054193302989006
1761430275180183000,8.32118310546875,0.0226456206291914,0.018232572823762894,0.09791678190231323
1761430275200126000,8.3411259765625,0.004461196716874838,0.014727149158716202,0.01970709301531315
1761430275220070000,8.36106982421875,-0.012854726053774357,-0.020182741805911064,-0.026267169043421745
1761430275240012800,8.3810126953125,-0.014990185387432575,-0.0025433246046304703,-0.02065816894173622
1761430275259957500,8.40095751953125,-0.010832804255187511,0.0010893680155277252,-0.045063912868499756
1761430275279901400,8.4209013671875,-0.00869645643979311,0.027058852836489677,-0.07456721365451813
1761430275299844600,8.4408447265625,-0.012130800634622574,0.035536304116249084,-0.06756746768951416
1761430275319788500,8.46078857421875,-0.016827205196022987,-0.01423618383705616,-0.0064476486295461655
1761430275339731500,8.4807314453125,0.011269302107393742,-0.053009822964668274,0.05772584676742554
1761430275359675400,8.50067529296875,0.027555221691727638,-0.02523638680577278,0.05993770435452461
1761430275379618300,8.520618408203125,0.016893543303012848,0.004876335617154837,-0.0016050625126808882
1761430275399562200,8.540562255859374,-0.02531694807112217,0.014585953205823898,-0.05342581868171692
1761430275419506400,8.56050634765625,-0.05584576725959778,0.040350593626499176,-0.050130732357501984
1761430275439449600,8.58044970703125,-0.06812133640050888,0.026959875598549843,-0.03431561216711998
1761430275459393500,8.6003935546875,-0.04971636086702347,-0.008856207132339478,-0.037191711366176605
1761430275479336400,8.62033642578125,-0.05465252697467804,-0.025578539818525314,-0.08224020153284073
1761430275499280400,8.6402802734375,-0.042885761708021164,-0.022342078387737274,-0.1132977157831192
1761430275519224300,8.660224365234376,0.0041346242651343346,0.02963145077228546,-0.09015671163797379
1761430275539167500,8.68016748046875,0.005084150470793247,-0.02718721516430378,-0.061671916395425797
1761430275559111400,8.700111328125,-0.018200034275650978,-0.09969434142112732,-0.012578885070979595
1761430275579054300,8.720054443359375,-0.01637778989970684,-0.05795874074101448,0.02351163700222969
1761430275598998500,8.73999853515625,-0.009803423658013344,-0.009714731946587563,0.03860398009419441
1761430275618942500,8.7599423828125,0.01752074807882309,-0.01066292729228735,0.06332536041736603
1761430275638885400,8.779885498046875,0.040231768041849136,-0.05872839316725731,0.05384194478392601
1761430275658829600,8.79982958984375,0.04157928377389908,-0.028118005022406578,0.027482302859425545
1761430275678772500,8.8197724609375,0.02262800931930542,0.023309215903282166,-0.008234741166234016
1761430275698716400,8.83971630859375,0.02022479474544525,0.04084569215774536,-0.013297458179295063
1761430275718660400,8.859660400390625,0.019706137478351593,-0.0034942305646836758,0.02127884142100811
1761430275738603300,8.879603271484376,0.03175611421465874,-0.0046407366171479225,0.07289393991231918
1761430275758547500,8.89954736328125,0.035069871693849564,0.004575084429234266,0.06615550071001053
1761430275778490600,8.91949072265625,0.03624682128429413,0.009622402489185333,0.01977393962442875
1761430275798434600,8.9394345703125,0.01821615733206272,0.031417980790138245,0.01517439354211092
1761430275818377500,8.95937744140625,-0.02048649825155735,0.05057170242071152,0.06550228595733643
1761430275838321400,8.9793212890625,-0.048643894493579865,0.04148522764444351,0.06690943986177444
1761430275858265300,8.999265380859375,-0.0486268475651741,0.028947066515684128,-0.029056500643491745
1761430275878208500,9.01920849609375,-0.014500943943858147,0.003572859801352024,-0.10598260164260864
1761430275898152400,9.03915234375,0.0270389337092638,-0.05320987105369568,-0.07395772635936737
1761430275918095400,9.059095458984375,0.046328749507665634,-0.07552924752235413,0.03186362609267235
1761430275938039600,9.07903955078125,0.053127337247133255,-0.016401663422584534,0.0997520163655281
1761430275957983500,9.0989833984375,0.04864547401666641,0.008687961846590042,0.07460283488035202
1761430275977926400,9.118926513671875,0.018303360790014267,0.04198945686221123,0.005599896889179945
1761430275997870300,9.138870361328125,-0.013257109560072422,0.04874661937355995,-0.02063276432454586
1761430276017813500,9.1588134765625,-0.041404157876968384,0.005442194640636444,-0.01366492174565792
1761430276037757400,9.17875732421875,-0.052076634019613266,-0.019682442769408226,-0.007336664944887161
1761430276057700400,9.198700439453125,-0.048182375729084015,0.0057713924907147884,-0.013073650188744068
1761430276077644300,9.218644287109376,-0.02521655522286892,-0.004584731534123421,-0.012496432289481163
1761430276097588500,9.23858837890625,-0.02785337343811989,-0.058770567178726196,0.010827314108610153
1761430276117531600,9.25853173828125,-0.035498373210430145,-0.1439763754606247,0.014661788940429688
1761430276137475600,9.2784755859375,-0.02982080727815628,-0.09864087402820587,0.02516753412783146
1761430276157418500,9.29841845703125,-0.021714143455028534,-0.012096930295228958,0.045358557254076004
1761430276177362400,9.318362548828125,-0.0291400458663702,0.013291548006236553,0.023059425875544548
1761430276197306400,9.338306396484375,-0.032946500927209854,-0.013145651668310165,-0.009613565169274807
1761430276217249300,9.358249267578126,-0.03073749504983425,-0.01714470051229,-0.04057302325963974
1761430276237193500,9.378193359375,-0.012296419590711594,-0.043781135231256485,-0.04869987815618515
1761430276257136600,9.39813671875,-0.008164710365235806,-0.06117278337478638,-0.03197841718792915
1761430276277079800,9.418079833984375,-0.011437805369496346,-0.01722724363207817,0.004974115174263716
1761430276297023700,9.438023681640624,-0.006756471935659647,-0.0016450718976557255,0.029942208901047707
1761430276316966700,9.457966552734375,0.002127578482031822,-0.008665650151669979,0.016357000917196274
1761430276336910800,9.477910888671875,0.010345520451664925,-0.0028222049586474895,-0.026654649525880814
1761430276356853800,9.497853759765626,0.009062420576810837,0.03759637102484703,-0.05392264947295189
1761430276376797700,9.517797607421874,0.005478842183947563,0.02099980227649212,-0.0694519653916359
1761430276396740600,9.53774072265625,0.006169713102281094,-0.023303229361772537,-0.03002072684466839
1761430276416684500,9.5576845703125,0.027793260291218758,-0.04061372950673103,0.014714094810187817
1761430276436628700,9.577628662109374,0.047864075750112534,-0.026840753853321075,0.017786264419555664
1761430276456572000,9.597572021484375,0.03662995249032974,0.02681887149810791,-0.04384343698620796
1761430276476515800,9.617515869140625,0.031457602977752686,0.03088531643152237,-0.06683263927698135
1761430276496458800,9.637458740234376,-0.012996031902730465,0.05976256728172302,-0.08473803848028183
1761430276516402700,9.657402587890624,-0.04436793923377991,0.10536371171474457,-0.2167043834924698
1761430276536346600,9.6773466796875,-0.020439261570572853,0.21546514332294464,-0.3265746235847473
1761430276556289800,9.697289794921875,0.028506936505436897,0.21977034211158752,-0.2926510274410248
1761430276576233700,9.717233642578124,0.03089716285467148,0.13705794513225555,-0.10619645565748215
1761430276596176600,9.7371767578125,0.011696189641952515,0.06309391558170319,0.06093144789338112
1761430276616120800,9.757120849609375,-0.011322323232889175,-0.0290677510201931,0.10501197725534439
1761430276636064800,9.777064697265626,0.007383355870842934,0.0009518386796116829,0.06418992578983307
1761430276656007700,9.797007568359374,0.051115844398736954,0.08036132156848907,0.042869988828897476
1761430276675951600,9.81695166015625,0.052352357655763626,0.12214316427707672,-0.011587550863623619
1761430276695894800,9.836894775390626,0.0248336773365736,0.298016756772995,-0.04509901627898216
1761430276715838700,9.856838623046874,-0.029257066547870636,0.25547367334365845,0.0021132337860763073
1761430276735781600,9.87678173828125,-0.005525854416191578,0.008048818446695805,0.06515196710824966
1761430276755725600,9.8967255859375,0.024485938251018524,-0.06946771591901779,0.06324280798435211
1761430276775669800,9.916669677734374,0.006666235625743866,-0.048092857003211975,0.18619056046009064
