time,seconds_elapsed,z,y,x
1761481485887890700,0.073890625,2.3059224882006646,7.694346880626678,0.7064337205223739
1761481485907833600,0.09383349609375,1.6300582395955918,6.825236480420828,-0.12625818947702647
1761481485927775700,0.113775634765625,0.49434302158951754,6.038510348913073,-0.6267546191297472
1761481485947718700,0.13371875,-0.3080146865531802,5.572220286375284,-1.6148445961117743
1761481485967660500,0.15366064453125,-0.5133005277767777,4.58429587521851,-1.7712696680545805
1761481485987603700,0.173603759765625,-0.43020489593893285,3.8029537748366593,1.346802000593394
1761481486007545600,0.193545654296875,-2.1230261734396216,1.926636755377054,4.123093491208553
1761481486027488800,0.21348876953125,-3.539977376666665,-1.7753823640704154,1.0464201470062136
1761481486047430700,0.2334306640625,-1.0234823390111327,-3.6171366041928525,-4.614317211733758
1761481486067373800,0.253373779296875,1.8505789132215082,-4.542840413758158,-2.42688125609532
1761481486087315500,0.2733154296875,-0.4238835839629173,-5.49661997872889,6.377526030668616
1761481486107258600,0.293258544921875,-4.2822605553358795,-5.295958290174603,4.0059336772054435
1761481486127200500,0.313200439453125,-1.9526935721755028,-8.652333249637485,0.4137913751460612
1761481486147142700,0.333142578125,1.227053631401807,-8.768967578461766,-1.949514211487025
1761481486167085300,0.353085205078125,1.8863227190367877,-7.6598372927814715,-1.0015849069144576
1761481486187027200,0.373027099609375,1.620917778545618,-6.768976248538494,0.9957318700373172
1761481486206970000,0.39297021484375,0.97998601937294,-5.178277667167783,-1.0883854576848446
1761481486226912300,0.412912353515625,1.2456237457066774,-3.4807197165340185,-2.9346003304779527
1761481486246855200,0.432855224609375,1.1019741303153336,-0.961035819709301,-2.420526918632537
1761481486266797300,0.45279736328125,0.552217118409276,2.1439450428277254,0.019619148433767258
1761481486286740200,0.472740234375,-0.07774696428626775,4.1749265542984,0.8927677546471356
1761481486306682400,0.492682373046875,-1.0440221459537744,4.766708205854893,0.0068622869849205015
1761481486326625300,0.512625244140625,-1.3831792820066213,4.506368001407385,-0.9695186936333775
1761481486346567400,0.5325673828125,-0.14807780709713697,4.618475208196044,-1.3012320895515381
1761481486366510300,0.55251025390625,1.9712232083395123,6.147739369916915,-0.006432590330764651
1761481486386452200,0.5724521484375,2.6619027487605806,6.31600977795422,0.9654952102709561
1761481486406395100,0.59239501953125,1.939919138537347,5.91363601500988,-1.2528142417326569
1761481486426337300,0.612337158203125,2.0533926652431487,5.022015092310309,-1.07849337454997
1761481486446280200,0.6322802734375,0.7445262814208865,6.132906542444228,-1.9948684339515863
1761481486466222300,0.652222412109375,-0.6294774682223796,6.252922330400347,-1.4970416618995368
1761481486486165200,0.672165283203125,0.3718032681137323,4.741897589725256,-0.7791611761461943
1761481486506107400,0.692107421875,-0.07347235570698976,3.7558103308677673,-1.6286941116355358
1761481486526050300,0.71205029296875,-1.3024229067713022,1.9973405231535433,-1.530300811292231
1761481486545992400,0.731992431640625,-0.9826555308431386,-0.6220154617786408,1.1559854142270982
1761481486565935400,0.751935302734375,1.297353494552523,-1.6468460005283354,2.6812302573040125
1761481486585877500,0.77187744140625,1.0937082601428032,-1.4505150346547364,1.6120369913451373
1761481486605820400,0.7918203125,-2.806948933076858,-3.168921712049842,0.13817505643777547
1761481486625762300,0.81176220703125,-3.4827895085453986,-5.487824093332886,2.0816715420052407
1761481486645704200,0.8317041015625,0.37291254452988504,-6.253861072555184,3.340339185941219
1761481486665647400,0.8516474609375,3.3480618891477585,-6.487254233366251,2.8489816099032756
1761481486685589200,0.87158935546875,3.083220866149664,-8.176398575919865,1.9441523921929298
1761481486705532400,0.891532470703125,2.0800651297219095,-9.952107103204726,0.7188217121262103
1761481486725474300,0.911474365234375,0.3199102915301919,-9.799608264794944,-0.353145146731846
1761481486745417500,0.93141748046875,-3.492137767127156,-7.263061495974659,-0.9853108676575124
1761481486765359400,0.951359375,-4.319011784628033,-3.412934466552734,-1.7674733445115387
1761481486785302500,0.971302490234375,-2.8068904808878896,-0.9012930064082145,-0.12313450449854135
1761481486805244200,0.991244140625,-0.3767594292163849,1.3893687842965126,0.6515239534009247
1761481486825187300,1.011187255859375,2.0111428385347128,3.4949814661204814,0.3189376471057534
1761481486845129200,1.031129150390625,2.7217960764482614,4.190955898079276,-0.4625640277519822
1761481486865072000,1.051072021484375,2.3246187131032348,5.019602185949683,-2.0545374513640997
1761481486885014300,1.07101416015625,0.9006038551002741,5.4406151829123495,-2.7709859315529464
1761481486904957200,1.090957275390625,-0.7218745968908071,5.949062717700004,-2.1360665645375847
1761481486924899300,1.1108994140625,0.11660977890491485,6.938765828967094,-0.2567422895533964
1761481486944842200,1.13084228515625,2.3646172537535426,7.3606474254578345,0.954156727720052
1761481486964784400,1.150784423828125,3.7192180915296076,6.835957780921459,1.035656103342399
1761481486984727300,1.170727294921875,3.699088326692581,6.306522987684607,-0.16861275520157068
1761481487004669400,1.19066943359375,2.41268424230814,5.8870957986086605,-1.7085870019093155
1761481487024612400,1.2106123046875,1.1081950506567955,5.030349205413461,-2.303653374224901
1761481487044554200,1.23055419921875,1.1726125777706504,4.125342146918177,-0.8840726262118667
1761481487064496400,1.250496337890625,0.005495382545888424,3.110677028352022,1.5908217693589626
1761481487084439300,1.270439208984375,-3.4720921734422445,0.6709387749016285,1.3810916620776057
1761481487104381400,1.29038134765625,-3.4237218180269,-2.2807851243346926,0.9765154937181622
1761481487124324400,1.310324462890625,1.5237550429105757,-3.478016302794218,-0.8098626769453287
1761481487144266200,1.330266357421875,3.0054554894238708,-6.173270701536536,0.14925222117137163
1761481487164209700,1.350209716796875,0.8105909912198781,-7.906389210373162,1.7603215730607509
1761481487184151600,1.370151611328125,-1.205524959552288,-7.542244348058104,1.7357035568937658
1761481487204094700,1.3900947265625,-1.817677783486247,-6.5039224595725535,0.9398154831565916
1761481487224036400,1.410036376953125,-1.2455226234197616,-6.226083423313498,0.27432710088165474
1761481487243979500,1.4299794921875,-1.7200263875514268,-8.477667587605119,1.6419595436610281
1761481487263921400,1.44992138671875,-2.0626248962298033,-9.104358639979361,0.025633020162116736
1761481487283864600,1.469864501953125,-1.983652189540863,-7.69781192638874,-2.0378641105912623
1761481487303806500,1.489806396484375,-0.24993922194242477,-4.345460231092572,-1.705293659452349
1761481487323749600,1.50974951171875,2.254650566124916,-0.7628554265767336,-0.13291445076214148
1761481487343691500,1.52969140625,3.775287184754014,0.2969505639642477,1.656472199268639
1761481487363634700,1.549634765625,2.9564012433975932,0.6702040308862924,-0.6515061985485255
1761481487383576600,1.56957666015625,-0.2723147198796272,1.336353233423829,-3.076275284795463
1761481487403518700,1.589518798828125,-1.9869448013454674,3.1932845844119786,-3.253549375760555
1761481487423461600,1.609461669921875,-1.4619476982951163,4.806514731064438,-1.4681155732750892
1761481487443403500,1.629403564453125,0.337526904502511,6.39389439714551,-0.11133433185317552
1761481487463346400,1.649346435546875,1.9671227872833608,7.385097976103425,0.09382597416145727
1761481487483288600,1.66928857421875,2.7152573223292826,7.453032279166579,-0.5627057061325759
1761481487503231500,1.6892314453125,3.0465847876697776,7.598293567538261,-0.7768354366123675
1761481487523173600,1.709173583984375,2.885227812282741,7.951084092146158,-0.05196205976437777
1761481487543116500,1.729116455078125,1.8494211214885115,7.566796020990609,0.06129497464653104
1761481487563058700,1.74905859375,0.8523910283342003,6.84804043290317,-0.18018084525726735
1761481487583001600,1.769001708984375,0.5848571129903197,5.614595785290002,1.1455793171554802
1761481487602943700,1.78894384765625,1.067594744721055,2.1065812345951795,3.166246939882636
1761481487622886700,1.80888671875,-0.378351959104836,-1.8644716833651065,1.882701898191124
1761481487642828500,1.82882861328125,-1.3193810558348893,-4.1590579540371895,-1.1332616143088787
1761481487662771500,1.848771484375,0.6113923609554768,-4.629267820367216,-1.7766519456148147
1761481487682713600,1.868713623046875,0.8874491899728775,-5.574767048248648,-0.11319679212365298
1761481487702656500,1.888656494140625,-1.0170965834967791,-6.879867649796605,2.01217335062623
1761481487722598700,1.9085986328125,-4.566992273718118,-8.183307624655962,2.2470365839898583
1761481487742541600,1.92854150390625,-4.729457794868946,-7.248342065748572,1.6494005073167384
1761481487762483700,1.948483642578125,-1.7490061060592532,-6.125172148799896,1.3573353773064911
1761481487782425600,1.968425537109375,-0.7956734080731869,-5.961054184266924,2.607250536596775
1761481487802368800,1.98836865234375,-0.8991676848173141,-5.037756851321459,1.3235934128329157
1761481487822310400,2.008310302734375,-0.19873861153721809,-3.5498365073800087,-0.8584106539499015
1761481487842253600,2.028253662109375,2.666692321124673,-2.0282354276329277,-1.2859344210460781
1761481487862195500,2.048195556640625,3.6073102067053315,-0.024308511826395988,-0.469172047714889
1761481487882138400,2.068138427734375,0.14230945282876492,2.0164824459969997,2.2136400719530878
1761481487902080500,2.08808056640625,-2.4916300609901545,3.0877117478281257,1.7000810393705963
1761481487922023400,2.1080234375,-2.067495424875617,2.572814598509669,-2.164416606839746
1761481487941965600,2.127965576171875,-0.1025797922477126,2.660750656116009,-3.2487744164437053
1761481487961908500,2.147908447265625,1.2854393310055137,4.030439172908664,-1.9483640185385942
1761481487981850600,2.1678505859375,1.978799488812685,5.5514703438133,-0.4195813201917335
1761481488001793500,2.18779345703125,2.3382056321680547,6.685508276256918,0.5237662460811436
1761481488021735700,2.207735595703125,2.5802362729430195,6.444553740280866,0.3636621568320319
1761481488041678600,2.2276787109375,2.342072828990221,5.485832627254724,-1.3209113341420888
1761481488061620500,2.247620361328125,1.6771861937344072,5.4290919183790685,-1.9151054536677896
1761481488081562600,2.267562744140625,1.1229752711594103,6.479065666213631,-1.4950016805045305
1761481488101505500,2.287505615234375,0.9883385449156165,6.734868811753392,0.05943738691399339
1761481488121447700,2.30744775390625,1.2019561611548066,5.702266469958424,0.6013660569816828
1761481488141390600,2.327390625,1.1109662689357995,3.2754455657482144,-1.4478079676531255
1761481488161332500,2.34733251953125,-0.5252428945049643,-0.9292015885531901,-2.272313502456993
1761481488181275600,2.367275634765625,-2.08936648042202,-4.142726412439346,0.20382674672277643
1761481488201217500,2.387217529296875,-1.3955369515374303,-3.6601182523071762,0.579605950996466
1761481488221160700,2.40716064453125,-1.3415882114678621,-3.2337931204110384,0.20611856572069226
1761481488241102600,2.4271025390625,-2.207225382605195,-5.555962979057431,2.1951149658337235
1761481488261045800,2.447045654296875,-1.8482083846978843,-6.8675862603724,3.4015795443236825
1761481488280987600,2.466987548828125,0.1468643396541476,-7.400294960713386,1.9789112786240874
1761481488300930800,2.486930908203125,0.19096476266533136,-7.36947779764533,0.9502956683777272
1761481488320872400,2.50687255859375,-3.3875977807223796,-8.019370277386903,1.7029875744670628
1761481488340815600,2.526815673828125,-4.790097264748812,-8.446065996161103,1.2550436082199214
1761481488360757500,2.546757568359375,-4.170958819711208,-7.3034016896694895,-1.2821876357331872
1761481488380700700,2.56670068359375,-1.6053325252704322,-4.806745032688975,-3.4518291376143693
1761481488400642600,2.586642578125,2.478669164869189,-2.071478941553831,-1.9261495563820004
1761481488420584700,2.606584716796875,4.136663751399517,0.9286176511853933,0.19220204937532542
1761481488440527600,2.626527587890625,3.5651574106305834,3.0451568006932734,0.8579553844630717
1761481488460469800,2.6464697265625,3.117310767278075,4.158192861640453,0.4602526455370709
1761481488480412700,2.66641259765625,2.315962236177921,3.991274452733993,-0.2929787194575183
1761481488500354600,2.6863544921875,0.3494914830625057,4.20197004404664,-0.4398284643307328
1761481488520297500,2.70629736328125,-0.06221504863351583,5.632981921330094,0.5753426675288006
1761481488540239600,2.726239501953125,1.3479925255522132,6.937662836161255,1.7723589245960116
1761481488560182500,2.7461826171875,2.6938381022036073,6.789281954464316,1.5885758901283145
1761481488580124700,2.766124755859375,3.2710502533987165,6.056899992084503,0.5268596455192193
1761481488600067600,2.786067626953125,2.7465391802996395,5.503430827787518,-0.4917382824512198
1761481488620009700,2.806009765625,1.2432292517855763,5.738652957591414,-0.12061872228533028
1761481488639952600,2.82595263671875,0.5678519099146128,5.425501200410723,0.08206144821820781
1761481488659894800,2.845894775390625,1.401055714958906,4.076611726018786,-0.6714566612958908
1761481488679837700,2.865837646484375,1.8056319563835859,3.5882319967478513,-1.7158227983817458
1761481488699779800,2.88577978515625,-0.06368687475174666,1.9692466475695372,0.14422381681641563
1761481488719721500,2.905721435546875,-1.0664081652849913,-0.09253975200951099,0.9840338334590196
1761481488739664600,2.92566455078125,0.8913744005925953,-1.9243284784346817,0.6206972187869251
1761481488759606500,2.9456064453125,1.1154847692735492,-3.5613597719132897,-1.2441792459867893
1761481488779549700,2.9655498046875,-0.17619827842712402,-5.675071589040756,-0.20589613687535746
1761481488799491600,2.98549169921875,0.08449804598167539,-6.91258860065937,2.486077395299077
1761481488819434800,3.005434814453125,1.5891561742343008,-8.076529503935575,2.9370009618788955
1761481488839376600,3.025376708984375,0.22685908286720513,-8.918434501829744,-0.4254063365507871
1761481488859319800,3.04531982421875,-3.237870452852547,-9.562770516487955,-0.5004665459711104
1761481488879261700,3.06526171875,-4.0331455092579125,-9.793674783092737,2.390073620440811
1761481488899204600,3.08520458984375,-2.8921774852901696,-6.988331531646847,0.5021900452954694
1761481488919146500,3.105146484375,-1.275780106778443,-3.844679869931936,-2.4322413218237457
1761481488939089700,3.125089599609375,0.5696203808918595,-2.0380279228508473,-3.1250679572761055
1761481488959031600,3.145031494140625,2.6442998720526694,-0.3428998297125101,-2.270265337755531
1761481488978974500,3.164974365234375,3.3049943163156508,2.5348463946431874,-0.5251646416369825
1761481488998916600,3.18491650390625,1.1418290247112513,4.686933242872357,0.4178625335751101
1761481489018858800,3.204858642578125,-0.831011263436079,5.92631663288474,0.3870686052521691
1761481489038801700,3.2248017578125,-1.5396359181314705,5.95384410675764,-0.6532871636811644
1761481489058743800,3.244743896484375,0.1845928895458579,5.772222049716115,-1.5914762877449393
1761481489078686700,3.264686767578125,3.427271034941077,6.084209439292549,-0.5029843740109354
1761481489098628900,3.28462890625,4.343175335025787,6.773035753062367,0.043257578978873786
1761481489118571800,3.30457177734375,3.1701366407975553,7.011231930240989,0.8504354372870176
1761481489138513700,3.324513671875,0.8932230971992016,6.938696855384111,0.5381636412786319
1761481489158456600,3.34445654296875,0.08096738763749599,6.834285463795066,-0.874899358870834
1761481489178398500,3.3643984375,0.6408025798350572,6.1919882614880795,-1.9460726927310228
1761481489198341400,3.38434130859375,2.075523833030462,4.831566170212626,-1.1025647896848618
1761481489218283500,3.404283447265625,1.288353757147491,2.962173981580138,0.42653508485238995
1761481489238226400,3.424226318359375,-1.912596831847727,1.0571183588922024,0.7799369097590446
1761481489258168600,3.44416845703125,-2.1443711592853067,-1.5792250011980533,0.3261063696913421
1761481489278111500,3.464111572265625,0.1704895453915,-4.308506172704696,-1.7621048032157123
1761481489298053400,3.484053466796875,0.2769172452390194,-5.977543546774983,-1.1368825812850147
1761481489317995300,3.503995361328125,-3.391181484428048,-6.056838032764196,2.485136607317626
1761481489337938400,3.5239384765625,-3.7396865868017075,-6.420953084462881,4.572815865305066
1761481489357880300,3.54388037109375,-2.482457451236248,-7.98985309100151,1.3079843402907252
1761481489377823200,3.5638232421875,-3.945460503803193,-11.08915649242401,-1.6264387339241801
1761481489397765400,3.583765380859375,-5.719198315536976,-13.023208492493628,0.1351845693849027
1761481489417708300,3.603708251953125,-5.779004841724038,-11.090166546249389,1.2197993494246153
1761481489437650400,3.623650390625,-3.6320331445515155,-7.953643713501095,0.7897156687125563
1761481489457593300,3.64359326171875,-0.047450902482867235,-5.3912967329919335,0.35014658597037196
1761481489477535500,3.663535400390625,2.0080401963442562,-3.285108881628513,-0.11710581879355013
1761481489497478400,3.683478515625,2.6046026524364945,-0.5032002817839384,-0.5455705200016499
1761481489517420300,3.703420166015625,2.6552029588609933,2.5165783320248125,-0.8093471286386251
1761481489537363200,3.72336328125,2.548558693653345,4.962297997972369,-0.9631012278065085
1761481489557305300,3.743305419921875,2.120826325307786,5.811148869481682,-1.511792510177195
1761481489577248300,3.763248291015625,2.439429625892639,6.082133802062272,-2.0341183481916785
1761481489597190400,3.7831904296875,1.5625252108097076,6.790246415582299,-0.4408839647330344
1761481489617132500,3.803132568359375,0.7444608149692415,8.431949792525172,0.6071478552535176
1761481489637075500,3.823075439453125,1.99025962498188,8.849515863904356,1.0961478353146463
1761481489657017300,3.843017333984375,4.04829514759481,8.336430732443928,0.623085429097712
1761481489676960500,3.86296044921875,5.514141022372246,7.60680011459887,-0.6145416187666356
1761481489696902400,3.88290234375,4.977416072127223,6.982220355290174,-1.2981954983346164
1761481489716845300,3.90284521484375,3.0187685599833727,6.890924465861916,-0.8151051076434552
1761481489736787200,3.922787109375,1.9434446823149918,6.683890904188155,0.3425352341838181
1761481489756730400,3.94273046875,1.6860148123562335,5.590940184414387,0.4754762989582494
1761481489776672300,3.96267236328125,0.5571083975821733,3.5827824991703032,0.2593519605951384
1761481489796615400,3.982615478515625,-1.1185329047977923,0.5744131681263447,1.4119205155834555
1761481489816557300,4.002557373046875,-1.641492364540696,-2.439994858559966,1.8307677128143607
1761481489836500500,4.02250048828125,-0.4159329172194004,-3.9710073252528906,0.7487124810643494
1761481489856442400,4.0424423828125,0.1266203007876873,-5.466155866882205,1.2531728459119795
1761481489876384500,4.062384521484375,0.45786242593228815,-7.822018736293911,2.544935242459178
1761481489896327400,4.082327392578125,-3.079493954581022,-9.792411631289124,2.0988668608255683
1761481489916269300,4.102269287109375,-6.566557487183809,-10.773968260979652,-0.3479143699388951
1761481489936212200,4.122212158203125,-7.59984255054593,-11.6250672036767,0.046069572226260784
1761481489956154400,4.142154296875,-6.103190618616342,-11.93523789921999,1.0374598648287354
1761481489976097300,4.16209716796875,-5.71251313868463,-10.70235497714281,1.1524623546674846
1761481489996039400,4.182039306640625,-4.084202035017311,-8.440007426774502,0.27621026601344345
1761481490015982300,4.201982421875,-0.11782967608869076,-6.447336064475774,-0.333093890491128
1761481490035924500,4.221924560546875,0.5812134957909584,-3.37571678879261,-0.9875286898374557
1761481490055867400,4.241867431640625,0.20149521676898002,0.2882791817307472,-1.2173315710715948
1761481490075809500,4.2618095703125,0.8401394495263695,2.605088974648714,-1.7665759572803974
1761481490095752400,4.28175244140625,2.9996015026986598,3.600791618591547,-2.103102598699182
1761481490115694300,4.3016943359375,4.7166333846092225,5.216617626956105,-1.7113398077487945
1761481490135637200,4.32163720703125,4.409195913422107,7.311302672052383,0.8754133728075773
1761481490155579400,4.341579345703125,2.785576474702358,9.157603323432802,2.5863594319984315
1761481490175521800,4.361521728515625,1.745457181406021,9.226808377084135,1.6890785838410258
1761481490195465000,4.38146484375,3.470667693597078,8.536130882489681,-0.24725646739816293
1761481490215406800,4.40140673828125,5.610732095599174,8.262673422315716,-1.1134553823377937
1761481490235350000,4.42135009765625,6.61810413454771,8.630649241095782,-0.6743609313700347
1761481490255291600,4.441291748046875,5.127911169499159,8.761189930197595,-0.1591088128677569
1761481490275234800,4.46123486328125,2.858226408110559,8.275436457777023,-0.04372602760768495
1761481490295176700,4.4811767578125,1.510535203592479,7.438081962794065,-0.3740127608567476
1761481490315119600,4.50111962890625,0.06301905849277972,5.327295093202591,-0.20538917373390866
1761481490335061800,4.521061767578125,1.1311287669986485,1.38204414049685,1.433147866398841
1761481490355004700,4.541004638671875,2.0254852521419524,-1.8363655328214168,0.30646190415322777
1761481490374946800,4.56094677734375,-1.1129410761401057,-4.344928900694847,-2.419311843754351
1761481490394889700,4.5808896484375,-6.380417660456896,-6.652786156350373,-1.2685010556861758
1761481490414831900,4.600831787109375,-8.014115425598622,-7.937597418585419,1.5296477542109788
1761481490434774800,4.62077490234375,-7.1232643182277675,-9.135924575588106,2.5120728372991086
1761481490454717000,4.640717041015625,-6.205167476534843,-10.431337895858288,0.08646236832458526
1761481490474658800,4.660658935546875,-6.9974372136443845,-11.88769873393178,0.1842249695489183
1761481490494601700,4.680601806640625,-8.107250220891833,-12.545519668585062,1.3114343346141277
1761481490514543900,4.7005439453125,-8.22469294348955,-10.732273145544529,1.8804969354927539
1761481490534486800,4.72048681640625,-6.512471676731109,-7.665894693124294,1.1192565428972243
1761481490554429000,4.740428955078125,0.19543372477293014,-5.832276413184404,0.34153438657820223
1761481490574371800,4.760371826171875,5.745863619622588,-3.4830817694902416,-0.188806543451827
1761481490594314000,4.78031396484375,5.781236546298861,0.181509828838706,0.2901545106159523
1761481490614257000,4.8002568359375,3.0239632060170174,4.2966935698360205,0.18159374426249414
1761481490634198800,4.82019873046875,1.14944066875875,6.565016687482595,-1.3889602034956217
1761481490654142000,4.840141845703125,2.3896219311505553,6.70695321534574,-3.5056586352184413
1761481490674083600,4.86008349609375,3.2506688518881797,5.7095268163502215,-2.4042042909935115
1761481490694026800,4.88002685546875,2.9059125806540247,6.730618168571591,-1.0000774980261922
1761481490713967900,4.8999677734375,4.859054773379862,7.88638277965486,-0.8948758328422903
1761481490733910800,4.919910888671875,6.750190884047746,8.139962988448142,-0.7606452031813562
1761481490753853000,4.93985302734375,7.5667065891414875,8.004739109966158,-1.105990307154134
1761481490773795800,4.9597958984375,5.884270219793915,7.871934567585587,-1.2699800421975553
1761481490793738000,4.979738037109375,3.2524984054028985,7.7291002140998835,-1.2779662186458707
1761481490813681000,4.999680908203125,3.0078692725673317,7.679036498770118,-0.8214460741680115
1761481490833622800,5.019622802734375,4.711417695787548,6.520552107334137,0.4522567879449576
1761481490853565700,5.039565673828125,3.915423969718814,4.609282432436943,2.6751988681852814
1761481490873507800,5.0595078125,-0.00005815992802381515,0.8249421726554632,3.9985605180889365
1761481490893449700,5.07944970703125,-3.1074744329184294,-3.377997593206167,0.8351941020786762
1761481490913393000,5.099392822265625,-4.088248387798667,-6.344774684667587,-2.477395491671562
1761481490933334800,5.119334716796875,-6.772415575337409,-9.223290724352001,2.7348864441677927
1761481490953278000,5.13927783203125,-7.199235212752223,-7.947659378394484,5.189120548221468
1761481490973219800,5.1592197265625,-6.405313032260537,-7.835587242919206,2.222184028414637
1761481490993162800,5.179162841796875,-7.2325406855046745,-10.172718523854016,-0.04347814009410795
1761481491013105000,5.19910498046875,-8.441866206383704,-10.929451083636284,1.7862195460356771
1761481491033047800,5.2190478515625,-10.35841177585721,-6.566465132725239,1.3110378826424478
1761481491052989700,5.23898974609375,-6.305169819509983,-3.1052509116500615,0.30573435706365854
1761481491072932600,5.2589326171875,0.2416623919844627,-1.352325294059515,-0.3978204470215365
1761481491092875800,5.278875732421875,4.520004897093773,-0.028226562052965164,-0.4361842991420999
1761481491112817700,5.298817626953125,4.391574916535616,1.9905349347919226,-0.37347120132595296
1761481491132760800,5.3187607421875,3.1429180867433546,4.712148932671546,-0.6858469326328486
1761481491152702700,5.33870263671875,3.2598405848592518,6.125909815424681,-0.08350344545375556
1761481491172645600,5.358645751953125,3.9691631586909293,6.283095934867858,-0.2694230535587296
1761481491192587500,5.37858740234375,6.205681855797767,6.193055013936758,-1.707307337362319
1761481491212530700,5.39853076171875,8.77507875481844,6.33434330702424,-2.0998566025152803
1761481491232472600,5.41847265625,8.781146676555275,6.868883314445615,-1.1501037357773631
1761481491252415700,5.438415771484375,5.600623374038935,7.035590126428008,0.13462906352714635
1761481491272357400,5.458357421875,3.0320120724380013,5.911713522514701,0.5351686607137323
1761481491292300500,5.478300537109375,2.3515870917886494,4.6318590059041975,-0.9795372526921331
1761481491312242400,5.498242431640625,4.318168904063105,3.213198076149821,-2.1924708810657263
1761481491332184600,5.5181845703125,5.418187078005075,-0.3072363956570625,-0.23497473091408608
1761481491352127500,5.53812744140625,4.4423798056215045,-1.7438444855123758,0.6143825557474046
1761481491372069600,5.558069580078125,2.0245061779767273,-3.7203544020831583,2.310282436975837
1761481491392012500,5.578012451171875,-1.7497089936316013,-6.990101463928818,2.696429287740588
1761481491411954700,5.59795458984375,-6.400821566060185,-10.224992316448688,1.3889366764895617
1761481491431897600,5.617897705078125,-8.04908678573668,-11.764335389113425,-1.5547157061025498
1761481491451839500,5.637839599609375,-10.137260256981849,-10.56272205004692,-1.4472195002406836
1761481491471782400,5.657782470703125,-13.403504279142618,-8.52651023670733,3.052010904371738
1761481491491724500,5.677724609375,-15.01747676859498,-7.800076369076967,5.657011031693219
1761481491511667500,5.69766748046875,-11.206274805372953,-6.147250709617137,2.538718559901416
1761481491531609600,5.717609619140625,-3.0656641666710374,-3.3220155937433242,-2.1800287481218574
1761481491551552500,5.737552490234375,4.599942357161641,-1.3608680814772844,-4.783574584981799
1761481491571494700,5.75749462890625,6.862769215479493,1.1124544616669416,-4.542418973475694
1761481491591437600,5.7774375,4.797330723133683,2.874147907602787,-2.472642159664631
1761481491611379700,5.797379638671875,0.8663514568865299,4.298362379831075,-0.48483913405463097
1761481491631321600,5.817321533203125,1.1063888780176638,5.716701238024235,0.06615903701893985
1761481491651264800,5.8372646484375,4.855791095408797,6.619376054179668,0.019410656782239674
1761481491671206400,5.857206298828125,7.859185560649633,7.378506907275319,-0.05529343267679214
1761481491691149600,5.877149658203125,8.749904566073416,7.729504703247547,0.22462807241212576
1761481491711091500,5.897091552734375,7.070123095148801,7.217917116868495,0.35833328995946795
1761481491731034600,5.91703466796875,3.809048584580421,6.388735406947135,0.378831267054379
1761481491750976500,5.9369765625,2.344637126520276,5.930549740409851,0.2567825667648576
1761481491770919700,5.956919677734375,3.688823537787795,5.528054396912455,-0.6464500842027365
1761481491790861600,5.976861572265625,5.173217461168766,3.849471195861697,-1.438250011843443
1761481491810804500,5.996804443359375,5.785730350586771,1.0339321290940047,-1.8063763450101016
1761481491830746600,6.01674658203125,1.7250690578937529,-1.0216963323771953,0.23040020780647172
1761481491850689500,6.036689453125,-3.437482632353902,-0.6314449689030647,0.6055945248642935
1761481491870631400,6.05663134765625,-5.313673979607224,-0.8849135340154171,0.636985359634459
1761481491890574300,6.07657421875,-4.643744089487194,-3.669048577737808,1.5393316744878887
1761481491910516500,6.0965166015625,-3.960349737638235,-6.5491188611269,2.5335189454317093
1761481491930459400,6.11645947265625,-6.528966299936175,-6.713516811645031,1.802240852640569
1761481491950401500,6.136401611328125,-9.445294476142525,-8.000299081692098,1.6554431484818457
1761481491970343700,6.15634375,-7.487685074874758,-10.429961931329965,3.1399580678939816
1761481491990286600,6.17628662109375,-7.10541185067296,-8.053834857046605,-0.5289936984058469
1761481492010228700,6.196228759765625,-3.8155852928727865,-6.247516671964526,-0.1969021716239862
1761481492030171600,6.216171630859375,-1.6608441307425499,-4.363676855784655,-0.568169451431185
1761481492050113800,6.23611376953125,-0.03338087607622146,-2.426234628754854,1.1257255927808583
1761481492070056700,6.256056640625,2.3581612094819544,-0.15425357312262059,2.160215209627151
1761481492089998600,6.27599853515625,4.486060541915894,2.205028749343753,0.29771307276934383
1761481492109941500,6.29594140625,5.252927542221546,3.025391777515411,-2.1876117505967616
1761481492129883600,6.315883544921875,4.999720842915773,3.299394596612453,-2.498160047280788
1761481492149826600,6.33582666015625,4.122693093714118,4.37601202122271,-2.049161165153235
1761481492169771800,6.355771728515625,3.0657372319072485,5.857341880857944,-1.1311908724494277
1761481492189714700,6.375714599609375,3.892047185784578,6.176137196883559,-0.014414346332289277
1761481492209656600,6.395656494140625,6.117087626543641,6.170370303919911,0.17761705918386578
1761481492229599500,6.415599609375,7.424387783962488,5.465104896524548,0.08880538778677582
1761481492249541600,6.435541748046875,7.502002938562631,5.583662302365899,-0.6711478145424277
1761481492269483500,6.4554833984375,5.4017795485615725,5.4757221521288155,-1.0796796617250888
1761481492289426700,6.4754267578125,3.155847126421332,4.9848079359441995,-0.8267715800397097
1761481492309368600,6.49536865234375,2.1058570119738578,4.877200378662348,-0.7142085192423313
1761481492329311500,6.5153115234375,0.9481383442133664,2.684461786571145,-0.03380021573314443
1761481492349253600,6.535253662109375,-1.3426578865259886,-0.678798840752244,0.5980921133449301
1761481492369196500,6.555196533203125,-3.809826583215594,-2.211127066218853,0.622403730443865
1761481492389138400,6.575138427734375,-4.973586284705997,-2.6126427510291337,-0.31763511313982307
1761481492409081300,6.595081298828125,-6.083627255490422,-4.268822981613874,1.2450852549158036
1761481492429023500,6.6150234375,-6.262474002599716,-6.1162856625109905,3.560661268255114
1761481492448966400,6.63496630859375,-5.189643695312738,-7.7992644681721925,2.0883530655957756
1761481492468908500,6.654908447265625,-5.617760971322656,-10.222907911390065,-1.0912407009854912
1761481492488851500,6.6748515625,-10.05422775350809,-11.344202097594737,-2.649403624932468
1761481492508793600,6.694793701171875,-14.206749583774805,-9.631420274344086,-1.2602075668543578
1761481492528736500,6.714736572265625,-12.323259896206855,-7.092724218535423,0.04478898979723453
1761481492548678700,6.7346787109375,-5.638420897513628,-6.3457110887348644,0.013076010400615632
1761481492568620500,6.75462060546875,-0.6778747116446495,-5.029792740574479,-0.6892500921398401
1761481492588563500,6.7745634765625,1.0060703087002039,-2.9463001206219195,-1.3583064142957328
1761481492608505600,6.794505615234375,1.8003478785008191,0.15375965212583542,-1.7048704656042157
1761481492628448500,6.814448486328125,2.0327415068805217,2.9476147103518247,-2.1466396887391803
1761481492648390700,6.834390625,2.187845559352636,4.803642975020408,-2.4867609936490656
1761481492668333600,6.85433349609375,2.717119609069824,6.077960315769911,-2.2611017880909143
1761481492688275500,6.874275390625,3.5540701994270085,7.214249826532602,-1.9577409186929464
1761481492708218600,6.894218505859375,4.420671831682324,8.287865731239318,-1.0624380195450036
1761481492728160500,6.914160400390625,5.308493362098932,9.150579708406328,-0.30408341151885687
1761481492748103700,6.934103759765625,5.803055579397082,9.19692235738635,-0.34084910772778093
1761481492768045600,6.954045654296875,5.829557801875472,8.83015065369904,-0.7649455307237804
1761481492787988700,6.97398876953125,6.585431114479899,8.107669323086737,-1.0492218334887176
1761481492807930400,6.993930419921875,7.787987871876359,6.6421998804062605,-1.4508007197283208
1761481492827873500,7.01387353515625,6.1672518796384335,4.361360395535827,-1.5854951675087212
1761481492847815400,7.0338154296875,1.7218240846231578,1.1931161443561316,-1.2422398023568093
1761481492867758600,7.053758544921875,-0.5054720261082053,-2.053555746850371,-0.1611012470602989
1761481492887700500,7.073700439453125,1.3059709546416998,-4.2421196836054325,0.739128952421993
1761481492907642600,7.093642578125,-1.3742372661381959,-5.3070659596443175,1.0483126827545464
1761481492927585500,7.11358544921875,-7.44385353193283,-6.6695099121361965,0.7834316200070083
1761481492947527700,7.133527587890625,-7.682365935453772,-7.9267942850202315,2.673030584235489
1761481492967470600,7.153470703125,-2.600202079389989,-9.509483747458457,3.489199960109591
1761481492987412500,7.17341259765625,-0.5808534303069114,-9.634640989956258,1.4393065351590513
1761481493007355400,7.19335546875,-3.5331618514329195,-9.303157457271217,0.24558884471319614
1761481493027297500,7.213297607421875,-7.807450112715363,-8.184403018677234,0.6659524378564209
1761481493047240400,7.233240478515625,-7.343317520472407,-5.988205226042866,-0.01618236065180972
1761481493067182600,7.2531826171875,-1.4615154443576932,-4.911998720321059,-1.439575999750197
1761481493087125500,7.27312548828125,4.461605315095186,-3.4476205800086257,-2.057072961191088
1761481493107067600,7.293067626953125,6.962177684214711,-0.6273182443618774,-1.7935861292809248
1761481493127010600,7.313010498046875,6.345442793187499,3.156549137210846,-1.1483107879459857
1761481493146952700,7.33295263671875,2.9263799068823455,6.034235740333795,0.05009624762618914
1761481493166895600,7.3528955078125,-0.3030003655225038,7.187691489952802,0.6505114153575152
1761481493186837000,7.3728369140625,-2.4529215601503847,7.876762133872509,0.5427072395250201
1761481493206780000,7.39277978515625,-0.6919383083105087,8.866673919454216,0.4285354283567518
1761481493226722000,7.41272216796875,3.0028175421357153,9.244224206787347,1.0054749731555581
1761481493246665000,7.4326650390625,5.455608169382811,8.778145741173624,1.1999256782405077
1761481493266607000,7.452607177734375,6.500324727341532,7.988574157106876,0.26166496851155535
1761481493286548700,7.472548828125,4.8553082803279155,7.652126280012727,-0.7849450933098793
1761481493306492000,7.492491943359375,2.1539339374005793,7.426298001497983,-1.3301459032163023
1761481493326433800,7.512433837890625,0.7513187180399894,6.771409613165259,-0.26685039005912836
1761481493346377000,7.532376953125,1.6904668233290314,4.99864532263875,0.09836239374838769
1761481493366318800,7.55231884765625,1.8184277250707148,1.9989865367949007,-1.1734202408917247
1761481493386262000,7.572261962890625,1.8164073251590132,-1.9846102209180592,-0.5585937407691032
1761481493406204000,7.592203857421875,2.0345266367316244,-5.528283529493212,-0.7545262819096445
1761481493426147000,7.61214697265625,-1.4126608125567435,-6.832424346098303,-3.827044259998202
1761481493446089000,7.6320888671875,-5.985972352424263,-8.417112288877368,-4.43215914811939
1761481493466032000,7.6520322265625,-8.073643134844303,-8.583590552800894,0.5025545312263071
1761481493485973800,7.671973876953125,-4.712127013100684,-7.713388265705108,4.408789670708775
1761481493505917000,7.6919169921875,-1.2754442989528179,-6.601154753312468,2.417204057820141
1761481493525858800,7.71185888671875,0.22677345041036603,-6.222380477142334,0.9498393029123544
1761481493545802000,7.731802001953125,0.5707110987380146,-7.921637632909417,1.554107511076331
1761481493565743900,7.751743896484375,0.8989788842469453,-6.878465966305137,0.7547465735968202
1761481493585686000,7.77168603515625,1.9674118333578108,-4.634794474834203,-1.206722060382366
1761481493605629000,7.79162890625,3.7816622727438807,-0.35611353155076503,-1.6049116695098578
1761481493625571000,7.811571044921875,3.488258295345306,2.5481121189296245,-0.7776932224854827
1761481493645514000,7.831513916015625,1.0836015844091773,4.594283600747585,-1.3289271750763059
1761481493665455900,7.851455810546875,-0.5860697036504745,3.596540975409746,0.1343865874076262
1761481493685398800,7.871398681640625,-1.874435443496704,5.674041076949239,-0.3900834595613181
1761481493705341000,7.8913408203125,-1.5666864221423864,6.576773176249861,-0.25371548907812685
1761481493725283800,7.911283935546875,0.7754770077407359,6.1408396735310555,0.4413159994747489
1761481493745226000,7.93122607421875,2.8091753769546743,6.354952964332699,0.6171344117388129
1761481493765169000,7.9511689453125,4.48645860132277,5.891511861485243,0.09651735040359198
1761481493785111000,7.971111083984375,5.0984278853833676,5.396149433720112,-0.47090055200792846
1761481493805054000,7.991053955078125,3.9743496214181184,4.836227732282877,-1.461402047111094
1761481493824996000,8.01099609375,1.967965375587344,4.066899310299754,-1.3109057806953788
1761481493844939000,8.03093896484375,-0.2565507490366697,3.4416228008985517,-0.8726176046092062
1761481493864881200,8.050881103515625,-1.53092712649703,1.5594588089764116,0.3693682595191523
1761481493884824000,8.070823974609375,-2.1198387755751606,-0.20732816070616245,-0.9664523648653179
1761481493904766000,8.090765869140625,-2.224021034583449,-1.843004532444477,-3.0657179426848886
1761481493924708900,8.110708984375,-3.42047655249536,-2.041405290329456,-3.3398832588672636
1761481493944651000,8.130651123046874,-4.499040727259218,-2.240892674407363,-0.6774877581536769
1761481493964593000,8.150593017578124,-3.030622079384327,-3.499305174538493,3.8934897858083244
1761481493984535800,8.170535888671875,-0.8957926554262637,-5.2792468093484635,4.805432488785684
1761481494004478000,8.19047802734375,1.1486284755930305,-6.965263959792256,1.22251598797217
1761481494024420900,8.2104208984375,1.4440812022149563,-8.922211682280897,-0.5670634629506618
1761481494044363000,8.230363037109376,-1.0818901043161748,-8.075673763889073,-0.3813612239234149
1761481494064306000,8.250305908203124,-3.787548992694914,-7.1926698628872625,1.4926457650281488
1761481494084247800,8.270247802734374,-4.742759759512543,-4.704949961078166,-0.11322654794109985
1761481494104190700,8.290190673828125,-2.5438024390369653,-2.804478159049153,-0.9290620339520275
1761481494124132900,8.3101328125,1.1769365784496069,-1.3741554330736399,-1.0520814607035367
1761481494144075800,8.33007568359375,1.7851739825055002,0.13652151707708834,-0.8766111312247812
1761481494164018000,8.350017822265626,1.1144926894962788,3.142082220441103,-0.2727989414663054
1761481494183958300,8.369958251953125,1.4198264664024114,5.698574629703164,1.2517559648513794
1761481494203900400,8.389900390625,2.138889513003826,6.534414628469944,2.2062807952314616
1761481494223843300,8.40984326171875,1.8620304276928306,6.249347394523024,1.086071481654048
1761481494243785500,8.429785400390625,1.835479397636652,5.852769750636815,-0.7233927463687956
1761481494263728400,8.449728271484375,2.339509700503945,6.102050800931453,-0.6469979273438453
1761481494283670300,8.469670166015625,3.5497198952630162,6.164232239556312,-0.3691499040607363
1761481494303613200,8.48961328125,4.266292586353421,5.879517472308874,-0.24417386334873734
1761481494323555300,8.509555419921876,3.547356965523958,5.52273174058497,-0.5670485941750928
1761481494343497200,8.529497314453126,1.6246034813210368,4.973608496537804,-0.203527508047875
1761481494363440400,8.5494404296875,0.03204933521151542,4.181994008466601,-0.26060203372146934
1761481494383382300,8.56938232421875,-0.558248507528007,2.2615724743425845,-0.3720279437150806
1761481494403325400,8.589325439453125,0.06117752227932215,-0.8858318179041147,0.05820391329601407
1761481494423267300,8.609267333984375,0.640737697905302,-3.1316572725385425,-0.8618941121514886
1761481494443210200,8.629210205078126,-0.6157768596500158,-4.217256460505724,-2.6244837032094597
1761481494463152000,8.649152099609376,-3.058547904925048,-4.658178273031115,-0.8273211767464875
1761481494483095300,8.66909521484375,-4.538291079890728,-5.579270204886794,1.1907583291836081
1761481494503037200,8.689037109375,-3.1620494881927965,-6.996806514525413,1.3947836489520966
1761481494522980000,8.70897998046875,-0.7090612925469875,-7.366948571428656,0.5715219767294824
1761481494542922200,8.728922119140625,-0.2516436877727508,-7.382507375088333,2.395991758443415
1761481494562865200,8.748865234375,-2.6579098797321317,-7.35839993879199,3.715278121732175
1761481494582807300,8.768807373046876,-5.45411705404222,-6.791597245669364,0.5766519965616986
1761481494602750200,8.788750244140624,-5.493530780541897,-5.799874611273408,-4.189006517577171
1761481494622692400,8.8086923828125,-1.0045061281234025,-4.137973664954305,-4.02584863024801
1761481494642635300,8.82863525390625,3.57821913677752,-1.23396253400743,-0.33782617971003054
1761481494662577200,8.8485771484375,4.045101612250507,3.4432845966309307,2.330330222617835
1761481494682520000,8.86852001953125,1.9977602098703384,5.964322246152162,2.841127389271557
1761481494702462200,8.888462158203126,0.013906944799423218,5.487782007756829,0.35759098369218406
1761481494722404400,8.908404296875,-0.36747722160816193,4.489155585321784,-1.8628209935486315
1761481494742346200,8.92834619140625,-0.6601327187269925,4.767333059754967,-2.04096923699975
1761481494762289400,8.948289306640625,0.5260942506372929,5.388000614055991,-0.7326891286328434
1761481494782231300,8.968231201171875,3.1501901235729455,6.3434238545805215,-0.026258257654681802
1761481494802174200,8.98817431640625,5.586158210834861,6.602615473514795,0.0963763710303232
1761481494822116400,9.008116455078126,6.2935132839858525,6.266950271230936,0.7829184097878634
1761481494842059300,9.028059326171874,5.550733846232295,5.710658450728655,0.08980404343530535
1761481494862001200,9.048001220703124,3.6403655040889977,4.604840066075325,-1.3625414215169847
1761481494881944000,9.067944091796875,1.5330506945222615,2.472408350908756,-1.6143912993863223
1761481494901886200,9.08788623046875,-0.4268371730715036,-0.017072130832076073,-0.14177235027737914
1761481494921828400,9.107828369140625,-0.003962473890185356,-1.0719815815031528,-0.09190846836864948
1761481494941771300,9.127771240234376,1.354723295111954,-1.7338807253807782,-1.3696689353093503
1761481494961713400,9.14771337890625,0.24322540351748465,-2.6142875956267115,-0.39502449616007507
1761481494981656300,9.16765625,-2.2700278757378456,-3.6941280739367004,2.229859969870001
1761481495001598500,9.187598388671875,-3.954590443459153,-4.212583207997679,3.177341165348887
1761481495021541400,9.207541259765625,-2.2563632152616977,-4.448853970071673,2.983325782941282
1761481495041483300,9.227483154296875,-0.06119418115317821,-5.803558852744102,3.3911540118992325
1761481495061426200,9.24742626953125,-0.8881535388499497,-6.706501964446902,3.1838296505853534
1761481495081368300,9.267368408203126,-4.1100042925328015,-6.114408762723207,1.9461245690487323
1761481495101312300,9.287312255859375,-5.480567254072428,-5.9002235757291315,-0.33725798790063705
1761481495121254100,9.307254150390625,-3.353375777646899,-5.552188136693835,-2.124277634805441
1761481495141197300,9.327197265625,0.25774434273540975,-5.1196267407566305,-2.0900442335531113
1761481495161139200,9.34713916015625,2.553700732716918,-2.7782781343877314,-1.5011109571650623
1761481495181082400,9.367082275390626,2.2831337332874537,0.5342302108198403,-0.3768542313603684
1761481495201024300,9.387024169921874,0.3501508237540722,3.1743507513612506,-0.0940003808802925
1761481495220967200,9.40696728515625,-1.8189596399903296,4.02654859521091,-0.8336115090623497
1761481495240909300,9.426909423828125,-2.992608867332339,4.633518463549017,-1.4439590371400117
1761481495260852200,9.446852294921875,-1.3874544751077889,5.576580235150456,-1.1721392611704766
1761481495280794400,9.46679443359375,1.5878537133336066,6.371309640371799,-0.8897966298818588
1761481495300737300,9.4867373046875,4.633358304551243,6.31664398420453,-1.1485646896418182
1761481495320679400,9.506679443359374,5.9968561500102275,5.018181213235855,-1.0593459718137979
1761481495340622300,9.526622314453125,5.222921695536375,5.011861947086453,-1.1960459872629492
1761481495360564500,9.546564453125,3.4410137290894984,6.08359335322082,-1.2981171724013982
1761481495380507400,9.56650732421875,2.055138047605753,5.529335668894649,-0.6665216891117394
1761481495400449300,9.58644921875,0.8597387607485055,2.440698038393259,0.829274941162765
1761481495420392200,9.60639208984375,0.15848551160395144,-0.6136842712849379,1.4757795320317149
1761481495440334300,9.626334228515624,0.42586862030029293,-1.4980524463772773,-0.9880581205390393
1761481495460277200,9.64627734375,0.967600585052371,-3.6231186012119054,-2.304937130425125
1761481495480219400,9.666219482421875,-0.7944961809873581,-5.879406997671723,-0.4780998889274895
1761481495500162300,9.686162353515625,-4.3190918641269205,-5.2837037887573235,2.0476468150675298
1761481495520104400,9.7061044921875,-5.361259322124719,-6.474058651706576,4.030529189279675
1761481495540046300,9.72604638671875,-3.652368661093712,-8.549190855070949,1.7524314043328164
1761481495559989500,9.745989501953124,-3.6173984699994324,-9.714667881873249,-0.7270240155432373
1761481495579931400,9.765931396484374,-4.838500937911868,-9.374727486488222,-0.7159425034280866
1761481495599874600,9.78587451171875,-4.757995322567224,-7.174337502861023,0.8548306035060435
1761481495619816200,9.805816162109375,-2.8920711023062466,-3.817376267942786,1.5279367125093937
1761481495639759400,9.82575927734375,-1.438755038756132,-0.6894184344440698,0.18888638548869638
1761481495659701200,9.845701171875,-0.547444497179985,1.4677461554408073,-0.1182601033952087
1761481495679644400,9.86564453125,1.0304466250658035,1.7571493727654217,-1.093052499647811
1761481495699586300,9.88558642578125,2.8207886578589676,2.1526111643642185,-1.6781038931012153
1761481495719529500,9.905529541015625,3.819308405049145,3.791176827803254,-1.0944307291984559
1761481495739471400,9.925471435546875,2.964107579991221,5.668560015189647,0.6430841149009764
1761481495759414500,9.94541455078125,2.0124416461735963,6.820038327255845,1.5864716113254427
1761481495779356400,9.9653564453125,1.831064503803849,6.570614653620123,0.9590792057488113
1761481495799299600,9.985299560546874,2.2521733623564244,6.264156841120124,0.1057932013362646
1761481495819241200,10.0052412109375,2.624938753500581,5.579211168175935,0.2556698014836758
1761481495839184400,10.025184326171875,2.83856718339473,5.24458290772438,-0.10945092012621462
1761481495859126300,10.045126220703125,2.4022476039677856,5.173528426814079,-0.20877448705695567
1761481495879069400,10.0650693359375,0.6924483036592602,5.221722256618738,1.3236156246647237
1761481495899011300,10.08501123046875,0.08296762154400349,5.20187364681065,2.632292038872838
1761481495918954500,10.10495458984375,0.4185258563220501,4.857625325098634,1.473287715215981
1761481495938896400,10.124896484375,0.728449006845057,2.0288667112737895,0.708445644866675
1761481495958839300,10.14483935546875,2.328019461457431,-2.6641484818607566,-1.9694225886583328
