time,seconds_elapsed,z,y,x
1761431179708571000,0.12557080078125,0.00046523447963409126,-0.00046167057007551193,0.0005066823214292526
1761431179728514800,0.145514892578125,-0.0013021455379202962,-0.0011062645353376865,0.0025048512034118176
1761431179748458800,0.165458740234375,-0.001079139532521367,0.0003119679167866707,0.0016787744825705886
1761431179768403000,0.18540283203125,-0.0018686028197407722,-0.0012327712029218674,-0.0005425843992270529
1761431179788346000,0.20534619140625,0.0019201480317860842,-0.0002888040617108345,0.0019901846535503864
1761431179808290000,0.2252900390625,-0.00014123815344646573,0.0021910332143306732,0.00034138583578169346
1761431179828234000,0.24523388671875,-0.0005681109614670277,-0.0000156317837536335,-0.0001317501300945878
1761431179848178000,0.265177978515625,0.00047045451356098056,-0.00024925917387008667,0.0002432947512716055
1761431179868121900,0.285121826171875,0.001210387796163559,-0.0033887478057295084,0.0015671434812247753
1761431179888064800,0.305064697265625,-0.001342955743893981,-0.0035162202548235655,0.0005842299433425069
1761431179908009000,0.325009033203125,-0.00020402477821335196,0.0016310317441821098,-0.0019021120388060808
1761431179927953000,0.344952880859375,-0.0019391095265746117,-0.0016225893050432205,-0.0010542490053921938
1761431179947896800,0.364896728515625,-0.0017121408600360155,0.0012904438190162182,-0.0024764484260231256
1761431179967841000,0.384841064453125,-0.0006275632767938077,0.00026287324726581573,-0.0004217180539853871
1761431179987784000,0.404783935546875,-0.00017539021791890264,-0.0006673997268080711,0.0004655387019738555
1761431180007727900,0.424727783203125,0.0024189224932342768,0.000768167432397604,-0.00021366786677390337
1761431180027672000,0.444672119140625,-0.001966826617717743,0.00020485976710915565,0.0013315016403794289
1761431180047616000,0.464615966796875,-0.0022370785009115934,0.0006901430897414684,-0.0007132980972528458
1761431180067560000,0.484559814453125,-0.00006903457688167691,-0.0012904871255159378,0.00012684287503361702
1761431180087502800,0.5045029296875,0.0005197826540097594,-0.00016878405585885048,-0.0016848505474627018
1761431180107446800,0.52444677734375,0.001673404360190034,-0.0010468759573996067,0.00007338507566601038
1761431180127391000,0.544390869140625,-0.0005712392157875001,-0.0010715071111917496,0.0030674333684146404
1761431180147336400,0.56433642578125,-0.0004708340857177973,-0.0007218280807137489,0.0011930781183764338
1761431180167280400,0.5842802734375,-0.0003229011781513691,0.00048204511404037476,0.0012281317031010985
1761431180187223600,0.6042236328125,-0.0018843405414372683,0.0008263671770691872,0.0010511678410694003
1761431180207167500,0.62416748046875,-0.0008216117857955396,0.0008834823966026306,0.001590357511304319
1761431180227111400,0.644111328125,-0.0031310657504945993,0.0010390542447566986,-0.001233327784575522
1761431180247055400,0.664055419921875,-0.0015186250675469637,-0.000443099532276392,0.000321944709867239
1761431180266999600,0.68399951171875,0.00025178081705234945,-0.000745430588722229,0.00042292813304811716
1761431180286942500,0.7039423828125,-0.00032356526935473084,0.0006305193528532982,0.0004042723448947072
1761431180306886400,0.723886474609375,0.00010553753236308694,0.0016316701658070087,0.0002076589735224843
1761431180326830300,0.743830322265625,-0.002366678323596716,0.0007765227928757668,0.001078799949027598
1761431180346774300,0.763774169921875,-0.0020940667018294334,0.000737813301384449,-0.0014350147685036063
1761431180366718200,0.78371826171875,0.0016468721441924572,-0.0011674179695546627,-0.003137818770483136
1761431180386661400,0.803661376953125,-0.0008921885746531188,0.002977518830448389,0.0006609336705878377
1761431180406605600,0.82360546875,-0.0023543250281363726,0.00025784457102417946,0.0005613629473373294
1761431180426549500,0.843549560546875,-0.0019721968565136194,-0.0011528697796165943,-0.0004459313931874931
1761431180446493400,0.863493408203125,-0.0015646620886400342,0.0012946496717631817,0.0007625173311680555
1761431180466437400,0.883437255859375,-0.0009777051163837314,-0.0025208676233887672,0.0004384326748549938
1761431180486380300,0.90338037109375,0.000525152136106044,-0.0004568807780742645,-0.0012355439830571413
1761431180506324200,0.92332421875,-0.00005082570714876056,-0.0011886553838849068,-0.0030481419526040554
1761431180526268400,0.943268310546875,0.0005296102026477456,-0.0016657430678606033,-0.00022930663544684649
1761431180546212400,0.96321240234375,-0.00007863051723688841,-0.002382212784141302,0.0029093476478010416
1761431180566156300,0.98315625,-0.002483201213181019,-0.0001917276531457901,-0.004185785539448261
1761431180586099500,1.003099365234375,-0.0005406351992860436,-0.00039100274443626404,-0.0004516958142630756
1761431180606043400,1.02304345703125,-0.001226161140948534,0.00023694615811109543,0.0012339551467448473
1761431180625987300,1.0429873046875,-0.000863744062371552,-0.0018933597020804882,-0.0005128768389113247
1761431180645931500,1.062931640625,-0.0004887001123279333,-0.0004232204519212246,0.0007757337298244238
1761431180665875500,1.08287548828125,0.0014772098511457443,-0.0006139404140412807,-0.0009958873270079494
1761431180685818400,1.102818359375,0.0019398299045860767,0.0017573628574609756,-0.0012394391233101487
1761431180705762300,1.12276220703125,-0.0011810613796114922,-0.001217053271830082,0.0020454986952245235
1761431180725706200,1.142706298828125,-0.00013147422578185797,-0.0003064810298383236,-0.0000404679449275136
1761431180745650200,1.162650146484375,0.0005676409346051514,-0.0010143122635781765,-0.0003935162676498294
1761431180765594400,1.182594482421875,-0.002944173524156213,-0.002276558429002762,0.0011282702907919884
1761431180785537500,1.20253759765625,-0.0005910363979637623,0.0010534278117120266,-0.00026280595920979977
1761431180805481500,1.2224814453125,-0.001368526485748589,-0.0008236994035542011,-0.0005231339600868523
1761431180825425400,1.24242529296875,-0.001421495690010488,-0.0003570760600268841,0.0013448263052850962
1761431180845369300,1.262369384765625,0.004006184637546539,-0.0012348676100373268,0.0031133657321333885
1761431180865313300,1.282313232421875,-0.001934756408445537,-0.00003896420821547508,0.0013589214067906141
1761431180885256200,1.302256103515625,-0.0008376678451895714,-0.0028549085836857557,0.00022162182722240686
1761431180905200400,1.322200439453125,-0.003004854777827859,0.0002853083424270153,-0.0007633575005456805
1761431180925144300,1.342144287109375,-0.0012386897578835487,0.0020778486505150795,-0.0023834339808672667
1761431180945088500,1.362088623046875,-0.003225611988455057,0.0015116073191165924,-0.00012915139086544514
1761431180965032400,1.382032470703125,-0.0005033183260820806,0.002618179190903902,-0.0015441740397363901
1761431180984975400,1.401975341796875,0.0016275992384180427,-0.00009751925244927406,-0.0014561312273144722
1761431181004919300,1.421919189453125,0.00043093148269690573,0.0015227515250444412,0.0014941152185201645
1761431181024863500,1.441863525390625,-0.0017197703709825873,0.0013420931063592434,-0.0006645682733505964
1761431181044807400,1.461807373046875,-0.00019153879838995636,-0.002119460143148899,0.0003906447673216462
1761431181064750300,1.481750244140625,0.0009319655946455896,0.002160562202334404,0.0002684502396732569
1761431181084694300,1.5016943359375,-0.0005205505294725299,0.00009323516860604286,0.0005334831075742841
1761431181104638500,1.521638427734375,-0.00022823861218057573,0.000454477034509182,0.00020674243569374084
1761431181124582400,1.54158251953125,0.001722818473353982,0.0004749540239572525,-0.0025600064545869827
1761431181144524500,1.561524658203125,0.0008447679574601352,-0.0019058878533542156,-0.0006737803923897445
1761431181164467500,1.581467529296875,-0.0023956068325787783,0.0026704762130975723,0.00031017360743135214
1761431181184411600,1.60141162109375,-0.0015740359667688608,0.0011228164657950401,-0.0004717426490969956
1761431181204355600,1.62135546875,-0.0010149192530661821,-0.0004420713521540165,0.001104616210795939
1761431181224299500,1.641299560546875,-0.0007262673461809754,0.0004366878420114517,0.0013363666366785765
1761431181244243500,1.661243408203125,0.00010255158122163266,0.0027181049808859825,0.0003412252990528941
1761431181264186400,1.681186279296875,-0.0022716375533491373,0.000018182676285505295,0.0004488204140216112
1761431181284130600,1.701130615234375,-0.0018029636703431606,-0.00012962333858013153,-0.00039319880306720734
1761431181304074500,1.721074462890625,0.0008986264001578093,0.0012362762354314327,-0.0014548703329637647
1761431181324018400,1.741018310546875,0.000031319097615778446,0.0013943733647465706,0.0013305586762726307
1761431181343962400,1.76096240234375,-0.0007041441276669502,0.0011145654134452343,-0.0017918904777616262
1761431181363905500,1.780905517578125,0.0032231640070676804,0.0014557326212525368,0.0012991199037060142
1761431181383849500,1.800849365234375,-0.0022377674467861652,-0.0006629619747400284,0.003264798317104578
1761431181403793700,1.820793701171875,0.000844996131490916,-0.0009880969300866127,-0.0005718166939914227
1761431181423737600,1.840737548828125,-0.0012042708694934845,-0.0021500266157090664,0.0009365816367790103
1761431181443680500,1.860680419921875,-0.000867021270096302,0.0003229919821023941,0.0009146573720499873
1761431181463624400,1.88062451171875,-0.000006563350325450301,0.00011062482371926308,0.0009004005696624517
1761431181483568400,1.900568359375,-0.000014096294762566686,0.0011188602074980736,0.001382018905133009
1761431181503512300,1.92051220703125,-0.0023287241347134113,-0.0003591356799006462,0.00047567603178322315
1761431181523456500,1.94045654296875,0.0002586937916930765,-0.0005237320438027382,0.0012013796949759126
1761431181543399700,1.960399658203125,0.0003396167594473809,0.0008825301192700863,0.000025610439479351044
1761431181563343600,1.980343505859375,0.001604961114935577,-0.0013829274103045464,0.0018497855635359883
1761431181583287600,2.00028759765625,-0.0004738738643936813,-0.00048534246161580086,0.00011125043965876102
1761431181603231500,2.0202314453125,0.0011005933629348874,0.0011301087215542793,0.0022080657072365284
1761431181623175400,2.040175537109375,-0.00021850684424862266,0.0001230267807841301,0.000018812483176589012
1761431181643118300,2.060118408203125,0.00017974978254642338,0.001532569993287325,0.0010797480354085565
1761431181663062500,2.0800625,-0.0031170693691819906,-0.0014243503101170063,0.0004110313020646572
1761431181683006500,2.10000634765625,0.00025048304814845324,-0.00024672411382198334,0.00009321048855781555
1761431181702950400,2.119950439453125,-0.001017934293486178,-0.00021160999312996864,0.0035973098129034042
1761431181722893600,2.1398935546875,-0.0009876142721623182,-0.0003858557902276516,0.0007746849441900849
1761431181742837500,2.15983740234375,0.00020493577176239341,7.59027898311615e-8,0.002185255289077759
1761431181762781400,2.179781494140625,0.00013265364395920187,-0.0001854998990893364,-0.0014249994419515133
1761431181782725600,2.1997255859375,0.00020565849263221025,0.0010034074075520039,-0.0002058583777397871
1761431181802669600,2.219669677734375,0.0015686324331909418,-0.0007601529359817505,0.0011400297516956925
1761431181822612500,2.239612548828125,-0.0020808002445846796,-0.0014139208942651749,0.00041703355964273214
1761431181842556400,2.259556396484375,-0.0010949509451165795,0.0027253637090325356,-0.0007525456603616476
1761431181862500400,2.279500244140625,0.002437780611217022,0.0002730465494096279,0.0014881272800266743
1761431181882444300,2.2994443359375,0.001655294094234705,-0.0006521521136164665,0.00016740441787987947
1761431181902388500,2.319388427734375,-0.0008668755763210356,-0.0009399596601724625,0.0015360962133854628
1761431181922331600,2.33933154296875,-0.002008434385061264,0.0012852135114371777,0.00010308832861483097
1761431181942275600,2.359275634765625,-0.0018812508787959814,0.0006826333701610565,-0.0015174889704212546
1761431181962219500,2.379219482421875,-0.0018975783605128527,0.001109762117266655,0.0011963043361902237
1761431181982163500,2.39916357421875,-0.0009738863445818424,-0.00047444552183151245,0.001663006143644452
1761431182002106400,2.4191064453125,0.0008423274848610163,0.0005946788005530834,0.0025932120624929667
1761431182022050300,2.43905029296875,-0.0003388520563021302,-0.001825982704758644,0.00045999151188880205
1761431182041994500,2.458994384765625,-0.0007031846325844526,-0.002023004926741123,-0.0001210252521559596
1761431182061938400,2.4789384765625,0.0017103368882089853,-0.0034291662741452456,0.0018394464859738946
1761431182081882400,2.49888232421875,-0.002168050967156887,0.0007659243419766426,0.002914073411375284
1761431182101825500,2.518825439453125,0.00035797376767732203,0.00011666817590594292,0.004517665132880211
1761431182121769500,2.53876953125,0.002131406217813492,-0.0020227828063070774,0.0017951044719666243
1761431182141713700,2.558713623046875,-0.0008623125031590462,-0.00019708648324012756,0.0013634879142045975
1761431182161657900,2.578657958984375,-0.0017639604629948735,-0.0003438098356127739,0.0015333198243752122
1761431182181600800,2.598600830078125,-0.0010032305726781487,0.0009368490427732468,-0.000004595727659761906
1761431182201544700,2.618544677734375,0.0026710866950452328,0.0003689248114824295,-0.001669844496063888
1761431182221488600,2.638488525390625,-0.0017587284091860056,0.0003615063615143299,-0.0004257208202034235
1761431182241432600,2.6584326171875,-0.00027663889341056347,0.00020552892237901688,0.0016626269789412618
1761431182261376500,2.67837646484375,-0.00034490751568228006,-0.0004588169977068901,0.0000074516283348202705
1761431182281319700,2.698319580078125,-0.00005134980892762542,-0.0033702801447361708,0.0005236433353275061
1761431182301264000,2.718263916015625,0.0005874321796000004,-0.00008069584146142006,-0.0008869932498782873
1761431182321207800,2.738207763671875,-0.0010586066637188196,-0.0014441055245697498,-0.00011094240471720695
1761431182341151700,2.75815185546875,-0.0010792081011459231,-0.002228202298283577,0.0014722241321578622
1761431182361095700,2.778095703125,-0.0009992278646677732,-0.0010389075614511967,0.0011468679876998067
1761431182381038600,2.79803857421875,0.0004715308314189315,0.0007706861943006516,0.0005189246730878949
1761431182400982500,2.817982421875,-0.002194733126088977,-0.0006405883468687534,0.00032265065237879753
1761431182420926700,2.8379267578125,-0.003504393622279167,0.0026337183080613613,0.0019360504811629653
1761431182440870700,2.85787060546875,-0.0002938571269623935,-0.00042342767119407654,0.000012761796824634075
1761431182460813800,2.877813720703125,-0.002437612973153591,0.0010879449546337128,-0.0016079258639365435
1761431182480757800,2.8977578125,0.0005107665783725679,-0.0012170630507171154,-0.0005561431171372533
1761431182500701700,2.91770166015625,0.0001903767406474799,0.0037260670214891434,0.002361143007874489
1761431182520645600,2.937645751953125,-0.0010517301270738244,-0.00045860279351472855,-0.0006367967580445111
1761431182540589800,2.95758984375,0.0008421609527431428,-0.0009463252499699593,-0.0025577894411981106
1761431182560532700,2.97753271484375,0.00006659780046902597,-0.0018166969530284405,-0.0024772705510258675
1761431182580476700,2.9974765625,0.00008180501754395664,-0.000005299225449562073,-0.0012850185157731175
1761431182600420600,3.017420654296875,-0.0018714903853833675,-0.0005267621017992496,-0.0025878259912133217
1761431182620364500,3.037364501953125,-0.00003542136983014643,0.00024699512869119644,0.002490806393325329
1761431182640307700,3.0573076171875,0.0007474580779671669,0.0011756056919693947,-0.001252551912330091
1761431182660251600,3.077251708984375,-0.0013817842118442059,0.0021952278912067413,0.001766401925124228
1761431182680195800,3.09719580078125,-0.00015229376731440425,-0.0013320478610694408,0.0015257508493959904
1761431182700139800,3.117139892578125,-0.0005814480246044695,-0.0003751525655388832,0.0009253083262592554
1761431182720083700,3.137083740234375,-0.0005839184741489589,0.0018639955669641495,0.00014902546536177397
1761431182740026600,3.157026611328125,-0.0011764831142500043,0.00023446930572390556,-0.0006519604939967394
1761431182759970600,3.176970458984375,-0.000903019099496305,-0.0009224121458828449,-0.0004946677945554256
1761431182779914500,3.19691455078125,0.0001692978257779032,0.0009246999397873878,0.0018006560858339071
1761431182799858700,3.216858642578125,-0.00028384989127516747,0.002915860153734684,0.00007432408165186644
1761431182819803000,3.236802978515625,-0.003113903570920229,0.00033488310873508453,0.001017069793306291
1761431182839745800,3.256745849609375,0.0004181765834800899,0.00008965050801634789,0.0011189933866262436
1761431182859689700,3.276689697265625,0.00016341183800250292,-0.0008392785675823689,-0.0011195922270417213
1761431182879633700,3.296633544921875,-0.00043018494034186006,0.0008120466955006123,-0.00039304414531216025
1761431182899577600,3.31657763671875,-0.001011120155453682,-0.002088321838527918,-0.0011453473707661033
1761431182919520500,3.3365205078125,-0.0013267879839986563,-0.0020185918547213078,-0.0005288891261443496
1761431182939464700,3.356464599609375,-0.0018504001200199127,-0.0006575682200491428,-0.0011401575757190585
1761431182959408600,3.37640869140625,-0.0025042227935045958,-0.0015302128158509731,0.0007764536421746016
1761431182979352800,3.396352783203125,-0.0017303989734500647,0.001418032217770815,-0.0015847826143726707
1761431182999296800,3.416296875,0.00013183194096200168,0.001442563720047474,0.001263235928490758
1761431183019239700,3.43623974609375,-0.001323843258433044,-0.002154641319066286,0.0007507913978770375
1761431183039183600,3.45618359375,0.0001858199539128691,-0.0005780858919024467,-0.0016610196325927973
1761431183059127800,3.4761279296875,-0.00020970712648704648,0.0010803942568600178,0.0010540545918047428
1761431183079071700,3.49607177734375,-0.002085424493998289,0.0016907351091504097,-0.004054596647620201
1761431183099014700,3.5160146484375,0.001795089105144143,0.000047756824642419815,0.0017365168314427137
1761431183118958600,3.53595849609375,0.0006212472217157483,-0.0006943456828594208,0.002631399082019925
1761431183138902800,3.55590283203125,-0.0004906693357042968,-0.0006096293218433857,0.0025540338829159737
1761431183158846700,3.5758466796875,0.0003855129180010408,0.001722655724734068,0.0011187399504706264
1761431183178790700,3.595790771484375,-0.0005972909275442362,0.000486565288156271,-0.0004124502302147448
1761431183198733600,3.615733642578125,-0.0015045544132590294,-0.0006089601665735245,0.001682383706793189
1761431183218677500,3.635677490234375,-0.0007714651874266565,0.00020033679902553558,-0.0015846219612285495
1761431183238621400,3.655621337890625,0.0008740821504034102,0.0005736746825277805,-0.002303674817085266
1761431183258565600,3.675565673828125,-0.0010700207203626633,0.0003066151402890682,0.00256795110180974
1761431183278508500,3.695508544921875,0.001358377281576395,-0.00228546722792089,-0.0005624466575682163
1761431183298452700,3.71545263671875,0.0024272375740110874,-0.0006250757724046707,-0.0005957889370620251
1761431183318396700,3.735396728515625,-0.0009331254987046123,-0.000788568053394556,-0.00004555226769298315
1761431183338340600,3.755340576171875,0.00009910669177770615,-0.0012014643289148808,-0.0018721064552664757
1761431183358284500,3.775284423828125,-0.0009670594008639455,0.0018743854016065598,-0.0014970102347433567
1761431183378227500,3.7952275390625,-0.0011325377272441983,0.0024547120556235313,0.001017980044707656
1761431183398171600,3.815171630859375,0.00007631647167727351,-0.0002474081702530384,0.0005394797772169113
1761431183418115600,3.835115478515625,-0.0010053731966763735,0.002863922156393528,-0.0005931632476858795
1761431183438059500,3.8550595703125,0.0010335809784010053,-0.0008321981877088547,0.00025724631268531084
1761431183458002700,3.875002685546875,-0.0004014883888885379,-0.00010666204616427422,-0.0004896548925898969
1761431183477946600,3.894946533203125,-0.0016915550222620368,0.00019118934869766235,0.000474487547762692
1761431183497890600,3.914890625,0.0028239735402166843,-0.002072406467050314,0.001950465957634151
1761431183517834800,3.934834716796875,-0.001536564901471138,0.002089932095259428,0.003383142873644829
1761431183537778700,3.95477880859375,0.00018296428606845438,-0.002059070859104395,0.0009845391614362597
1761431183557721600,3.9747216796875,0.0006560914916917682,0.0014657466672360897,-0.00017383036902174354
1761431183577665500,3.99466552734375,-0.0001876034657470882,0.0003596115857362747,0.0013799343723803759
1761431183597608400,4.0146083984375,0.00011583865853026509,-0.0005837632343173027,0.0010026262607425451
1761431183617552600,4.034552734375,-0.00013187207514420152,0.0021653063595294952,-0.0034507857635617256
1761431183637496600,4.05449658203125,0.0005632495740428567,-0.0019137980416417122,0.0020312145352363586
1761431183657440800,4.074440673828125,-0.001641994109377265,0.0023101521655917168,0.0013855320867151022
1761431183677383700,4.0943837890625,-0.00200459873303771,0.0015953169204294682,0.0020407168194651604
1761431183697327600,4.11432763671875,-0.00024374548229388893,-0.00004480965435504913,0.00112987554166466
1761431183717271600,4.134271484375,-0.0008368998533114791,-0.0006534452550113201,0.00005407573189586401
1761431183737215500,4.154215576171875,0.0008769045816734433,0.0012537133879959583,0.002140251686796546
1761431183757159400,4.174159423828125,0.00035424696397967637,-0.000056838616728782654,0.00048800872173160315
1761431183777102600,4.1941025390625,-0.0013600854435935616,-0.001185484230518341,0.0012518473668023944
1761431183797046800,4.214046875,0.0015036764089018106,-0.0004761461168527603,0.00030524167232215405
1761431183816990700,4.23399072265625,-0.0012940549058839679,0.00036990782245993614,-0.0023992792703211308
1761431183836934700,4.2539345703125,0.00045825759298168123,0.0006209802813827991,-0.00007726205512881279
1761431183856877600,4.273877685546875,0.0016926312819123268,-0.0016576740890741348,0.001604488235898316
1761431183876821500,4.293821533203125,-0.000013554643373936415,-0.0012993179261684418,0.0014505938161164522
1761431183896765400,4.313765380859375,-0.0026183254085481167,-0.0000476716086268425,0.00111957429908216
1761431183916709600,4.333709716796875,0.00029956753132864833,-0.0007941816002130508,-0.0006222043884918094
1761431183936652500,4.353652587890625,-0.000567631155718118,-0.0012360303662717342,0.0013583707623183727
1761431183956596700,4.3735966796875,-0.0007393781561404467,0.0003705001436173916,-0.00134331826120615
1761431183976541400,4.39354150390625,0.001574270660057664,0.0009807362221181393,0.003107110969722271
1761431183996484600,4.413484619140625,-0.0024392411578446627,-0.0006095133721828461,0.005187513772398233
1761431184016428500,4.433428466796875,0.0005133539089001715,0.0006542075425386429,0.0012863280717283487
1761431184036372700,4.453372802734375,-0.0012524302583187819,-0.0000979905016720295,0.000419574324041605
1761431184056316700,4.473316650390625,-0.0025765341706573963,-0.00038756895810365677,-0.0013523787492886186
1761431184076259600,4.493259521484375,-0.0007040622876957059,-0.0010144668631255627,-0.0003250371082685888
1761431184096203500,4.51320361328125,0.0026197524275630713,0.00013364991173148155,0.0005357158370316029
1761431184116147500,4.5331474609375,-0.0019947306718677282,0.0006241942755877972,0.0007937838090583682
1761431184136091400,4.55309130859375,-0.0018296573543921113,-0.0007790559902787209,0.00037469970993697643
1761431184156035000,4.57303515625,0.0013870573602616787,-0.0017267707735300064,0.0012204541126266122
1761431184175979300,4.592979248046875,0.0024417275562882423,-0.0001806328073143959,-0.00009965361095964909
1761431184195923200,4.612923095703125,0.0018858654657378793,-0.0003613079898059368,-0.0025764722377061844
1761431184215867100,4.6328671875,0.0008082293788902462,0.0008671279065310955,0.0015000700950622559
1761431184235811000,4.65281103515625,0.0006381030543707311,-0.00022641196846961975,-0.00044734106631949544
1761431184255754000,4.67275390625,-0.002955811098217964,0.0010096468031406403,-0.0015070653753355145
1761431184275698200,4.6926982421875,0.0009766985895112157,0.0013171816244721413,0.0005047551821917295
1761431184295642000,4.71264208984375,0.0002914640062954277,-0.000056582968682050705,0.0018040846334770322
1761431184315586000,4.7325859375,0.0007046189857646823,0.0007903934456408024,-0.001217755489051342
1761431184335529200,4.752529296875,0.0006467963103204966,0.002156889531761408,-0.0006326028378680348
1761431184355473200,4.77247314453125,-0.000996295129880309,-0.00006150593981146812,0.0017850255826488137
1761431184375417000,4.7924169921875,-0.0022702401038259268,-0.0006501320749521255,-0.0005348165868781507
1761431184395361300,4.812361328125,0.000727193895727396,-0.0016537001356482506,0.0005417428910732269
1761431184415305200,4.83230517578125,-0.00008993243682198226,-0.000283045694231987,-0.0013519451022148132
1761431184435248000,4.852248046875,-0.0005170365329831839,0.0019721873104572296,0.0020927833393216133
1761431184455192000,4.872192138671875,0.0015980112366378307,0.000766528770327568,0.000060180784203112125
1761431184475136000,4.892135986328125,-0.0038011481519788504,0.001668678130954504,0.000504789175465703
1761431184495080000,4.912079833984375,-0.000495398067869246,0.0003485260531306267,0.0015888430643826723
1761431184515023000,4.932023193359375,0.0001506506814621389,-0.00043847551569342613,-0.0009409843478351831
1761431184534967300,4.95196728515625,0.000761047238484025,0.003959202207624912,-0.00024083926109597087
1761431184554911200,4.9719111328125,-0.0018375024665147066,-0.00026988983154296875,0.0011036400683224201
1761431184574855200,4.991855224609375,0.00014437877689488232,0.001038532704114914,0.000057033030316233635
1761431184594798000,5.011798095703125,0.0004339240840636194,-0.00037039490416646004,-0.0016106548719108105
1761431184614742000,5.031741943359375,0.0022595038171857595,-0.0006332863122224808,0.0007085570832714438
1761431184634686000,5.05168603515625,0.0009104959317483008,-0.00199446314945817,0.0033024423755705357
1761431184654630100,5.071630126953125,0.000356104428647086,0.00029846280813217163,0.0016139599028974771
1761431184674574000,5.091573974609375,-0.0021026870235800743,-0.0016981926746666431,0.002075083088129759
1761431184694517200,5.111517333984375,-0.0012788070598617196,-0.0008478662930428982,0.0020640897564589977
1761431184714461200,5.131461181640625,-0.0017887996509671211,-0.0025931778363883495,-0.002747780177742243
1761431184734405000,5.151405029296875,-0.0013981037773191929,0.0020557213574647903,0.0008545124437659979
1761431184754349000,5.17134912109375,0.004837250802665949,-0.0009527546353638172,0.00015120056923478842
1761431184774292000,5.1912919921875,-0.0018209582194685936,0.0034945555962622166,-0.00039828842272982
1761431184794236200,5.211236083984375,-0.0005461378023028374,-0.0009079617448151112,-0.002861523535102606
1761431184814180000,5.23118017578125,0.0003320752875879407,0.0002328525297343731,0.001777639496140182
1761431184834124000,5.2511240234375,0.0000378835538867861,-0.001112628262490034,0.002155857626348734
1761431184854067200,5.271067138671875,-0.0017646452179178596,-0.0022347315680235624,-0.000692934961989522
1761431184874011100,5.29101123046875,0.0006415567477233708,-0.0010375883430242538,-0.0013517364859580994
1761431184893955000,5.310955078125,0.00028983369702473283,-0.002403978956863284,0.002626626053825021
1761431184913899300,5.330899169921875,0.00010902152280323207,0.0004003760404884815,-0.002698019612580538
1761431184933843200,5.35084326171875,0.0006596670718863606,0.00009372737258672714,-0.0020122569985687733
1761431184953786000,5.3707861328125,-0.0017813444137573242,0.00169468205422163,0.0013032243587076664
1761431184973730000,5.39072998046875,0.0006490341038443148,-0.000039857812225818634,-0.003621392883360386
1761431184993674000,5.410674072265625,-0.00031795966788195074,0.00015215622261166573,-0.0008620916632935405
1761431185013618000,5.430617919921875,-0.002129042986780405,-0.002151082269847393,0.0012225051177665591
1761431185033561000,5.45056103515625,-0.000047879701014608145,-0.0021486636251211166,-0.00023608008632436395
1761431185053505300,5.47050537109375,0.000788718112744391,0.0012453622184693813,0.0033590609673410654
1761431185073449200,5.49044921875,0.00008020704262889922,0.0003551109693944454,-0.0002908552414737642
1761431185093393200,5.51039306640625,0.00235771550796926,0.002536923624575138,0.0006465803598985076
1761431185113336000,5.530336181640625,-0.0016861913027241826,-0.0013684662990272045,-0.0023847410921007395
1761431185133280000,5.550280029296875,0.000898115336894989,-0.002980397315695882,0.002970957662910223
1761431185153227300,5.570227294921875,-0.0011087519815191627,0.001780097372829914,0.0005413949256762862
1761431185173171200,5.590171142578125,-0.0020964504219591618,0.0021058861166238785,-0.0014379683416336775
1761431185193115100,5.610115234375,0.0008974713273346424,-0.00008235033601522446,0.0012863269075751305
1761431185213058300,5.630058349609375,0.0016010133549571037,0.00001962948590517044,0.00020027428399771452
1761431185233002200,5.650002197265625,0.00044332549441605806,0.0017769290134310722,0.0013520291540771723
1761431185252946200,5.6699462890625,-0.0009619568008929491,-0.00005471985787153244,-0.0012530457461252809
1761431185272890400,5.689890380859375,0.002188724000006914,-0.0004772539250552654,0.0003424778115004301
1761431185292833300,5.709833251953125,0.0004585374554153532,-0.00023371120914816856,0.00020366325043141842
1761431185312777200,5.729777099609375,-0.0007396069122478366,-0.0002960287965834141,-0.0006844272138550878
1761431185332721200,5.74972119140625,-0.0005113990046083927,0.0018502771854400635,-0.0007807324291206896
1761431185352665000,5.7696650390625,-0.001130252960138023,-0.0002446216531097889,0.003512307070195675
1761431185372608300,5.789608154296875,0.0003346966113895178,0.00264256214722991,-0.002746799262240529
1761431185392552200,5.80955224609375,-0.0019818053115159273,0.00047472352162003517,-0.00028535310411825776
1761431185412496400,5.829496337890625,0.0002433592453598976,-0.0012616561725735664,0.0011659297160804272
1761431185432440300,5.8494404296875,0.0006896033883094788,-0.00018470920622348785,-0.00018866162281483412
1761431185452384300,5.86938427734375,-0.0027831755578517914,0.0011392226442694664,-0.00022094522137194872
1761431185472327200,5.8893271484375,0.0008718426688574255,0.002773013897240162,0.001455852179788053
1761431185492271000,5.90927099609375,0.00023524262360297143,0.0004278342239558697,0.002332716016098857
1761431185512215000,5.929215087890625,-0.0012266018893569708,-0.0005039442330598831,0.0016154047334566712
1761431185532159200,5.9491591796875,0.00003081877366639674,0.001479530707001686,-0.000592624768614769
1761431185552102400,5.969102294921875,-0.0008941630367189646,0.00029063085094094276,-0.00018397020176053047
1761431185572046300,5.98904638671875,0.0005953089566901326,0.001067762728780508,0.0006773109780624509
1761431185591990300,6.008990234375,0.002069145906716585,-0.00425188010558486,0.0003828351618722081
1761431185611934200,6.028934326171875,0.0006461192388087511,0.0026934798806905746,0.001610456733033061
1761431185631877000,6.048877197265625,0.0010004935320466757,0.001652473583817482,0.0015835301019251347
1761431185651821000,6.068821044921875,-0.0019640750251710415,0.0013331803493201733,-0.0005790856084786355
1761431185671765200,6.08876513671875,-0.20678815245628357,0.15073856711387634,0.021961957216262817
1761431185691709200,6.108709228515625,-0.00009631557622924447,-0.008618442341685295,-0.018624652177095413
1761431185711652400,6.12865234375,-0.002781215589493513,-0.010631700977683067,-0.0006701053935103118
1761431185731596300,6.14859619140625,-0.07967386394739151,0.03812545910477638,-0.000471979146823287
1761431185751540200,6.168540283203125,-0.0725371316075325,0.046598292887210846,-0.0029665380716323853
1761431185771484200,6.188484130859375,-0.06857767701148987,0.04247133433818817,-0.0014340394409373403
1761431185791428400,6.208428466796875,-0.06348590552806854,0.04019251465797424,-0.004155827686190605
1761431185811371300,6.228371337890625,-0.054941821843385696,0.03571296110749245,-0.007252710405737162
1761431185831315200,6.248315185546875,-0.000678848591633141,-0.00398863572627306,-0.0021261386573314667
1761431185851259100,6.268259033203125,-0.0009311824105679989,0.00038414495065808296,-0.0013462393544614315
1761431185871203000,6.288203125,0.0007726064650341868,0.0015757959336042404,0.0023289150558412075
1761431185891146200,6.308146240234375,0.00025645262212492526,0.001301976852118969,0.002396476222202182
1761431185911090200,6.328090087890625,-0.00009341991972178221,-0.001495057251304388,-0.0007293670205399394
1761431185931034400,6.348034423828125,-0.0010226636659353971,-0.0006503709591925144,-0.0028286671731621027
1761431185950978300,6.367978271484375,0.0004171080654487014,0.0006032469682395458,-0.0008681176695972681
1761431185970921200,6.387921142578125,-0.0033080221619457006,-0.0003194473683834076,0.0008664457127451897
1761431185990865200,6.407865234375,0.00020125924493186176,0.00047049159184098244,0.0022244714200496674
1761431186010809000,6.42780908203125,-0.0017998075345531106,0.0022870576940476894,0.0005529222544282675
1761431186030753000,6.4477529296875,-0.000397287163650617,-0.0008260789327323437,-0.0015871592331677675
1761431186050696200,6.4676962890625,0.0003481653693597764,-0.0011578709818422794,0.00011709006503224373
1761431186070640400,6.487640380859375,-0.0008374068420380354,-0.00018097786232829094,-0.0016584789846092463
1761431186090584300,6.507584228515625,-0.00012694293400272727,0.0003558625467121601,-0.002719431184232235
1761431186110528300,6.5275283203125,-0.0028637403156608343,0.0010364297777414322,0.0012717201607301831
1761431186130472200,6.54747216796875,-0.00011872028699144721,-0.0003925240598618984,-0.000364757957868278
1761431186150411300,6.567411376953125,0.0009109575767070055,-0.00010905740782618523,0.00047868944238871336
1761431186170355500,6.58735546875,-0.0008847120916470885,0.0018348838202655315,0.001901917508803308
1761431186190299400,6.60729931640625,0.002402860438451171,-0.0031815464608371258,0.0019508849363774061
1761431186210243600,6.62724365234375,-0.00029175926465541124,0.0008895979262888432,0.0005664698546752334
1761431186230186500,6.6471865234375,-0.0008164019673131406,-0.0003908500075340271,-0.0015009421622380614
1761431186250130400,6.66713037109375,-0.0017149192281067371,0.0012299800291657448,0.002214804058894515
1761431186270074400,6.687074462890625,-0.0005389336729422212,-0.0002095191739499569,-0.0005971696809865534
1761431186290018600,6.7070185546875,0.00004057024489156902,0.0007769153453409672,0.00020444183610379696
1761431186309961500,6.72696142578125,-0.0010141748934984207,0.001005004160106182,0.0004892833530902863
1761431186329905400,6.746905517578125,-0.001147731556557119,0.00030607637017965317,-0.0009830747731029987
1761431186349849300,6.766849365234375,-0.0013844872592017055,0.0027167624793946743,0.00032588199246674776
1761431186369793500,6.78679345703125,-0.003253294387832284,0.0012141303159296513,0.0008093263022601604
1761431186389736400,6.806736328125,0.00047912588343024254,0.0032919286750257015,0.0018716612830758095
1761431186409680400,6.826680419921875,-0.0005255514988675714,0.0003354242071509361,-0.0015588951064273715
1761431186429624600,6.84662451171875,-0.0008250235114246607,-0.0010239980183541775,0.0016084194649010897
1761431186449568500,6.866568603515625,-0.002120017306879163,0.0016339579597115517,0.0018478527199476957
1761431186469512400,6.886512451171875,-0.0004659848054870963,-0.00015565147623419762,-0.0012822597054764628
1761431186489455400,6.906455322265625,-0.0009024420287460089,-0.002067476511001587,0.0021469700150191784
1761431186509399300,6.9263994140625,0.00022184029512573034,-0.003419481450691819,0.0018782345578074455
1761431186529343500,6.946343505859375,0.00011163533781655133,-0.000113719142973423,-0.0016038842732086778
1761431186549287700,6.96628759765625,-0.0006029437063261867,0.0007565068081021309,-0.00037030642852187157
1761431186569230600,6.986230712890625,-0.0032090279273688793,0.0013091126456856728,0.0012167554814368486
1761431186589174500,7.006174560546875,0.0008981177816167474,0.0008825510740280151,0.00024648162070661783
1761431186609118500,7.026118408203125,-0.0005652455147355795,-0.0009891311638057232,0.000700273783877492
1761431186629062400,7.0460625,0.00010882419883273542,-0.0013351254165172577,0.0024286636617034674
1761431186649005300,7.06600537109375,-0.0008503208518959582,-0.0005555362440645695,-0.000688206753693521
1761431186668949200,7.08594921875,-0.0026329210959374905,0.0005216365680098534,0.0013330160873010755
1761431186688893400,7.1058935546875,-0.0009407300385646522,0.0007288660854101181,-0.002599961357191205
1761431186708837600,7.125837646484375,-0.0023667053319513798,-0.00010886229574680328,0.0007307803025469184
1761431186728780500,7.145780517578125,-0.0023633914534002542,0.00014672009274363518,0.002213618252426386
1761431186748724500,7.165724365234375,-0.0031797715928405523,0.001805625855922699,0.002152080647647381
1761431186768668400,7.18566845703125,-0.00041267997585237026,-0.000594880897551775,-0.0012904771137982607
1761431186788612400,7.2056123046875,0.0023773345164954662,0.0011978177353739738,0.00028226338326931
1761431186808555300,7.22555517578125,-0.0009710186859592795,-0.0014173774980008602,0.0006433964008465409
1761431186828499500,7.24549951171875,0.0012020869180560112,-0.0012244251556694508,-0.0012267794227227569
1761431186848443400,7.265443359375,-0.0013055724557489157,0.0007164208218455315,0.0009078223956748843
1761431186868387600,7.2853876953125,0.0001679886772762984,-0.0018841023556888103,0.001097037922590971
1761431186888330500,7.30533056640625,0.00039277062751352787,-0.001710665412247181,-0.0011059269309043884
1761431186908274400,7.3252744140625,0.00001961603993549943,0.0009775175713002682,-0.0012226630933582783
1761431186928218400,7.34521826171875,0.00040148309199139476,0.0018955143168568611,-0.0013090110151097178
1761431186948162600,7.36516259765625,-0.002455058041960001,0.0008965339511632919,0.00047278753481805325
1761431186968105500,7.38510546875,0.0015230796998366714,0.00026313215494155884,0.0009690294973552227
1761431186988049400,7.40504931640625,-0.002296196762472391,0.0014154184609651566,-0.0027671344578266144
1761431187007993300,7.424993408203125,-0.0025338553823530674,0.0009038662537932396,0.0009242938831448555
1761431187027937500,7.4449375,-0.002255134517326951,-0.0017995513044297695,0.0000880933366715908
1761431187047880400,7.46488037109375,0.0007842009072192013,-0.00017808331176638603,-0.0002899602404795587
1761431187067824400,7.484824462890625,-0.0017969647888094187,-0.0006475457921624184,-0.00031088775722309947
1761431187087768600,7.5047685546875,-0.0004810526152141392,-0.0008969428017735481,0.0009257314959540963
1761431187107712500,7.52471240234375,0.00012571791012305766,-0.0014541861601173878,-0.0006806052988395095
1761431187127655400,7.544655517578125,0.00019179884111508727,0.0026933937333524227,-0.00019348668865859509
1761431187147600600,7.5646005859375,-0.0009231160511262715,-0.001419460866600275,0.001141806598752737
1761431187167544600,7.584544677734375,0.001599928131327033,0.00044464971870183945,0.000020944164134562016
1761431187187488500,7.604488525390625,-0.001540610333904624,0.003211513627320528,0.0008066631853580475
1761431187207431700,7.624431640625,-0.0018805619329214096,-0.0001684417948126793,0.0005476904334500432
1761431187227375600,7.644375732421875,-0.0019843776244670153,0.0018263054080307484,-0.001075033564120531
1761431187247319800,7.66431982421875,-0.001732753124088049,0.00007950514554977417,0.0005402396200224757
1761431187267263700,7.684263671875,0.00014150173228699714,0.0005986308678984642,0.0023760851472616196
1761431187287206700,7.70420654296875,-0.0016940487548708916,0.0027916445396840572,-0.0014221492456272244
1761431187307150600,7.724150634765625,-0.0016187484143301845,0.0018514888361096382,-0.00001354364212602377
1761431187327094500,7.744094482421875,-0.002076013246551156,0.0011180615983903408,-0.0001009057741612196
1761431187347038500,7.76403857421875,-0.00027441862039268017,-0.003387714736163616,0.002473368076607585
1761431187366981600,7.783981689453125,-0.0019092040602117777,-0.000034325290471315384,0.000418461742810905
1761431187386925800,7.80392578125,-0.0029127299785614014,0.0010551484301686287,0.000001600128598511219
1761431187406869800,7.823869873046875,-0.0013121033553034067,0.0003099236637353897,0.004002593457698822
1761431187426813700,7.843813720703125,0.0020561993587762117,-0.00028553465381264687,0.001244333223439753
1761431187446756600,7.863756591796875,-0.0011532001662999392,0.000005982816219329834,-0.0003035168629139662
1761431187466700500,7.883700439453125,0.00018425962480250746,0.0004677935503423214,-0.0020156188402324915
1761431187486644500,7.90364453125,-0.001204724540002644,0.0005855844356119633,-0.0005350972642190754
1761431187506588700,7.923588623046875,0.0023368976544588804,0.0003495370037853718,-0.00037804461317136884
1761431187526531600,7.943531494140625,-0.000022499938495457172,0.000984302256256342,-0.0007508264388889074
1761431187546475800,7.963475830078125,-0.00010459520854055882,0.0011856365017592907,0.0018927956698462367
1761431187566419700,7.983419677734375,-0.0017265754286199808,0.0003170161508023739,0.0009723464027047157
1761431187586363600,8.00336376953125,-0.00233024125918746,0.0024955947883427143,0.00022888241801410913
1761431187606306600,8.023306640625,0.0016316537512466311,-0.0010950090363621712,0.0012746917782351375
1761431187626250500,8.04325048828125,-0.0020246105268597603,-0.0014807991683483124,-0.0007130989688448608
1761431187646193400,8.063193359375,0.0008437838405370712,-0.0020054616034030914,-0.0005032373010180891
1761431187666137600,8.0831376953125,-0.00017712084809318185,0.0014711050316691399,0.003366695251315832
1761431187686081500,8.10308154296875,0.00008995804819278419,-0.0007996587082743645,-0.00013172219041734934
1761431187706025700,8.123025634765625,-0.0017810114659368992,-0.0004770536907017231,-0.001093279104679823
1761431187725968600,8.14296875,-0.000275643658824265,0.0010792328976094723,-0.000003793626092374325
1761431187745912600,8.16291259765625,-0.0005243102204985917,-0.0013028881512582302,-0.0014694604324176908
1761431187765856500,8.1828564453125,-0.000033686228562146425,-0.0009604454971849918,0.002521329093724489
1761431187785800700,8.20280078125,-0.0018006270984187722,0.00033167609944939613,-0.0008126131724566221
1761431187805743600,8.22274365234375,-0.0015084341866895556,0.0016154414042830467,0.0034487645607441664
1761431187825687600,8.2426875,-0.0002622484171297401,-0.0007663997821509838,0.0005876651266589761
1761431187845631500,8.262631591796875,0.0009279993828386068,-0.00026306696236133575,0.00009203795343637466
1761431187865575400,8.282575439453124,0.001039041206240654,-0.0008458965457975864,-0.0014604355674237013
1761431187885518600,8.3025185546875,-0.0016639083623886108,0.0008789720013737679,0.0014657314168289304
1761431187905462500,8.322462646484375,-0.00024202029453590512,-0.0010314267128705978,0.000901020597666502
1761431187925406700,8.34240673828125,-0.0007928956765681505,-0.0006312830373644829,-0.00015692412853240967
1761431187945349600,8.362349609375,-0.002284868387505412,-0.00005676504224538803,0.00031790020875632763
1761431187965294600,8.382294677734375,-0.0022977888584136963,-0.0011448240838944912,-0.0008349257986992598
1761431187985237500,8.402237548828126,-0.003661655355244875,-0.0003362293355166912,-0.001122501096688211
1761431188005181400,8.422181396484374,0.000677760923281312,0.00014282995834946632,0.0006991524714976549
1761431188025125400,8.44212548828125,0.0016640617977827787,-0.0016779168508946896,-0.0002859547967091203
1761431188045069600,8.462069580078126,-0.001251561683602631,-0.00017274077981710434,-0.0007806256762705743
1761431188065012700,8.4820126953125,-0.0019102616934105754,-0.00029444601386785507,-0.001351622398942709
1761431188084956700,8.501956787109375,0.0003728515875991434,-0.00024467380717396736,-0.0006929920054972172
1761431188104900600,8.521900634765625,0.0017505672294646502,0.001120713073760271,-0.00016034382861107588
1761431188124844500,8.541844482421874,-0.0010702107101678848,0.0016905982047319412,0.000974278780631721
1761431188144786700,8.56178662109375,-0.00013248418690636754,0.000871655996888876,-0.002700468059629202
1761431188164731000,8.58173095703125,-0.0012780819088220596,0.0016717198304831982,0.0020018797367811203
1761431188184674800,8.6016748046875,-0.0008001793175935745,-0.0012732213363051414,-0.0020907975267618895
1761431188204618800,8.62161865234375,-0.0007792926044203341,0.0015464401803910732,0.0033235764130949974
1761431188224561700,8.641561767578125,0.0015876770485192537,-0.000036281999200582504,0.0018303265096619725
1761431188244505600,8.661505615234375,0.0009394418448209763,0.0006331815384328365,0.0013676921371370554
1761431188264449500,8.681449462890624,-0.00007162449765019119,0.001149522140622139,-0.0002089667832478881
1761431188284393700,8.701393798828125,-0.00003275254857726395,-0.002086091320961714,0.0028043524362146854
1761431188304337000,8.7213369140625,-0.0009041011799126863,-0.0002447431907057762,0.00103196210693568
1761431188324280800,8.74128076171875,-0.0025703145656734705,0.0009567756205797195,-0.0006424618186429143
1761431188344224800,8.761224853515625,0.00045444886200129986,-0.00003458559513092041,0.0014534950023517013
1761431188364167700,8.781167724609375,0.002558512846007943,0.00002666190266609192,0.0012446055188775063
1761431188384111600,8.801111572265626,0.0005883251433260739,-0.00033517973497509956,-0.00043418369023129344
1761431188404055600,8.8210556640625,-0.0012217595940455794,-0.00029305601492524147,0.001407406642101705
1761431188423999700,8.840999755859375,0.0008080152329057455,-0.0009101126343011856,-0.0013138421345502138
1761431188443943000,8.86094287109375,0.0006939365994185209,0.00007612816989421844,0.0001508707646280527
1761431188463886800,8.880886962890624,-0.002686364110559225,-0.00025913259014487267,-0.00127424078527838
1761431188483830800,8.900830810546875,0.0007903145160526037,-0.0004843478091061115,-0.0017963352147489786
1761431188503774700,8.920774658203126,0.0003937830333597958,0.00046190153807401657,-0.0026648477651178837
1761431188523717600,8.940717529296874,-0.00033989292569458485,0.00028138095512986183,0.0009047188796103001
1761431188543661800,8.960661865234375,-0.003396733431145549,0.0012502861209213734,-0.0037736594676971436
1761431188563605800,8.980605712890625,-0.0007652026833966374,-0.00016930140554904938,0.0003613886656239629
1761431188583549700,9.0005498046875,-0.0018807906890287995,0.00014458131045103073,-0.00006361131090670824
1761431188603492900,9.020492919921875,0.00269237719476223,-0.002069686073809862,0.0023898095823824406
1761431188623436800,9.040436767578125,-0.00023849606805015355,-0.0006388011388480663,-0.0005335617461241782
1761431188643380700,9.060380615234376,0.0004067269619554281,-0.00024445028975605965,-0.00120457517914474
1761431188663325000,9.080324951171875,-0.0017745356308296323,-0.0016142260283231735,-0.002026280853897333
1761431188683267800,9.100267822265625,-0.0001650418998906389,0.0013537900522351265,0.0033653208520263433
1761431188703211800,9.120211669921876,-0.0011280629551038146,-0.001475667580962181,-0.00110674521420151
1761431188723155700,9.14015576171875,-0.0006146432715468109,0.0013228710740804672,-0.0014899022644385695
1761431188743098600,9.1600986328125,-0.0006914559635333717,-0.0011253240518271923,-0.00022420275490731
1761431188763042800,9.180042724609375,-0.0012075930135324597,-0.0005356166511774063,0.00027499604038894176
1761431188782986800,9.19998681640625,-0.0027029640041291714,0.0017185830511152744,0.0026913797482848167
1761431188802931000,9.219930908203125,-0.00029739789897575974,0.0008967462927103043,-0.001787714660167694
1761431188822873900,9.239873779296875,-0.0004263361042831093,-0.000626870896667242,-0.0005378518835641444
1761431188842817800,9.25981787109375,-0.003168939845636487,0.0016565131954848766,0.0011556404642760754
1761431188862761700,9.27976171875,-0.0008496204391121864,-0.0003708265721797943,0.0014049835735931993
1761431188882705700,9.29970556640625,0.00015235312457662076,-0.0014240732416510582,0.0002927742898464203
1761431188902648600,9.319648681640626,0.0013551776064559817,0.00047649629414081573,0.0014872986357659101
1761431188922592500,9.339592529296874,-0.002452022396028042,0.0010353242978453636,-0.0006528588128276169
1761431188942536700,9.35953662109375,0.00019131015869788826,-0.002449378138408065,0.0009497652063146234
1761431188962479900,9.37947998046875,0.0002182052267016843,0.002734372392296791,0.0008090072078630328
1761431188982423800,9.399423828125,0.0011999872513115406,-0.0008358224295079708,0.00033991027157753706
1761431189002367700,9.41936767578125,-0.002394258975982666,-0.0002476554363965988,0.0024708702694624662
1761431189022311700,9.439311767578126,-0.00012583208444993943,-0.00008940277621150017,-0.0007822277257218957
1761431189042254600,9.459254638671876,0.00010583826224319637,0.0035587772727012634,-0.0010081806685775518
1761431189062198500,9.479198486328125,0.0011125723831355572,0.0026460550725460052,0.0000743191922083497
1761431189082142700,9.499142822265625,0.0017269416712224483,0.0014854185283184052,0.0007514887256547809
1761431189102086700,9.519086669921874,0.0005247050430625677,-0.00151833426207304,0.004442163277417421
1761431189122029800,9.53902978515625,0.00012814704678021371,-0.00009851343929767609,0.0023567292373627424
1761431189141973800,9.558973876953125,-0.002181299729272723,-0.002574741141870618,-0.0015008137561380863
1761431189161917700,9.578917724609376,-0.000037722536944784224,-0.00019922107458114624,-0.0013453462161123753
1761431189181861600,9.598861572265625,-0.0012045553885400295,-0.0018949760124087334,0.0016303445445373654
1761431189201804500,9.618804443359375,-0.0008394603501074016,-0.0005153873935341835,0.001344680436886847
1761431189221748500,9.63874853515625,-0.0021857935935258865,0.0018304921686649323,-0.0007697388646192849
1761431189241692400,9.6586923828125,-0.0012177432654425502,0.0014404421672224998,-0.0011938532115891576
1761431189261635600,9.678635498046875,0.0003299088857602328,-0.00007282523438334465,-0.00013880524784326553
1761431189281579800,9.698579833984375,-0.001381148467771709,0.0007476522587239742,0.000517436652444303
1761431189301523700,9.718523681640624,-0.0010486606042832136,0.002411416731774807,0.0016071740537881851
1761431189321467600,9.738467529296875,0.0009546722867526114,0.0005702674388885498,0.0005627558566629887
1761431189341410600,9.75841064453125,-0.0010420172475278378,0.01980976015329361,0.010813149623572826
1761431189361354500,9.7783544921875,0.0008269539684988558,0.0002056090161204338,-0.0005854871706105769
1761431189381298400,9.79829833984375,-0.002006581984460354,-0.01357219461351633,-0.009181699715554714
1761431189401242600,9.81824267578125,0.0017354257870465517,-0.0419902540743351,-0.019038058817386627
1761431189421185800,9.838185791015626,-0.0007177782827056944,0.0027402983978390694,0.0025780547875910997
