time,seconds_elapsed,z,y,x
1761430122964978000,0.08097802734375,-0.8279945459634065,0.8604844645492732,0.5547825119178742
1761430122984921900,0.100921875,-0.32803543805778024,-0.7969327604845166,0.14947927139289677
1761430123004867000,0.1208671875,0.05955927342772484,-1.3231729954637586,0.3380069431044161
1761430123024811000,0.14081103515625,0.14052432297766207,-1.0593985787838698,0.2594534847408533
1761430123044755000,0.1607548828125,0.6675111385405064,-0.6112932844951748,-0.2528011872448027
1761430123064699000,0.180698974609375,1.30511229198575,-0.5433012598954141,-0.5027037304386496
1761430123084644000,0.20064404296875,1.3199492111116646,-1.0838520520389079,-0.4301838531509041
1761430123104587500,0.22058740234375,0.777981684038043,-1.1774579719752072,-0.752127111813426
1761430123124531700,0.24053173828125,0.3506213638752699,-1.2793991740584372,-0.5781095384262502
1761430123144475600,0.2604755859375,0.1522048238992691,-1.412998227817565,-0.6871361687257885
1761430123164420600,0.280420654296875,-0.02625906137228012,-1.418373783376068,-0.6995084513038397
1761430123184364500,0.300364501953125,-0.3531798161864281,-1.0506617300987242,-0.21036869744583964
1761430123204308700,0.320308837890625,-0.35334055970609185,-0.5882119763761758,0.09689239426106214
1761430123224253700,0.340253662109375,0.18901508990228175,-0.40994317528530955,0.23485358875244855
1761430123244197600,0.36019775390625,0.46236733613610265,-0.7626319930844009,0.45901977927386756
1761430123264141600,0.3801416015625,-0.052634442600607866,-0.9678916769534349,1.042744527233392
1761430123284085500,0.40008544921875,-0.6669108345597982,-0.8853884580507874,1.2691975135177374
1761430123304030700,0.42003076171875,-0.5462590867877006,-0.41152058066986497,1.0768677461095153
1761430123323974700,0.439974609375,-0.3934638957798481,0.14242248474918304,0.27461569029837846
1761430123343918600,0.459918701171875,-0.21405600765645502,-0.24437420822642741,0.5303101878318935
1761430123363862500,0.479862548828125,-0.20634674845337866,-0.37664464373029766,0.9461506775274873
1761430123383807700,0.499807861328125,-0.0002922609448432922,0.26013357595950365,0.7326073686335235
1761430123403751700,0.519751708984375,0.360162514680624,0.5069143338710069,0.6727797996584326
1761430123423695600,0.539695556640625,0.5916565638720989,0.2697261646911502,1.113870319814235
1761430123443639600,0.5596396484375,0.4692319612085819,0.3115811468631029,0.8234368826590478
1761430123463584800,0.579584716796875,0.06579553746879101,0.36849626245759426,0.45563335170596836
1761430123483528700,0.59952880859375,-0.17667407924532888,0.4998431533757597,0.3063924921788275
1761430123503472600,0.61947265625,-0.6718857003629207,0.08663651931509375,0.3835112415641546
1761430123523416600,0.63941650390625,-1.3429653450399637,-0.14622348446734248,0.051558922323584555
1761430123543361500,0.659361572265625,-1.2104583243012428,-0.03068330755531788,-0.21194135359004138
1761430123563305700,0.6793056640625,-0.6982336090624331,0.06697919429540634,-0.042180122473090886
1761430123583249700,0.699249755859375,-0.8973357932150363,0.0005391483779996633,-0.2633591138772666
1761430123603194600,0.719194580078125,-0.8043553117007016,0.28451383784785866,-0.8878571862518787
1761430123623138600,0.739138671875,-0.3157365129768848,-0.027820173209160564,-0.26032997531443836
1761430123643082500,0.75908251953125,-0.0644581513851881,0.011839856201782822,-0.1724203673236072
1761430123663026700,0.779026611328125,-0.4856406596958637,0.2974523760065436,-0.3767218736849725
1761430123682971600,0.7989716796875,-0.1837894642084837,0.14106295989900827,0.06597966186404228
1761430123702915600,0.81891552734375,0.6132055478572845,-0.21284144423492252,0.4205032938748598
1761430123722859500,0.838859619140625,0.5432236646145582,-0.25146204759553076,0.363134370098263
1761430123742803500,0.858803466796875,-0.16503975555300712,0.4789801058281213,0.3007457184635103
1761430123762748700,0.878748779296875,-0.4750146362632513,0.8229585245575756,0.23783991108685731
1761430123782692600,0.898692626953125,0.03512041321992874,0.572718931429088,0.22956980313062667
1761430123802636500,0.918636474609375,0.49882221283018585,0.2689000160653144,0.2827291463881731
1761430123822580500,0.93858056640625,0.7090355735838413,-0.06814516933485865,0.37824996003508565
1761430123842525700,0.958525634765625,0.7692372365683317,-0.5181330624997615,0.6402648196965456
1761430123862469600,0.9784697265625,0.4943102883636951,-0.9057441405981779,0.8203095444187521
1761430123882413600,0.99841357421875,-0.3426338722527027,-0.6647364131301641,-0.08416793724447488
1761430123902357500,1.018357421875,-0.8918681754589081,-0.46784416011199353,-0.6849446500308811
1761430123922302700,1.038302734375,-1.0344394940942525,-0.427244182969816,-0.6821160024762153
1761430123942246700,1.05824658203125,-0.6501409015446901,-0.3953482116891071,-0.8061910026952623
1761430123962190600,1.078190673828125,0.35024493177831173,-0.5538245536059141,-0.7260361004844308
1761430123982135600,1.098135498046875,1.257008478552103,-0.7141822888225317,-0.4844992345757782
1761430124002079700,1.118079833984375,1.3777327070385217,-0.6790957778722048,-0.416444666133821
1761430124022023700,1.138023681640625,0.8830062390893697,-0.4861780545081943,-0.492590917225182
1761430124041967600,1.157967529296875,0.2975906154334545,-0.3426283192947507,-0.415070162910223
1761430124061912600,1.17791259765625,-0.3505418688982725,-0.16670220887251197,-0.43099078561961646
1761430124081856800,1.197856689453125,-0.5596709415465593,-0.09908939284868538,-0.4332810885138809
1761430124101801200,1.21780126953125,-0.17943886778354642,-0.03322239757888019,-0.41384193628951904
1761430124121745200,1.2377451171875,0.4643395129919052,0.09497866959422827,-0.21243658976107835
1761430124141690000,1.257690185546875,0.7400877144515514,0.2806457642428577,0.1151917288005352
1761430124161634300,1.27763427734375,0.43031741640269755,0.40942448517344887,0.24189766204506158
1761430124181578200,1.297578125,-0.030050270348787305,0.29944340369328853,0.12451178420111536
1761430124201522200,1.317522216796875,-0.177694069942832,0.12187938987091183,-0.034248598821461196
1761430124221467100,1.337467041015625,-0.029607202756404875,0.19391360253356396,-0.0655105830475688
1761430124241411000,1.3574111328125,-0.13331950616538524,0.24373642177954316,0.0408178942091763
1761430124261355300,1.377355224609375,-0.0413876569211483,0.05154072907976806,0.3523175002686679
1761430124281299200,1.39729931640625,0.3201508222877979,-0.17015929052382706,0.4181654985770583
1761430124301244000,1.417243896484375,0.616819062179327,-0.4074848223477602,0.4645642616584897
1761430124321188000,1.43718798828125,0.5969336274921894,-0.49842203453145917,0.03104921825826168
1761430124341132300,1.45713232421875,0.2794084775328636,-0.6784476161617785,-0.07911036159396172
1761430124361076200,1.477076171875,0.004272270491719246,-0.5808798799224197,-0.16520006068125367
1761430124381021000,1.49702099609375,-0.01950432641506195,-0.46942478036694224,-0.15067352267876266
1761430124400964900,1.51696484375,0.15796294903457164,-0.29573724265173074,-0.08518500533252954
1761430124420909000,1.536908935546875,0.125740595343709,0.060080593888089055,-0.33388869413062927
1761430124440853000,1.55685302734375,0.043815176329016686,-0.014951558481529355,0.15028510788306593
1761430124460798000,1.5767978515625,-0.06970365082323551,0.05222359677739441,0.4488537745684385
1761430124480742000,1.596741943359375,-0.23659750981032848,0.18782704916149376,-0.05704729060679674
1761430124500686000,1.61668603515625,-0.2605950559914112,0.20292378826737403,-0.3481939905978739
1761430124520630000,1.636630126953125,-0.364614233392477,-0.015808175310865043,0.03898877908587456
1761430124540575000,1.656574951171875,-0.13967209006249903,0.08616451788917183,0.12276786314323544
1761430124560519000,1.676518798828125,0.1969564042955637,0.09611819501817226,0.13553206764832137
1761430124580463000,1.696463134765625,0.47937283147275445,-0.10985979318805038,0.16410963509604334
1761430124600407000,1.716406982421875,0.49501580628454683,-0.28418285232782364,0.07809680063724517
1761430124620352000,1.73635205078125,0.2763362304806709,-0.23262714487463235,-0.013128361642360687
1761430124640296000,1.7562958984375,0.0547463201880455,-0.1433955675650388,0.060225336121022696
1761430124660240100,1.776240234375,-0.04293079470992088,-0.012669511958956717,-0.022548808677494526
1761430124680184000,1.79618408203125,0.14416238721907138,0.07831643473729491,-0.06148746501132846
1761430124700129000,1.81612890625,0.1094488012343645,0.17723017875812946,0.038566169759631154
1761430124720073000,1.836072998046875,-0.15004209290742873,0.08981156915463506,0.04442380974665284
1761430124740017200,1.85601708984375,-0.08074936097264289,-0.0011763503029942513,0.016688976733386516
1761430124759961000,1.875961181640625,0.2691384279310703,-0.14144136475734412,0.15291048795059323
1761430124779906000,1.895906005859375,0.32262451892495153,-0.13962744720317422,0.19533932448774574
1761430124799850000,1.91585009765625,0.17990473172962665,-0.1503834536910057,0.10889408996105193
1761430124819794200,1.935794189453125,0.02613864986300468,-0.22133535100966692,0.09965879023447632
1761430124839738000,1.955738037109375,-0.161720255741477,-0.2014993084222078,0.055163230425864455
1761430124859682000,1.97568212890625,-0.3383674469798803,-0.03701945177428424,0.01167816283404827
1761430124879627000,1.995626953125,-0.3554331480711698,0.05725691476948559,0.06103782154768705
1761430124899571200,2.0155712890625,-0.08837561806738375,-0.010934724055603145,0.027778526024520394
1761430124919515100,2.03551513671875,-0.03244388748705387,-0.021540946809202433,0.03843129133358598
1761430124939459000,2.055458984375,0.022186112844943998,-0.09053601097166537,-0.01936170307397842
1761430124959404000,2.075404052734375,0.09093757750988006,-0.14754370022043584,-0.03297828662469983
1761430124979348200,2.09534814453125,0.25173019701242444,-0.1993333625599742,-0.10478855433836579
1761430124999292200,2.115292236328125,0.19001286876797674,-0.20785861432105301,-0.1449726806886494
1761430125019236000,2.135236083984375,0.0015758710145950317,-0.20399960080534218,-0.14885887447223067
1761430125039181000,2.15518115234375,-0.11670388692915439,-0.1359283004242927,-0.14510302907004952
1761430125059125200,2.175125244140625,-0.1988642837435007,-0.029895006721839305,-0.09510083466917275
1761430125079069200,2.195069091796875,-0.07589549120068549,0.02411240473240614,-0.10003478394001722
1761430125099012600,2.2150126953125,-0.007813304099440574,0.05781980934925377,-0.1132164832048118
1761430125118957600,2.23495751953125,0.010052607458829878,0.0307057385828346,-0.1092792898863554
1761430125138901500,2.254901611328125,0.10087211154699324,-0.03482559499181807,-0.07982537799552082
1761430125158845400,2.274845458984375,0.17624036400318144,-0.04943652334213257,-0.049118689564615486
1761430125178789600,2.29478955078125,0.15554419745504855,-0.06215553699862211,0.039637452252954244
1761430125198734600,2.314734619140625,-0.012754852154850959,-0.10382836753670126,-0.009914660292863845
1761430125218678500,2.334678466796875,-0.1393342364102602,-0.14003431097101418,-0.012672872959822416
1761430125238622500,2.35462255859375,0.00003857844471931457,-0.205811070674099,-0.010988865395635365
1761430125258566700,2.374566650390625,0.10223638563752174,-0.3156174897070974,-0.017368337299674748
1761430125278511600,2.39451171875,0.03229366536140442,-0.2191189536018297,0.05409589345529675
1761430125298455600,2.41445556640625,-0.05662614258527755,-0.13057744091562926,0.05650032424852252
1761430125318399500,2.4343994140625,0.13001637296676635,-0.09577913578953594,0.02659925311207771
1761430125338343700,2.45434375,0.15664543669521808,-0.11228205189891159,0.07437441911324859
1761430125358287600,2.47428759765625,0.0017751929789781569,0.013476700155995785,0.0719448538787663
1761430125378232600,2.494232666015625,0.025876199534535408,0.031364348622038955,0.13051073235496877
1761430125398176500,2.514176513671875,0.03919569983482361,-0.016750607260130345,0.09966054380014538
1761430125418120700,2.53412060546875,0.0038747956067323682,-0.0591540170950815,0.057496203418076035
1761430125438064600,2.554064697265625,0.013601239851117133,-0.009164024588651955,0.04489829539060593
1761430125458009600,2.574009521484375,0.01447626911997795,0.0009656666943803429,0.08323401739522815
1761430125477953500,2.59395361328125,0.17660569018423555,-0.061487245815619825,0.15275734321549533
1761430125497897500,2.6138974609375,0.28367490280568597,-0.12407843428514898,0.1337735335431993
1761430125517841700,2.633841552734375,0.20964988165199755,-0.13301986563168466,0.047897038815170524
1761430125537786400,2.653786376953125,0.08277180671095848,-0.04761529926434159,0.00948459831252694
1761430125557730600,2.67373046875,0.10983926185667514,-0.002031871153786778,0.03095262601599097
1761430125577674500,2.693674560546875,0.07054360877871513,-0.02118826091401279,0.02004690885916352
1761430125597618700,2.71361865234375,0.08840776677131652,0.029554084329679608,-0.0036091304078698155
1761430125617563400,2.7335634765625,0.13306056296825408,-0.01676569523140788,0.016797113282978535
1761430125637507300,2.75350732421875,0.049696635583043096,-0.08410155747737735,-0.030194062733650207
1761430125657451300,2.773451171875,-0.006106500181555748,-0.12565700871348381,-0.10955167708694934
1761430125677395500,2.7933955078125,0.01555120487511158,-0.1470012639068067,-0.12409238974526524
1761430125697340400,2.81334033203125,0.011614449948072432,-0.15619148238264025,-0.08978928425759077
1761430125717284400,2.833284423828125,-0.035382279026508326,-0.12800751736238597,-0.05546382080763578
1761430125737228300,2.853228271484375,-0.07066869646310805,-0.023497633834928273,-0.01734524868503213
1761430125757172500,2.87317236328125,-0.027521628654003143,0.005385200169682502,0.008947861087322234
1761430125777116400,2.893116455078125,0.0059521864026784894,-0.10231544222310185,-0.010575316158682107
1761430125797061400,2.913061279296875,0.060218029597401614,-0.1668138525534421,-0.018056904085725543
1761430125817005300,2.93300537109375,0.09886778598725796,-0.15052023181319235,0.04463672184497118
1761430125836949500,2.952949462890625,0.06166998197138309,-0.06864581233337522,0.041451223676651716
1761430125856893400,2.9728935546875,0.05041559750735759,0.020249664889648557,0.04679126953035593
1761430125876838400,2.99283837890625,0.052502340653538704,0.0009186492148786782,0.09171250740513205
1761430125896782300,3.0127822265625,0.0819300951898098,-0.020327698561921716,0.10671893787905573
1761430125916726500,3.0327265625,0.11579320182502269,-0.02195624961182475,0.11573635707125067
1761430125936670500,3.05267041015625,0.15472937394082545,0.007621800115332007,0.07741875524520873
1761430125956615400,3.072615478515625,0.20644787074029444,-0.02033339765034616,0.08382862228751183
1761430125976559400,3.092559326171875,0.08581950384378433,-0.03532105035856366,0.11968743278458714
1761430125996503600,3.112503662109375,-0.16923837628662586,0.005796338253840804,0.09930749257877468
1761430126016447500,3.132447509765625,-0.16796119595766065,-0.009957403456047178,0.021827800926566124
1761430126036391400,3.152391357421875,0.10824877779483795,-0.026917159954831002,0.035299276918172834
1761430126056336400,3.17233642578125,0.3183995947062969,-0.10632482399493455,0.023961598084867
1761430126076280600,3.192280517578125,0.16265432172119618,-0.19557481374405322,0.0000637128859758377
1761430126096225000,3.21222509765625,-0.007228197687864303,-0.1894656832139939,-0.08958119446486235
1761430126116169200,3.232169189453125,-0.07457154912054538,-0.13547989906966684,-0.09622720835059881
1761430126136114200,3.2521142578125,-0.03170271373093128,-0.11907923775836825,-0.06411562155783176
1761430126156058000,3.27205810546875,-0.016475918504595757,-0.1178995995197445,-0.06493278315961361
1761430126176002000,3.292001953125,-0.011550737062096595,-0.16722988600842653,-0.1158162904396653
1761430126195946200,3.3119462890625,-0.047669513669610024,-0.12363953141123056,-0.054052638835459944
1761430126215891200,3.33189111328125,0.1124772091448307,-0.03151698190048337,0.04100611025765538
1761430126235835100,3.351835205078125,0.0939595556795597,-0.003995499376952648,0.030389439175277946
1761430126255779000,3.371779052734375,-0.014015665870904921,0.021744433492049575,-0.1144127072520554
1761430126275723300,3.39172314453125,-0.04803308628499508,-0.06558978576362133,-0.06902867417111992
1761430126295667200,3.411667236328125,0.09709610013961792,-0.1660625227294862,-0.03501476088836789
1761430126315612200,3.431612060546875,0.22882219963371753,-0.2894302514620125,-0.014633651638776063
1761430126335556000,3.45155615234375,0.22577859415411947,-0.2452205959226936,0.03157923348173499
1761430126355500300,3.471500244140625,0.1932651485621929,-0.11074753580801189,0.07073460130617022
1761430126375444200,3.4914443359375,0.05267068295776844,0.0040320319950580595,0.11817220591604709
1761430126395389200,3.51138916015625,0.01457914497256279,-0.004539396995306015,0.15112228935956953
1761430126415333000,3.5313330078125,0.024695465317368506,-0.19425620542615651,0.1283762045443058
1761430126435277300,3.55127734375,-0.043969490107893944,-0.1762812805354595,0.12789163589775562
1761430126455221200,3.57122119140625,-0.06963117010891437,-0.1092827239524573,0.1642807538792491
1761430126475165200,3.591165283203125,-0.03893324950635433,-0.007453603941574692,0.20031404416039586
1761430126495110100,3.611110107421875,-0.04965104287564754,0.028602409628033638,0.16187734599933026
1761430126515054300,3.631054443359375,-0.0021329203754663468,0.008743936013057828,0.10667217612788081
1761430126534998300,3.650998291015625,0.0830979699254036,-0.0658008712310344,0.03030351445749402
1761430126554942200,3.670942138671875,0.04466331759095192,-0.0583135111503303,0.017431173402816056
1761430126574887000,3.690886962890625,0.006631985360383987,-0.05540872961953282,-0.019442951616644857
1761430126594831000,3.7108310546875,0.15756722771525383,-0.1006665790375322,-0.06195902804583311
1761430126614775300,3.730775390625,0.2509124508887529,-0.1556627823334187,-0.08383271394073963
1761430126634719200,3.75071923828125,0.2139700829386711,-0.11666326265782118,-0.10363368521481751
1761430126654664000,3.770663818359375,0.02256254494190216,-0.03766680976711213,-0.07383285958245396
1761430126674608000,3.790608154296875,-0.08187573465406894,-0.02451009881310165,-0.07768807370588184
1761430126694552000,3.810552001953125,-0.0009516016364097595,-0.05156710563004017,-0.01979118053242564
1761430126714496300,3.830496337890625,0.12400807246267795,-0.13534209803417324,-0.008928571864962577
1761430126734440200,3.850440185546875,0.07987608526945114,-0.21423779396414755,-0.019706132597476243
1761430126754385200,3.87038525390625,0.0683136577695608,-0.1904183077637106,0.006834229934215545
1761430126774329000,3.8903291015625,0.017951251754164694,-0.13997078074812888,-0.014058628229796886
1761430126794273000,3.91027294921875,-0.015327917513251304,-0.08702120778374374,0.007082943998277187
1761430126814217200,3.93021728515625,0.0613514175415039,-0.0993042046431452,0.009896101722866295
1761430126834162200,3.950162109375,0.12526713261306285,-0.09133096074163913,0.012620704381167887
1761430126854106000,3.970106201171875,0.0895762260288,0.0040037557486444705,0.028193974957615137
1761430126874048300,3.99004833984375,-0.0023719898283481597,0.054705330590531225,0.08972323328405618
1761430126893993200,4.0099931640625,0.12632219462394714,-0.0221321176353842,0.12761778739243745
1761430126913937200,4.029937255859375,0.1392734461337328,-0.11450951869003474,0.026372458618879317
1761430126933881000,4.049881103515625,0.14019056097865104,-0.13573095122128725,0.016761165186762808
1761430126953825300,4.0698251953125,0.15817279239296914,-0.012781447900831699,0.0135645611025393
1761430126973770200,4.089770263671875,0.08143558967113494,0.03237637520879507,0.10475728241726756
1761430126993714200,4.109714111328125,0.000675122782588005,-0.025770328007265923,0.02979585719630122
1761430127013658000,4.129658203125,-0.0004559270739555359,-0.084274027967453,0.010613310081511736
1761430127033602300,4.149602294921875,0.05987140811681747,-0.0903343509197235,0.05219663570523262
1761430127053546200,4.169546142578125,0.018515899899601937,-0.04933876205608249,0.07910933868065476
1761430127073491200,4.1894912109375,-0.11646306391060351,-0.06447831739038229,0.029197599042207
1761430127093435100,4.20943505859375,-0.1595119320422411,-0.09893310630843043,-0.008656915316730737
1761430127113379600,4.229379638671875,-0.07934709295928478,-0.14187968310937285,-0.01564882003068924
1761430127133323500,4.249323486328125,0.029005145210027693,-0.13968443808741868,0.03921805779710412
1761430127153268200,4.269268310546875,0.033597733697295185,-0.10727766774035989,0.07874795802235603
1761430127173212400,4.28921240234375,-0.013766659545898436,-0.05339512477479875,0.06244681156277656
1761430127193156600,4.309156494140625,-0.00973755016028881,-0.0727138654898852,0.03759396372660994
1761430127213100500,4.3291005859375,-0.0008925649255514145,-0.07471833718009292,-0.04837430093809962
1761430127233045200,4.349045166015625,-0.009442366605997085,-0.03593465221226215,-0.03239259569123387
1761430127252990500,4.368990478515625,0.09139292006194591,-0.00221577635332942,0.0018834756590425967
1761430127272934400,4.388934326171875,0.2076256823480129,-0.07722805497869849,0.01085427923053503
1761430127292878300,4.40887841796875,0.24453005637526512,-0.13333645730018615,0.02330035769715905
1761430127312822300,4.428822265625,0.230479319190979,-0.16262838356234133,-0.01520692148208618
1761430127332767500,4.448767578125,0.10407879863381385,-0.10447305864840745,-0.001756926669925451
1761430127352711400,4.46871142578125,0.000872106659412384,-0.06382701387479901,-0.007749445082992315
1761430127372655400,4.4886552734375,0.03848433669507503,-0.05511464204378426,0.013554185838997363
1761430127392599300,4.508599365234375,0.10971242060661315,-0.04508936098329722,0.07811769729480147
1761430127412543200,4.528543212890625,0.03927753289937973,-0.023596491099521517,0.04734276593327522
1761430127432488400,4.548488525390625,-0.07245090370476245,-0.029973259589821097,-0.017047580912709234
1761430127452432400,4.568432373046875,-0.12002221769690513,-0.03135536159798503,-0.020040479118376968
1761430127472376300,4.588376220703125,0.006110591834783553,-0.014583748082444071,-0.01977598296329379
1761430127492320300,4.6083203125,0.14318331305384635,-0.028571283837407827,-0.0007400047123432159
1761430127512265500,4.628265380859375,0.13276479489207266,-0.017275032993033526,-0.02292480238303542
1761430127532209400,4.64820947265625,0.15222002146840094,-0.06481186019368469,-0.05691109700649977
1761430127552153300,4.6681533203125,0.17946283318102357,-0.07757146158888936,-0.07312193483412266
1761430127572097300,4.68809716796875,0.0849450590968132,-0.07533164677284658,-0.05755421721562743
1761430127592042500,4.70804248046875,0.017042904737591742,-0.10398476367481052,-0.03950257382690906
1761430127611986400,4.727986328125,0.13831190762519835,-0.09977598687335848,-0.04899535544589161
1761430127631930400,4.747930419921875,0.22421967427432535,-0.09024375002682208,0.0065974985688924785
1761430127651874300,4.767874267578125,0.11708499520123004,-0.12251936827488243,-0.012246756502240896
1761430127671818500,4.787818603515625,-0.07209902152717113,-0.14210121690556407,-0.001737199056148529
1761430127691763500,4.807763427734375,-0.05432663347125053,-0.1174816663686186,0.0189281339623034
1761430127711707400,4.827707275390625,-0.027840777605772016,-0.07317008482478558,0.06329407604187727
1761430127731651300,4.8476513671875,-0.09676292266249656,-0.09953530998528003,0.00805266581326723
1761430127751595500,4.867595458984375,-0.07377601482868194,-0.13875804395750163,-0.009693857149034738
1761430127771539500,4.88753955078125,0.08297171319723129,-0.0880525235928595,0.020570786602795123
1761430127791484400,4.907484375,0.16871639823913573,-0.03173077078163623,0.025958470990508794
1761430127811428400,4.927428466796875,0.09070727588534355,-0.0219889828376472,0.0347670697376132
1761430127831372300,4.947372314453125,0.019444705182313917,-0.067375207875669,0.01403597800657153
1761430127851316500,4.96731640625,0.09571019873917103,-0.1261496876012534,0.05107844533026218
1761430127871261400,4.987261474609375,0.1575508611023426,-0.14521810681708155,0.00584215015694499
1761430127891205400,5.007205322265625,0.04654430903196335,-0.0621878683656454,-0.010799626433849335
1761430127911149300,5.0271494140625,0.009281038564443587,-0.03188888395279646,-0.01575549527555704
1761430127931093500,5.047093505859375,0.03242342922091484,-0.04973930568099021,0.04971811676248908
1761430127951037400,5.067037353515625,0.10301613783836364,-0.0987837609656155,0.06869681186825037
1761430127970982400,5.086982421875,-0.022648469659686088,-0.1256982175067067,0.057198974037170405
1761430127990926300,5.10692626953125,-0.14394260698854922,-0.07358728732354938,0.10217632601335644
1761430128010870500,5.12687060546875,-0.040520810958743096,-0.04027494643889367,0.06024652503952384
1761430128030814500,5.146814453125,0.0023790040910243986,-0.02381948620043695,0.009515724103152752
1761430128050759400,5.166759521484375,0.05978022270202636,-0.04636076915860176,0.03245806214287877
1761430128070703400,5.186703369140625,0.12820260154306887,-0.1570412310797721,0.05778671079725027
1761430128090647600,5.2066474609375,0.14604513222575186,-0.1761860034674406,0.03718625970855355
1761430128110590700,5.2265908203125,0.11312485939860344,-0.16549904362782836,-0.025831045218557117
1761430128130534700,5.24653466796875,0.11293664335012435,-0.05498977355509996,0.008915273991972207
1761430128150480000,5.26647998046875,0.10252455492913723,-0.03316555282510817,-0.02174757529720664
1761430128170423800,5.286423828125,0.04694762913584709,-0.09536693825945257,-0.06650719286948442
1761430128190367700,5.30636767578125,-0.03694236795008182,-0.08782192970737815,-0.054418403407931325
1761430128210311700,5.326311767578125,0.00959726490676403,-0.019378069686889647,0.022443886998295783
1761430128230255900,5.346255859375,0.06561901185810566,-0.00006144786365330219,0.05259001893699169
1761430128250200800,5.366200927734375,0.09927285965681075,-0.06934563116580247,0.015738105749338864
1761430128270144800,5.386144775390625,0.028906945532560346,-0.19736871142350135,-0.02728285146206617
1761430128290088700,5.406088623046875,-0.08556582134366035,-0.204403286235407,-0.06066431206017732
1761430128310033000,5.426032958984375,-0.016072598400712013,-0.11360628623999655,0.02481587682664394
1761430128329977900,5.445977783203125,0.0691594609439373,-0.013852657328918576,0.02462473816871643
1761430128349921800,5.465921875,-0.04265022420287132,0.014764292281121015,0.013432751416414975
1761430128369865700,5.48586572265625,-0.01574585066437721,-0.050513870250061155,0.005041793559491634
1761430128389810000,5.505809814453125,0.08609130652248859,-0.08434972355216741,-0.04744491113349795
1761430128409753900,5.52575390625,0.15868483356833457,-0.013804945729672908,-0.04955518128573894
1761430128429698800,5.54569873046875,0.11750234383046626,0.06405190867185592,0.0033006489805877206
1761430128449642800,5.565642822265625,0.07388707398772239,0.07431297124959528,-0.035072336294502016
1761430128469587000,5.5855869140625,0.1409153681218624,-0.006976341818645596,-0.011702712753415107
1761430128489531000,5.60553076171875,0.21564590719640253,-0.08769925317578017,-0.01859364131093025
1761430128509475600,5.6254755859375,0.24041969844698904,-0.1964157215476036,-0.03211377874985337
1761430128529419800,5.645419677734375,0.12235153742730617,-0.20891396859288214,-0.04960749599486589
1761430128549364000,5.665364013671875,0.04792144260406494,-0.12896949426233767,0.007099018350243568
1761430128569308000,5.685307861328125,0.10754676700532435,-0.05979731996729969,0.04883914197087288
1761430128589251800,5.705251953125,0.026229250755906104,0.008281323469989001,0.06895984671860933
1761430128609196500,5.725196533203125,-0.07018412781655788,-0.01431249339301139,0.07287760468423365
1761430128629140700,5.745140625,-0.08317512681484222,-0.005223506801947951,0.10241495707482098
1761430128649085000,5.7650849609375,0.050832946136593816,-0.054521900315023956,0.011317366697639226
1761430128669028900,5.78502880859375,0.13538228391408919,-0.1392824331577867,-0.03688245445638895
1761430128688972800,5.804972900390625,0.03106792295873165,-0.16845887981411067,-0.0783515060506761
1761430128708917800,5.824917724609375,-0.007509937238693237,-0.11576642341595142,-0.048214872592687606
1761430128728861700,5.84486181640625,0.032795185142755506,-0.007740019667521119,0.004574468308687209
1761430128748806000,5.864805908203125,0.19151216741502283,-0.023739772027730942,-0.021997750665992497
1761430128768749800,5.884749755859375,0.19754209522902966,-0.13772818945311008,-0.07647431400194764
1761430128788693800,5.90469384765625,0.0003454524368047714,-0.16932934250570833,-0.09240019740834832
1761430128808638700,5.924638671875,-0.07568973949551581,-0.10649104740731417,-0.018704554339498282
1761430128828582700,5.944582763671875,0.07271452307701111,-0.10716737576629966,-0.01376256789267063
1761430128848526600,5.964526611328125,0.18615794690549373,-0.13038524281177669,-0.02103665054887533
1761430128868470800,5.984470703125,0.02361293077766895,-0.13848806790970264,-0.016634031675755976
1761430128888415700,6.004415771484375,0.10122399372458457,-0.2050993056755513,0.016566373267024755
1761430128908359700,6.024359619140625,0.206249133297801,-0.20065076530147344,0.0891103620827198
1761430128928303600,6.0443037109375,0.08063947085738181,-0.12050280428808181,0.0883380625359714
1761430128948247600,6.06424755859375,-0.11082593480646609,0.01941752491444349,0.10881810211539268
1761430128968191700,6.084191650390625,-0.2299082413047552,0.056651130896061656,0.13158712941482661
1761430128988136700,6.10413671875,-0.11956745966672896,0.004965403855033219,0.1234609599739313
1761430129008080600,6.12408056640625,0.04006546840667724,-0.09896361104454844,0.06532981965318321
1761430129028024600,6.144024658203125,0.09841653508841991,-0.13287391782235353,0.04107435318827629
1761430129047968800,6.16396875,0.08416998307108879,-0.12452029630113393,0.07018734268695116
1761430129067913700,6.183913818359375,-0.058282677620649335,-0.07317823159862309,0.024728783065080643
1761430129087857700,6.203857666015625,-0.07890928606390953,-0.08938698706701398,-0.032521336637437344
1761430129107801600,6.223801513671875,0.023788871866464615,-0.08525204268675297,-0.08653364346250891
1761430129127745500,6.24374560546875,0.2296983979463577,-0.0925877558697015,-0.030745851397514342
1761430129147689700,6.263689697265625,0.24349194549918174,-0.07666231085471809,-0.018439619792997835
1761430129167634700,6.283634765625,0.17091653863191603,-0.13220500558484344,0.03917757965624332
1761430129187578600,6.30357861328125,0.11639876650273799,-0.10848298840951173,-0.03339636590629816
1761430129207522600,6.3235224609375,0.15330080244243144,-0.033931568761542436,0.01194894259944558
1761430129227466800,6.343466796875,0.13874386930167673,0.0032897257277742027,0.014233108013868331
1761430129247410700,6.36341064453125,0.016695698735117913,0.04849398179501295,0.05272679705917835
1761430129267355600,6.383355712890625,-0.07661503764688968,0.02987706920634955,0.040194940005242825
1761430129287299600,6.403299560546875,-0.13743687835633753,-0.028575558153726158,0.0443263407215476
1761430129307243800,6.423243896484375,-0.11136895564198493,-0.022477789267897605,0.07310162269845605
1761430129327187700,6.443187744140625,0.11897066281735896,-0.013212423196621238,0.11335896041542291
1761430129347131600,6.463131591796875,0.22538637996613978,-0.09012644379008561,0.04497399097532034
1761430129367076600,6.48307666015625,0.12007833179831504,-0.094798015797697,0.010009937360882758
1761430129387020800,6.503020751953125,-0.011633739170432091,-0.058437977780215436,0.011451222210377454
1761430129406964700,6.52296484375,-0.04100713317096233,0.02701349646877497,0.039191023659706115
1761430129426908700,6.54290869140625,0.017855390164256094,0.04467486189827323,0.05131210795566439
1761430129446852600,6.5628525390625,0.09135258805155753,-0.062346310330368575,0.00168225399851799
1761430129466797800,6.5827978515625,0.06463935317099094,-0.09663615447767078,-0.058101621965318914
1761430129486741800,6.60274169921875,-0.04351648564338684,-0.04061502858083695,-0.07030629289150238
1761430129506685700,6.622685791015625,-0.07153729599118232,-0.012638934157602488,-0.04110986289307475
1761430129526629600,6.642629638671875,0.02377601238489151,-0.04243859074618667,-0.08626724761128425
1761430129546573600,6.662573486328125,0.07472410933375358,-0.1157433348013088,-0.1015840592086315
1761430129566518800,6.682518798828125,-0.013860767570137976,-0.12354447353892027,-0.06701660369634628
1761430129586462700,6.702462646484375,-0.00038461540341377254,-0.055680130439437925,-0.03711830903887749
1761430129606406700,6.72240673828125,0.07579670700132847,-0.06895812968555838,0.012852467310428618
1761430129626350600,6.7423505859375,-0.05332300938665867,0.017144319285452365,0.018125293146818874
1761430129646295800,6.7622958984375,-0.11706745954453944,0.06647274261061102,0.07090294361039996
1761430129666239700,6.78223974609375,0.03598667466044426,0.007893054804764687,0.09215440595373511
1761430129686183700,6.80218359375,0.1691138731241226,-0.06900996947064995,0.07730112021490931
1761430129706127600,6.822127685546875,0.14840835422575474,-0.05048606892768293,0.11294117339476942
1761430129726071600,6.842071533203125,0.10093173277974128,-0.018071553665585816,0.09489142970219254
1761430129746016800,6.862016845703125,0.1839542993813753,-0.012065627781674266,0.05624620335698127
1761430129765960700,6.881960693359375,0.31652912465929983,-0.06428115085046739,0.05851707089841365
1761430129785904600,6.901904541015625,0.15270926629006862,-0.09504490323085338,0.05385770078524947
1761430129805848600,6.9218486328125,0.19141630582511424,-0.15089264532215893,-0.10367051009386777
1761430129825792800,6.941792724609375,0.05515197837948799,-0.13359098005052655,-0.016833645901083945
1761430129845737700,6.96173779296875,0.06191489664316177,-0.0059235813627019525,-0.018604601096361875
1761430129865681700,6.981681640625,-0.12956278398036955,0.05598134187571704,0.023392858286201954
1761430129885625600,7.00162548828125,-0.20551146667301654,0.07045677074547857,-0.035071459511667485
1761430129905569800,7.02156982421875,-0.03482932131886482,-0.04660718166772276,-0.028519845911115407
1761430129925513700,7.041513671875,0.09552256721258164,-0.1216294336978346,0.042392011658102274
1761430129945458700,7.061458740234375,-0.050616088515520095,-0.11995532647315411,-0.001768909368664026
1761430129965402600,7.081402587890625,-0.03182897045910358,-0.0776203787645325,0.004162818767875433
1761430129985346800,7.101346923828125,0.1833236002624035,-0.11761186861954628,0.035613603564351795
1761430130005290800,7.121290771484375,0.23944003975987432,-0.16123071865886449,-0.04834010640755296
1761430130025234700,7.141234619140625,0.1823299130499363,-0.10708755199573934,0.012526157965511082
1761430130045179600,7.1611796875,0.2640560101002455,-0.06790080265235156,0.08989435206726193
1761430130065123800,7.181123779296875,0.362745516911149,-0.19416005157530306,0.007928308781236409
1761430130085067800,7.20106787109375,0.13266542617082594,-0.21710849056225268,-0.04862579148113727
1761430130105011500,7.221011474609375,-0.1811392419606447,-0.06265073663704097,0.043311026199162
1761430130124955400,7.240955322265625,-0.30603111152052875,0.01995959590189159,0.06846914059221744
1761430130144900600,7.260900634765625,-0.34746669923663137,0.0428721963904798,0.12458192682787775
1761430130164844500,7.280844482421875,-0.17089958749711512,-0.07215217648651451,0.14113017991632223
1761430130184788500,7.30078857421875,-0.06540215423703193,-0.09597509675305337,0.11745412077456711
1761430130204732400,7.320732421875,-0.07689385458827018,-0.06515691077169031,0.060308338229358195
1761430130224676400,7.34067626953125,-0.04425064513683319,-0.054387241084687406,0.030587153704464434
1761430130244621600,7.36062158203125,0.08149521090388298,-0.07777984364256263,0.015197715262323616
1761430130264565500,7.3805654296875,0.18421324257850646,-0.06909260625280439,0.010529723451286555
1761430130284509400,7.400509521484375,0.1818500205785036,-0.03768503954354673,-0.017136428239941597
1761430130304453400,7.420453369140625,0.14454758714437485,-0.021193777339346704,-0.02958119153231382
1761430130324397600,7.4403974609375,0.1244938101530075,-0.13700513587556779,-0.07230082770958543
1761430130344342500,7.460342529296875,0.25324761583805083,-0.19364147106129675,-0.056172845859825606
1761430130364286500,7.480286376953125,0.29198914216458793,-0.20011706028357146,-0.07241057169437408
1761430130384230400,7.50023046875,0.1866384238988161,-0.13197459436245262,-0.07602496279925107
1761430130404174600,7.520174560546875,0.018341712376475333,-0.12878511413875968,-0.04837108606770634
1761430130424118500,7.540118408203125,-0.00017184943556785583,-0.11822053856980055,-0.028556816920638082
1761430130444063500,7.5600634765625,0.010195815321803092,-0.059798233282752335,-0.030730799958854912
1761430130464007400,7.58000732421875,-0.004566869524121284,0.008661445361375808,-0.022001988449692724
1761430130483951600,7.59995166015625,-0.08428104223012924,0.047644452293589705,0.05755699369460344
1761430130503895600,7.6198955078125,-0.1010439609825611,-0.013981106014177203,0.0774712160848081
1761430130523839500,7.639839599609375,-0.05755436334609985,-0.10459767140876501,0.08856982546523214
1761430130543784400,7.659784423828125,-0.024796587604284284,-0.0870911677474156,0.05944689909443259
1761430130563728600,7.679728759765625,0.009771452429890632,-0.09364979561064392,0.012087766548246144
1761430130583672600,7.699672607421875,-0.024091069683432578,-0.027649419752135872,0.029877105738967655
1761430130603616500,7.719616455078125,0.07226034956872462,-0.015589491058886051,0.0547233777038753
1761430130623560400,7.739560546875,0.12597966479659078,-0.05997994652520865,0.08766688527613878
1761430130643505700,7.759505615234375,0.14751345121264456,-0.04818820378147065,0.07461451147943735
1761430130663449600,7.77944970703125,0.0488946715503931,0.00942958018966019,0.08767667601779103
1761430130683393500,7.7993935546875,0.040319735428690905,0.028296339353546498,0.03443871456608176
1761430130703337500,7.81933740234375,0.10663082120418547,-0.08943893644995987,0.05195815077424049
1761430130723281400,7.839281494140625,0.21732816119492052,-0.21614698858633635,-0.007710720507800578
1761430130743226600,7.8592265625,0.25929449478685856,-0.23955705373566596,-0.026815380080789326
1761430130763170600,7.879170654296875,0.1801210048288107,-0.2155234863931313,0.031657705545425414
1761430130783114500,7.899114501953125,-0.00810498052239418,-0.19535883290581404,-0.03777472712099552
1761430130803058400,7.919058349609375,-0.10784896482229232,-0.1444191019264981,-0.054515287911146876
1761430130823002600,7.939002685546875,-0.11885083582997322,0.021552052725106477,-0.01867372080981731
1761430130842947600,7.958947509765625,-0.014161211821436882,-0.0792398331925273,0.0016540508173406123
1761430130862891500,7.9788916015625,-0.034493221232295035,-0.0677121482124552,0.07715031356737018
1761430130882834400,7.99883447265625,-0.029665654945373533,-0.006759009273536503,0.1223503683835268
1761430130902778400,8.0187783203125,0.02801613417267799,-0.03751099815089255,0.07937617292329668
1761430130922722600,8.03872265625,0.14326046994328498,-0.055607905453443525,0.036600422644615174
1761430130942667500,8.05866748046875,0.13545301106274127,-0.0718902010820806,0.026773440635204315
1761430130962611500,8.078611572265626,0.010477554872632026,-0.004544036637805402,0.017579203571379185
1761430130982555400,8.098555419921874,-0.060737669557332986,0.011062588218972087,0.04636968311741948
1761430131002499600,8.11849951171875,0.0400151995241642,-0.09000409605205059,0.056494040638208384
1761430131022443500,8.138443603515626,0.15617606561779976,-0.12373367596808821,-0.041456922765076155
1761430131042388500,8.158388427734375,0.12979483917057513,-0.1516047025816515,-0.09518982812687754
1761430131062332400,8.17833251953125,0.0705149672061205,-0.10566716380380094,-0.06817819482162595
1761430131082276400,8.1982763671875,0.0570469983458519,-0.15975534887667744,-0.09058964085504412
1761430131102220500,8.218220458984375,0.06413081912696361,-0.16643921055477112,-0.07615443439781665
1761430131122164200,8.238164306640625,0.0764788440465927,-0.08225720825232564,-0.05099062091633677
1761430131142109400,8.258109375,0.04387012138664722,-0.027205658040009437,-0.022892215287685393
1761430131162053400,8.278053466796875,-0.02246142265498638,-0.0357580900689587,-0.027391280272603034
1761430131181997300,8.297997314453125,0.009519523495435714,-0.10511318318285047,-0.048964814177155494
1761430131201941200,8.317941162109374,0.0929483328104019,-0.09078249654602259,0.00395750545412302
1761430131221885400,8.337885498046875,0.19440029007196424,-0.08464278821460902,0.0574082328736782
1761430131241830400,8.357830322265626,0.08556523682177067,-0.05004055364988744,0.09864712897390127
1761430131261774300,8.3777744140625,-0.12649229049384594,-0.020178316686488687,0.12543912817910313
1761430131281718300,8.39771826171875,-0.14517536365389824,0.0025212621059268712,0.10229849108830094
1761430131301663500,8.41766357421875,-0.04662964922785759,-0.017674590237252413,0.0932007001362741
1761430131321607400,8.437607421875,0.07783551935255527,-0.046037455488368864,0.06071633450835943
1761430131341551400,8.45755126953125,0.14592413619458675,-0.026410123748145997,-0.0014729951620101928
1761430131361495300,8.477495361328126,0.06633212856352329,0.05362444001864641,-0.005249883352220058
1761430131381439500,8.497439453125,0.05832067154347896,0.010128704902343452,-0.05335924974381923
1761430131401384400,8.517384521484376,0.03839607388973236,-0.09205207809042185,-0.044372810211777684
1761430131421328400,8.537328369140624,0.11300620145499705,-0.1524136078117415,-0.09041559946238995
1761430131441272300,8.557272216796875,0.15888707814216613,-0.16871259884685277,-0.08222016417756677
1761430131461216500,8.577216552734376,0.19070085103213785,-0.0764882329294458,-0.031244886960834262
1761430131481160400,8.597160400390624,0.11977145780622958,-0.06049677347354591,0.03799231539443135
1761430131501105400,8.61710546875,0.02147767231464386,-0.05059263457469642,-0.03479468839690089
1761430131521049300,8.63704931640625,-0.09133329882919788,-0.11781944695562123,-0.023022271408140657
1761430131540993500,8.65699365234375,-0.24177988088428973,-0.0499477973325178,0.021691315065324304
1761430131560937500,8.6769375,-0.09420739296078681,-0.055184894268400966,-0.00029459903240203856
1761430131580881400,8.69688134765625,0.23485563457906244,-0.10158661649189889,0.028467385071516034
1761430131600825300,8.716825439453125,0.25024141975939274,-0.02109397022668272,-0.03819397544637322
1761430131620770600,8.7367705078125,0.06046177522540092,0.06126326433401554,-0.0004119418017566204
1761430131640714500,8.756714599609374,-0.010803133565187454,0.07693404046818614,-0.0013349018655717372
1761430131660658400,8.776658447265625,0.03613514322042465,0.04449439076483249,0.02779401585459709
1761430131680602400,8.796602294921875,0.13721242195069788,-0.042848925112746655,-0.024173341139405963
1761430131700546300,8.81654638671875,0.15810674141943454,-0.12018555503245443,-0.024922844332456586
1761430131720491500,8.836491455078125,0.1395212834149599,-0.18308164473269134,0.008200695981830358
1761430131740435500,8.856435546875,0.17790449782311915,-0.2710192732416093,-0.02323562189787626
1761430131760379400,8.87637939453125,0.08702654154598713,-0.22530089363977313,-0.04174903757944703
1761430131780323300,8.8963232421875,-0.11338497163951396,-0.0489621472960338,-0.05222323145121335
1761430131800267300,8.916267333984376,-0.19830840342640876,0.033424094163440166,0.019809592971950767
1761430131820212500,8.93621240234375,-0.12611293578743935,0.022564152377098797,0.06451192739903927
1761430131840156400,8.956156494140625,0.09464461533427238,-0.07383702430091797,0.09560323123335837
1761430131860100400,8.976100341796876,0.13492343423068523,-0.15104191759973765,0.039717239490896464
1761430131880044300,8.996044189453125,0.004784311667084693,-0.07434139362648129,0.023280191691964863
1761430131899988500,9.015988525390625,-0.07642974420785903,0.031463096288777886,0.033579028996825216
1761430131919933400,9.035933349609374,0.04177168780267238,0.07463909793142229,0.06477744646742939
1761430131939877400,9.05587744140625,0.07472995455265044,0.07745510520022363,0.0652149611018598
1761430131959821300,9.0758212890625,0.057578328743577,0.015536007305979729,0.02231689961776137
1761430131979765500,9.095765625,0.15742226628661155,-0.0968522814463824,-0.011363251665979623
1761430131999709400,9.11570947265625,0.215003517639637,-0.23585885680485516,-0.0453004464507103
1761430132019654400,9.135654296875,0.07099661324322223,-0.18165376735404132,-0.06540624589025974
1761430132039598300,9.155598388671875,-0.0740308663725853,-0.09732033734954892,-0.021215660377591847
1761430132059542500,9.17554248046875,-0.05645487767159939,0.010632087847217917,0.01033317796587944
1761430132079486500,9.195486572265626,0.03341828547716141,-0.010749759410135448,0.026019699658453462
1761430132099430400,9.215430419921875,-0.020605565655231476,-0.02501359135583043,0.019547288773953914
1761430132119374800,9.235374755859375,0.002527472651004791,-0.11932820755075663,0.13123466271534562
1761430132139319800,9.25531982421875,0.14564181212186814,-0.08443846128154546,-0.0943551308684051
1761430132159263700,9.275263671875,0.2345738950282335,-0.11334690465144813,-0.01709507331624627
1761430132179207700,9.295207763671876,0.08621580968499183,-0.029081315718777475,0.014263357021659612
1761430132199151900,9.31515185546875,-0.05062310277819633,-0.027889804379269478,0.05411971272230148
1761430132219096000,9.335095947265625,-0.06272095232903957,0.006040230012312531,0.1035384081467986
1761430132239040800,9.355040771484376,0.12750702049434184,-0.017981756490282712,0.10273308311328291
1761430132258984700,9.374984619140625,0.11865619004070758,-0.01976633835211396,0.07208236265331507
1761430132278928600,9.3949287109375,0.03675122929215431,-0.04868512045294046,0.07155980008393525
1761430132298872800,9.414872802734376,0.07234042906761169,-0.09553743598815054,0.07675678420513868
1761430132318817000,9.434817138671875,0.20884031883478163,-0.1444176406217739,0.03910305311530828
1761430132338761000,9.454760986328125,0.035037411111593246,-0.1110082325708121,0.05965922667086124
1761430132358705700,9.47470556640625,-0.2487660865098238,-0.09224500684663653,0.031917087133973836
1761430132378649900,9.49464990234375,-0.10218903936445713,-0.1386800833504647,-0.010928513510525225
1761430132398593800,9.51459375,0.14532558577954768,-0.0646168125456199,0.02017038910835981
1761430132418537700,9.534537841796874,0.20271979012787342,-0.04045793832298368,-0.0005097030878067016
1761430132438482000,9.55448193359375,0.09356617244780063,-0.0637290333930403,0.011214929236471652
1761430132458427000,9.574427001953126,0.020168927803635595,-0.06975012031346559,0.012822072172164916
1761430132478370800,9.594370849609374,0.04635433941781521,-0.12615871115792543,-0.00926437969058752
1761430132498314800,9.614314697265625,0.07761457007825374,-0.09732848412338643,0.02027501852661371
1761430132518258700,9.6342587890625,0.13103987079560755,-0.022329612968862055,0.022471359527111053
1761430132538203000,9.654202880859375,0.17807400917112826,-0.03000891542509198,0.09682225163429975
1761430132558147800,9.67414794921875,-0.006502221500873566,-0.11695464681982994,0.05597849233150482
1761430132578091800,9.694091796875,-0.2529232061892748,-0.12373798681702464,-0.02916822681725025
1761430132598035700,9.71403564453125,-0.24589959116280077,-0.012487908314354717,-0.0006593406915664673
1761430132617979600,9.733979736328125,-0.04057107984125614,-0.03545534426271915,0.01345277129113674
1761430132637923800,9.753923828125,0.12980126891136168,-0.07232950581479818,0.010654957266151904
1761430132657868000,9.773867919921875,0.0970966846615076,-0.06308547479249536,-0.005492313805967569
1761430132677812700,9.793812744140626,-0.02588379831910133,-0.04165091096721589,-0.051869157316535706
1761430132697756700,9.813756591796874,0.07396598444283008,-0.09938735288195312,-0.07618088401332497
1761430132717700600,9.83370068359375,0.20995032590329646,-0.15714304748643187,-0.16603724215775728
1761430132737644800,9.853644775390626,0.23778818089962003,-0.15996212349515407,-0.07965045982003212
1761430132757588700,9.873588623046874,0.26172084515094757,-0.053961416888050735,-0.04553469359800219
1761430132777533700,9.89353369140625,-0.02544774498939514,0.026333715777378527,0.008117693873494864
1761430132797477600,9.9134775390625,-0.6134510470509529,-0.07117887447495012,0.10468713979050516
1761430132817421800,9.933421875,-0.32222236786484715,0.05204480614438653,0.15623407941535114
1761430132837365800,9.95336572265625,0.5143804319679737,0.1592460476476699,0.12228753228038548
1761430132857309700,9.973309814453126,0.6116068804889917,-0.08687969868751243,0.0770478761062026
