time,seconds_elapsed,z,y,x
1761430122964978000,0.08097802734375,0.6597190499305725,-1.00970458984375,0.8235507011413574
1761430122984921900,0.100921875,0.7034095525741577,-0.894326388835907,0.8756116032600403
1761430123004867000,0.1208671875,0.8189325928688049,-0.8177897334098816,0.6846848130226135
1761430123024811000,0.14081103515625,0.9792008996009827,-0.6496252417564392,0.4354913532733917
1761430123044755000,0.1607548828125,0.9525495171546936,-0.36903584003448486,0.11755286902189255
1761430123064699000,0.180698974609375,0.924860417842865,0.013826210983097553,-0.23009192943572998
1761430123084644000,0.20064404296875,0.8583390116691589,0.05276964232325554,-0.47900280356407166
1761430123104587500,0.22058740234375,0.7371326088905334,-0.015713714063167572,-0.44886162877082825
1761430123124531700,0.24053173828125,0.6201321482658386,-0.1889127790927887,-0.21786290407180786
1761430123144475600,0.2604755859375,0.3721485435962677,-0.35488787293434143,0.022198056802153587
1761430123164420600,0.280420654296875,0.15548595786094666,-0.35384026169776917,0.21035034954547882
1761430123184364500,0.300364501953125,0.10860371589660645,-0.1079457625746727,0.3130461871623993
1761430123204308700,0.320308837890625,0.09859999269247055,0.1833169013261795,0.21720236539840698
1761430123224253700,0.340253662109375,0.015415905974805355,0.3782058656215668,-0.11780904978513718
1761430123244197600,0.36019775390625,-0.0032403292134404182,0.5116512775421143,-0.4591580629348755
1761430123264141600,0.3801416015625,0.09296690672636032,0.6608210206031799,-0.5760953426361084
1761430123284085500,0.40008544921875,0.2074783444404602,0.8013739585876465,-0.4893660247325897
1761430123304030700,0.42003076171875,0.1419721394777298,0.6687852144241333,-0.3459990322589874
1761430123323974700,0.439974609375,-0.05967167764902115,0.6649703979492188,-0.09595054388046265
1761430123343918600,0.459918701171875,-0.22483284771442413,0.3958587944507599,0.08618827164173126
1761430123363862500,0.479862548828125,-0.21091213822364807,0.18162672221660614,0.2703859508037567
1761430123383807700,0.499807861328125,-0.25899380445480347,0.015083850361406803,0.29666802287101746
1761430123403751700,0.519751708984375,-0.2144734114408493,-0.11604739725589752,0.17409446835517883
1761430123423695600,0.539695556640625,-0.09841027855873108,-0.3873143494129181,-0.004501803778111935
1761430123443639600,0.5596396484375,-0.013440068811178207,-0.45739588141441345,-0.1539357602596283
1761430123463584800,0.579584716796875,0.0594276487827301,-0.38432782888412476,-0.3048838675022125
1761430123483528700,0.59952880859375,0.15252938866615295,-0.2973754405975342,-0.3849745988845825
1761430123503472600,0.61947265625,0.19822920858860016,-0.30102574825286865,-0.30061057209968567
1761430123523416600,0.63941650390625,0.14207777380943298,-0.23957379162311554,-0.10856155306100845
1761430123543361500,0.659361572265625,0.06599730998277664,-0.24100057780742645,-0.014586350880563259
1761430123563305700,0.6793056640625,0.041811902076005936,-0.17687635123729706,-0.09522119909524918
1761430123583249700,0.699249755859375,-0.07075422257184982,0.2585430443286896,-0.13313700258731842
1761430123603194600,0.719194580078125,-0.09728090465068817,0.422712504863739,-0.06673422455787659
1761430123623138600,0.739138671875,-0.0582038089632988,0.3127671182155609,-0.009510661475360394
1761430123643082500,0.75908251953125,-0.08491133898496628,0.10291890799999237,0.06295838952064514
1761430123663026700,0.779026611328125,-0.14312201738357544,0.03336436673998833,0.2850598990917206
1761430123682971600,0.7989716796875,-0.1315038800239563,-0.14383651316165924,0.3379361033439636
1761430123702915600,0.81891552734375,-0.10947075486183167,-0.21288928389549255,0.14165465533733368
1761430123722859500,0.838859619140625,-0.07438155263662338,-0.1438581794500351,-0.07501424103975296
1761430123742803500,0.858803466796875,-0.013366762548685074,0.08286916464567184,-0.12091368436813354
1761430123762748700,0.878748779296875,0.0494205579161644,0.16738243401050568,-0.11949986964464188
1761430123782692600,0.898692626953125,0.17601622641086578,0.1673905998468399,-0.2474091649055481
1761430123802636500,0.918636474609375,0.29449182748794556,0.276566743850708,-0.4380373954772949
1761430123822580500,0.93858056640625,0.4351156949996948,0.25171783566474915,-0.5699069499969482
1761430123842525700,0.958525634765625,0.6384262442588806,-0.15236878395080566,-0.6347530484199524
1761430123862469600,0.9784697265625,0.7904304265975952,-0.3918205201625824,-0.5892662405967712
1761430123882413600,0.99841357421875,0.7467610836029053,-0.39030852913856506,-0.3340865671634674
1761430123902357500,1.018357421875,0.6264528036117554,-0.32857054471969604,0.07851719111204147
1761430123922302700,1.038302734375,0.5069171786308289,-0.25341325998306274,0.5310305953025818
1761430123942246700,1.05824658203125,0.377275675535202,-0.12516812980175018,0.8075538873672485
1761430123962190600,1.078190673828125,0.2760986387729645,-0.18816690146923065,0.7155983448028564
1761430123982135600,1.098135498046875,0.19094587862491608,-0.24566836655139923,0.3806115388870239
1761430124002079700,1.118079833984375,0.1187102273106575,-0.24883274734020233,0.03736141696572304
1761430124022023700,1.138023681640625,0.054199229925870895,-0.16809937357902527,-0.14992859959602356
1761430124041967600,1.157967529296875,0.012189812026917934,-0.07863650470972061,-0.13624468445777893
1761430124061912600,1.17791259765625,-0.024613378569483757,0.08903800696134567,0.057807523757219315
1761430124081856800,1.197856689453125,-0.07311690598726273,0.18375496566295624,0.30432531237602234
1761430124101801200,1.21780126953125,-0.126464381814003,0.18019035458564758,0.4320606589317322
1761430124121745200,1.2377451171875,-0.160416841506958,0.05212116986513138,0.32384607195854187
1761430124141690000,1.257690185546875,-0.09279157221317291,-0.030674301087856293,0.12714813649654388
1761430124161634300,1.27763427734375,-0.019969286397099495,0.008408617228269577,0.012644242495298386
1761430124181578200,1.297578125,0.015963952988386154,0.05167349800467491,0.03792966902256012
1761430124201522200,1.317522216796875,-0.0031064217910170555,0.12750095129013062,0.10065741091966629
1761430124221467100,1.337467041015625,-0.06350920349359512,0.0935695469379425,0.16440846025943756
1761430124241411000,1.3574111328125,-0.0519474558532238,0.09157457947731018,0.2664475440979004
1761430124261355300,1.377355224609375,0.0028659277595579624,0.03963763266801834,0.2829930782318115
1761430124281299200,1.39729931640625,0.08268120139837265,-0.017055533826351166,0.16248098015785217
1761430124301244000,1.417243896484375,0.1260019689798355,-0.027338135987520218,-0.033715736120939255
1761430124321188000,1.43718798828125,0.07366036623716354,-0.02321985363960266,-0.19410239160060883
1761430124341132300,1.45713232421875,-0.006719778757542372,-0.031281109899282455,-0.2615237832069397
1761430124361076200,1.477076171875,-0.06965329498052597,-0.0236368365585804,-0.24302825331687927
1761430124381021000,1.49702099609375,-0.07092370837926865,-0.0017710896208882332,-0.2128962129354477
1761430124400964900,1.51696484375,-0.04318370297551155,-0.03746959567070007,-0.1965634524822235
1761430124420909000,1.536908935546875,-0.05714869499206543,-0.04551414027810097,-0.1435943990945816
1761430124440853000,1.55685302734375,0.005463809706270695,-0.23370927572250366,-0.09383545070886612
1761430124460798000,1.5767978515625,0.1015179380774498,-0.23959879577159882,-0.06777561455965042
1761430124480742000,1.596741943359375,0.08897381275892258,-0.16641193628311157,-0.022958282381296158
1761430124500686000,1.61668603515625,0.010686268098652363,-0.0749230906367302,0.060964785516262054
1761430124520630000,1.636630126953125,0.026486998423933983,-0.03649388253688812,0.17508769035339355
1761430124540575000,1.656574951171875,0.012438716366887093,-0.035511668771505356,0.2040168195962906
1761430124560519000,1.676518798828125,-0.0033198371529579163,0.020800575613975525,0.11682689189910889
1761430124580463000,1.696463134765625,-0.002247004769742489,0.09936828166246414,-0.05804421752691269
1761430124600407000,1.716406982421875,-0.02707958221435547,0.1547580063343048,-0.22566023468971252
1761430124620352000,1.73635205078125,-0.06793273240327835,0.16779091954231262,-0.2501737177371979
1761430124640296000,1.7562958984375,-0.10592111200094223,0.06705332547426224,-0.17120319604873657
1761430124660240100,1.776240234375,-0.1508791744709015,0.04240982234477997,-0.12023016810417175
1761430124680184000,1.79618408203125,-0.16376151144504547,0.09013281017541885,-0.15060630440711975
1761430124700129000,1.81612890625,-0.127750426530838,0.15505994856357574,-0.13795189559459686
1761430124720073000,1.836072998046875,-0.09765607863664627,0.14134898781776428,-0.045869529247283936
1761430124740017200,1.85601708984375,-0.09971605986356735,0.07066567242145538,0.02026664838194847
1761430124759961000,1.875961181640625,-0.09001050144433975,-0.028825173154473305,-0.04229200258851051
1761430124779906000,1.895906005859375,-0.055926818400621414,-0.023839842528104782,-0.1349480301141739
1761430124799850000,1.91585009765625,-0.04620496928691864,-0.00013147667050361633,-0.17954760789871216
1761430124819794200,1.935794189453125,-0.05597621202468872,0.006285714916884899,-0.17580345273017883
1761430124839738000,1.955738037109375,-0.07054315507411957,0.026445738971233368,-0.13605137169361115
1761430124859682000,1.97568212890625,-0.07062973082065582,0.1022525280714035,-0.07075542211532593
1761430124879627000,1.995626953125,-0.03728737309575081,0.1292629987001419,-0.03674943000078201
1761430124899571200,2.0155712890625,-0.004575687926262617,0.12756620347499847,-0.03745492547750473
1761430124919515100,2.03551513671875,0.01485641673207283,0.08311870694160461,-0.03360316902399063
1761430124939459000,2.055458984375,0.024230049923062325,0.038453731685876846,-0.03566845506429672
1761430124959404000,2.075404052734375,0.0243292935192585,0.007167383097112179,-0.058847665786743164
1761430124979348200,2.09534814453125,0.019091475754976273,0.02796810492873192,-0.10778211057186127
1761430124999292200,2.115292236328125,-0.005928917322307825,0.026967518031597137,-0.1265815943479538
1761430125019236000,2.135236083984375,-0.03495970368385315,0.03149166703224182,-0.11750777810811996
1761430125039181000,2.15518115234375,-0.06255616992712021,0.014906499534845352,-0.08056164532899857
1761430125059125200,2.175125244140625,-0.04637141898274422,0.049310408532619476,-0.04052663967013359
1761430125079069200,2.195069091796875,-0.049045585095882416,0.03299574926495552,-0.02224806137382984
1761430125099012600,2.2150126953125,-0.040598947554826736,0.017575055360794067,-0.0016102022491395473
1761430125118957600,2.23495751953125,-0.0396602563560009,-0.0035359924659132957,0.005038933828473091
1761430125138901500,2.254901611328125,-0.037616997957229614,-0.023310894146561623,-0.020804623141884804
1761430125158845400,2.274845458984375,-0.02284115180373192,0.0008037947118282318,-0.06448988616466522
1761430125178789600,2.29478955078125,-0.013535994105041027,-0.02920263633131981,-0.07429438084363937
1761430125198734600,2.314734619140625,-0.01616610772907734,-0.06570116430521011,-0.0293895211070776
1761430125218678500,2.334678466796875,-0.018880942836403847,-0.04412975534796715,0.008364955894649029
1761430125238622500,2.35462255859375,-0.026892811059951782,-0.02181129902601242,0.004472603090107441
1761430125258566700,2.374566650390625,-0.04775341972708702,-0.009991131722927094,-0.018826166167855263
1761430125278511600,2.39451171875,-0.05772440508008003,-0.0017552324570715427,-0.00801803357899189
1761430125298455600,2.41445556640625,-0.05087508633732796,0.01958124153316021,0.004219837952405214
1761430125318399500,2.4343994140625,-0.05883287265896797,-0.024261347949504852,-0.010283690877258778
1761430125338343700,2.45434375,-0.04935966059565544,-0.02240871824324131,-0.037376269698143005
1761430125358287600,2.47428759765625,-0.027281973510980606,0.023644395172595978,-0.028319628909230232
1761430125378232600,2.494232666015625,-0.009378412738442421,0.0013327598571777344,-0.005774041172116995
1761430125398176500,2.514176513671875,-0.011789279989898205,-0.0804898664355278,0.04050915315747261
1761430125418120700,2.53412060546875,-0.011963658966124058,-0.07913640886545181,0.0561976283788681
1761430125438064600,2.554064697265625,-0.009018905460834503,-0.029008494690060616,0.047548647969961166
1761430125458009600,2.574009521484375,0.020438499748706818,0.04159153997898102,0.03506314754486084
1761430125477953500,2.59395361328125,0.02588050253689289,-0.0036521106958389282,0.025331102311611176
1761430125497897500,2.6138974609375,0.02438404969871044,-0.07355592399835587,0.02165011316537857
1761430125517841700,2.633841552734375,0.005089722573757172,-0.07605137676000595,0.0118572311475873
1761430125537786400,2.653786376953125,0.010153873823583126,-0.022396523505449295,0.005335007328540087
1761430125557730600,2.67373046875,0.02168840542435646,-0.03391510248184204,0.002201674971729517
1761430125577674500,2.693674560546875,0.023416172713041306,-0.0668981522321701,0.0006851507350802422
1761430125597618700,2.71361865234375,0.03649815917015076,-0.04648345708847046,-0.021519174799323082
1761430125617563400,2.7335634765625,0.04450759291648865,-0.04168160632252693,-0.04801866412162781
1761430125637507300,2.75350732421875,0.04613994061946869,-0.02040558122098446,-0.028987545520067215
1761430125657451300,2.773451171875,0.03163069859147072,-0.05745088681578636,0.018560068681836128
1761430125677395500,2.7933955078125,0.012674763798713684,-0.08024419099092484,0.046812672168016434
1761430125697340400,2.81334033203125,-0.0029396372847259045,-0.05076548084616661,0.028069373220205307
1761430125717284400,2.833284423828125,-0.01240616012364626,-0.01280915830284357,-0.0009265556000173092
1761430125737228300,2.853228271484375,-0.0011483114212751389,0.009088397026062012,-0.00795544870197773
1761430125757172500,2.87317236328125,0.0054849558509886265,0.014210475608706474,0.019423723220825195
1761430125777116400,2.893116455078125,-0.009156866930425167,-0.00044788653030991554,0.034492406994104385
1761430125797061400,2.913061279296875,-0.012102767825126648,0.011180107481777668,0.029310235753655434
1761430125817005300,2.93300537109375,-0.024436211213469505,-0.008651557378470898,0.019392114132642746
1761430125836949500,2.952949462890625,-0.029960855841636658,-0.008249285630881786,0.022508569061756134
1761430125856893400,2.9728935546875,-0.02024342305958271,0.007761172018945217,0.02801184542477131
1761430125876838400,2.99283837890625,-0.02090291678905487,-0.004870498552918434,0.045861247926950455
1761430125896782300,3.0127822265625,-0.011579801328480244,-0.016543302685022354,0.04933216795325279
1761430125916726500,3.0327265625,-0.002278016647323966,-0.018794436007738113,0.03845022991299629
1761430125936670500,3.05267041015625,0.007088408339768648,-0.008973130024969578,-0.0008691406110301614
1761430125956615400,3.072615478515625,0.013481604866683483,-0.04092397540807724,-0.04113918915390968
1761430125976559400,3.092559326171875,0.02357267588376999,-0.04782545566558838,-0.03432648256421089
1761430125996503600,3.112503662109375,0.023582179099321365,-0.028397299349308014,0.02598503604531288
1761430126016447500,3.132447509765625,0.031187523156404495,0.011567534878849983,0.06223003566265106
1761430126036391400,3.152391357421875,0.04143165424466133,-0.003915156703442335,0.038215700536966324
1761430126056336400,3.17233642578125,0.04828626289963722,-0.07625802606344223,0.0015599527396261692
1761430126076280600,3.192280517578125,0.03920286148786545,-0.1006915345788002,0.001918993191793561
1761430126096225000,3.21222509765625,0.0220334529876709,-0.08973921835422516,0.012872479856014252
1761430126116169200,3.232169189453125,0.013574350625276566,-0.04790864139795303,0.008541114628314972
1761430126136114200,3.2521142578125,0.01721952296793461,-0.022678423672914505,-0.0022481498308479786
1761430126156058000,3.27205810546875,0.016029097139835358,-0.012083372101187706,0.0040758876129984856
1761430126176002000,3.292001953125,-0.0002264964277856052,-0.025652773678302765,0.022693708539009094
1761430126195946200,3.3119462890625,-0.004787513520568609,-0.03303329274058342,0.05125710740685463
1761430126215891200,3.33189111328125,-0.004218395799398422,-0.10688168555498123,0.04230515658855438
1761430126235835100,3.351835205078125,-0.000735068810172379,-0.08009863644838333,0.00819425005465746
1761430126255779000,3.371779052734375,0.005410354118794203,0.03278813138604164,-0.03147600218653679
1761430126275723300,3.39172314453125,0.0009466300252825022,0.09192629158496857,-0.03256603330373764
1761430126295667200,3.411667236328125,-0.021095016971230507,0.0506879985332489,-0.015754250809550285
1761430126315612200,3.431612060546875,-0.050670672208070755,0.0017525507137179375,-0.005092260427772999
1761430126335556000,3.45155615234375,-0.06190129742026329,-0.03171582892537117,-0.008225712925195694
1761430126355500300,3.471500244140625,-0.04774750396609306,-0.03588573634624481,-0.019603583961725235
1761430126375444200,3.4914443359375,-0.02154819667339325,-0.01131058856844902,0.0038885469548404217
1761430126395389200,3.51138916015625,-0.008228754624724388,-0.00912872701883316,0.014944007620215416
1761430126415333000,3.5313330078125,-0.020251065492630005,0.00816987082362175,-0.0009753524791449308
1761430126435277300,3.55127734375,-0.021513594314455986,0.038615863770246506,-0.011140977963805199
1761430126455221200,3.57122119140625,-0.008343719877302647,0.0271332748234272,0.0008929276373237371
1761430126475165200,3.591165283203125,0.012995638884603977,-0.026105007156729698,0.03998149558901787
1761430126495110100,3.611110107421875,0.03327695652842522,-0.021868586540222168,0.05366741120815277
1761430126515054300,3.631054443359375,0.041026487946510315,0.018287621438503265,0.031493667513132095
1761430126534998300,3.650998291015625,0.03656809404492378,0.01787452958524227,0.0006047736387699842
1761430126554942200,3.670942138671875,0.03946153074502945,0.03595196455717087,0.0034907686058431864
1761430126574887000,3.690886962890625,0.036397553980350494,0.021985653787851334,0.025160765275359154
1761430126594831000,3.7108310546875,0.028084944933652878,-0.014001509174704552,0.033530790358781815
1761430126614775300,3.730775390625,0.013954836875200272,-0.0478757880628109,0.005708068609237671
1761430126634719200,3.75071923828125,-0.0000136928865686059,-0.04706898704171181,-0.02241445519030094
1761430126654664000,3.770663818359375,-0.00216297572478652,-0.027295708656311035,-0.016967853531241417
1761430126674608000,3.790608154296875,0.003343376098200679,-0.0007314765825867653,0.0006905031623318791
1761430126694552000,3.810552001953125,0.009188930504024029,-0.007614817004650831,0.021864740177989006
1761430126714496300,3.830496337890625,-0.0044756680727005005,-0.029563356190919876,-0.001451792661100626
1761430126734440200,3.850440185546875,-0.022533399984240532,-0.004780248738825321,-0.02673056535422802
1761430126754385200,3.87038525390625,-0.03205348551273346,-0.016675392165780067,-0.0420626737177372
1761430126774329000,3.8903291015625,-0.03988024964928627,-0.019978243857622147,-0.031200172379612923
1761430126794273000,3.91027294921875,-0.03426899015903473,-0.012974226847290993,-0.014954335056245327
1761430126814217200,3.93021728515625,-0.037294767796993256,-0.004496656358242035,-0.02576378919184208
1761430126834162200,3.950162109375,-0.040758904069662094,-0.02837323024868965,-0.029034733772277832
1761430126854106000,3.970106201171875,-0.021333035081624985,-0.03197358176112175,-0.007741235662251711
1761430126874048300,3.99004833984375,0.0007817622972652316,-0.05761749669909477,0.02056378312408924
1761430126893993200,4.0099931640625,0.009582999162375927,-0.0946662649512291,0.0024617710150778294
1761430126913937200,4.029937255859375,0.0031308522447943687,-0.07815378904342651,-0.026985647156834602
1761430126933881000,4.049881103515625,0.0007783142500557005,-0.03610701113939285,-0.07236170023679733
1761430126953825300,4.0698251953125,0.008961574174463749,-0.04520673304796219,-0.08162364363670349
1761430126973770200,4.089770263671875,0.032851118594408035,-0.07580935209989548,-0.053360991179943085
1761430126993714200,4.109714111328125,0.0287129208445549,-0.10405553877353668,-0.01890920102596283
1761430127013658000,4.129658203125,0.030569324269890785,-0.0741342231631279,-0.018629640340805054
1761430127033602300,4.149602294921875,0.03301391750574112,-0.08845094591379166,-0.023621493950486183
1761430127053546200,4.169546142578125,0.02368089184165001,-0.09894903004169464,-0.02896648459136486
1761430127073491200,4.1894912109375,0.021139495074748993,-0.05726299434900284,-0.021967748180031776
1761430127093435100,4.20943505859375,0.017201770097017288,0.00872084405273199,-0.008557057939469814
1761430127113379600,4.229379638671875,0.00798723753541708,0.02370242215692997,0.010837459936738014
1761430127133323500,4.249323486328125,0.0012266887351870537,0.0013461234048008919,0.020303787663578987
1761430127153268200,4.269268310546875,0.00410069152712822,-0.013030586764216423,0.03273971006274223
1761430127173212400,4.28921240234375,0.008564868941903114,-0.02294464036822319,0.039791252464056015
1761430127193156600,4.309156494140625,0.006519553251564503,-0.00333411805331707,0.041958171874284744
1761430127213100500,4.3291005859375,0.0018077876884490252,0.04969797655940056,0.023402057588100433
1761430127233045200,4.349045166015625,0.007572917267680168,0.07867593318223953,0.01995622180402279
1761430127252990500,4.368990478515625,0.01904892548918724,0.049762122333049774,0.0332040935754776
1761430127272934400,4.388934326171875,0.014799850061535835,-0.017424335703253746,0.0433882400393486
1761430127292878300,4.40887841796875,0.001859196345321834,-0.044209711253643036,0.02211749739944935
1761430127312822300,4.428822265625,-0.0035809336695820093,-0.03352357819676399,-0.016002045944333076
1761430127332767500,4.448767578125,-0.010651093907654285,-0.0040623582899570465,-0.01686970330774784
1761430127352711400,4.46871142578125,-0.00980562437325716,0.021732086315751076,0.0020901155658066273
1761430127372655400,4.4886552734375,-0.007995746098458767,0.00689967954531312,0.015954433009028435
1761430127392599300,4.508599365234375,0.0008465750142931938,-0.023745816200971603,0.00543005857616663
1761430127412543200,4.528543212890625,0.006192517001181841,-0.01010706927627325,-0.01715734787285328
1761430127432488400,4.548488525390625,0.005629430059343576,0.026002168655395508,-0.02397281304001808
1761430127452432400,4.568432373046875,0.009440501220524311,0.05966728925704956,0.014593558385968208
1761430127472376300,4.588376220703125,0.005941812880337238,0.004072967916727066,0.05922476947307587
1761430127492320300,4.6083203125,0.009828880429267883,-0.026319460943341255,0.053313110023736954
1761430127512265500,4.628265380859375,0.015620993450284004,-0.01168755441904068,0.010648788884282112
1761430127532209400,4.64820947265625,0.016644170507788658,0.016090650111436844,-0.03336915001273155
1761430127552153300,4.6681533203125,0.0014971783384680748,-0.0012377751991152763,-0.03402397036552429
1761430127572097300,4.68809716796875,-0.01412421278655529,-0.007245434448122978,-0.0017183029558509588
1761430127592042500,4.70804248046875,-0.021062372252345085,0.0031112665310502052,0.00762554258108139
1761430127611986400,4.727986328125,-0.01640537939965725,0.019148088991642,-0.030783824622631073
1761430127631930400,4.747930419921875,-0.01569291576743126,-0.007471501361578703,-0.05130210891366005
1761430127651874300,4.767874267578125,-0.03034667670726776,-0.049143217504024506,-0.03495883569121361
1761430127671818500,4.787818603515625,-0.03374336659908295,-0.026222486048936844,-0.014692086726427078
1761430127691763500,4.807763427734375,-0.0313548669219017,0.0023731044493615627,-0.02474932000041008
1761430127711707400,4.827707275390625,-0.020124752074480057,0.010201498866081238,-0.020458264276385307
1761430127731651300,4.8476513671875,-0.032682083547115326,0.010237915441393852,0.008997192606329918
1761430127751595500,4.867595458984375,-0.03724631294608116,0.0542704239487648,0.00825012568384409
1761430127771539500,4.88753955078125,-0.023850884288549423,0.050534576177597046,-0.01419078465551138
1761430127791484400,4.907484375,-0.010487578809261322,0.029600031673908234,-0.03370998427271843
1761430127811428400,4.927428466796875,-0.00026521069230511785,-0.006792264059185982,-0.004101371392607689
1761430127831372300,4.947372314453125,0.0005916266236454248,-0.01208529993891716,0.02109501324594021
1761430127851316500,4.96731640625,-0.005642320495098829,-0.017867350950837135,0.01239736657589674
1761430127871261400,4.987261474609375,-0.012358897365629673,-0.023773841559886932,-0.011387079954147339
1761430127891205400,5.007205322265625,-0.014109653420746326,0.01391461119055748,-0.02510598860681057
1761430127911149300,5.0271494140625,-0.010345005430281162,0.03976854309439659,-0.03504538908600807
1761430127931093500,5.047093505859375,-0.0012270498555153608,0.043683454394340515,-0.05833141505718231
1761430127951037400,5.067037353515625,-0.0007552443421445787,0.015120360068976879,-0.058073192834854126
1761430127970982400,5.086982421875,0.002656630938872695,-0.0017569256015121937,-0.00859351921826601
1761430127990926300,5.10692626953125,0.01180235669016838,-0.009705593809485435,0.04737834632396698
1761430128010870500,5.12687060546875,0.013304492458701134,-0.012637106701731682,0.04374999180436134
1761430128030814500,5.146814453125,0.02208235301077366,0.045650601387023926,-0.002343757776543498
1761430128050759400,5.166759521484375,0.03673852980136871,0.09039247781038284,-0.04351085424423218
1761430128070703400,5.186703369140625,0.032302044332027435,0.0495360903441906,-0.02800152823328972
1761430128090647600,5.2066474609375,0.013539467006921768,-0.03599875420331955,0.03524174913764
1761430128110590700,5.2265908203125,0.0033241005148738623,-0.06208161637187004,0.061431076377630234
1761430128130534700,5.24653466796875,0.009315508417785168,-0.03420814126729965,0.019560765475034714
1761430128150480000,5.26647998046875,0.015709927305579185,0.03881014138460159,-0.05160524696111679
1761430128170423800,5.286423828125,0.007429890334606171,0.08599286526441574,-0.07449623197317123
1761430128190367700,5.30636767578125,0.008142298087477684,0.07553316652774811,-0.0396786592900753
1761430128210311700,5.326311767578125,0.01839386112987995,0.018114985898137093,0.002079819329082966
1761430128230255900,5.346255859375,0.04437654837965965,-0.030421823263168335,0.020588060840964317
1761430128250200800,5.366200927734375,0.04776543378829956,-0.053290028125047684,0.0254451185464859
1761430128270144800,5.386144775390625,0.023907674476504326,-0.04020564630627632,0.03120824322104454
1761430128290088700,5.406088623046875,0.0019000150496140122,0.013706853613257408,0.026950160041451454
1761430128310033000,5.426032958984375,0.004242089577019215,0.03260710835456848,0.002553595695644617
1761430128329977900,5.445977783203125,0.01188208069652319,0.004661626648157835,-0.010564890690147877
1761430128349921800,5.465921875,0.020755285397171974,0.02651139907538891,0.0013202860718593001
1761430128369865700,5.48586572265625,0.016485806554555893,0.02347829006612301,0.012489588931202888
1761430128389810000,5.505809814453125,-0.0013674115762114525,0.00922415405511856,0.011066635139286518
1761430128409753900,5.52575390625,-0.004419660661369562,-0.0019339574500918388,0.0016622141702100635
1761430128429698800,5.54569873046875,0.006498673930764198,0.015112104825675488,-0.006856878288090229
1761430128449642800,5.565642822265625,0.017936868593096733,0.04138455167412758,-0.00209804717451334
1761430128469587000,5.5855869140625,0.019203992560505867,0.021878598257899284,0.002198812086135149
1761430128489531000,5.60553076171875,0.009532202035188675,0.00340384803712368,-0.00013631291221827269
1761430128509475600,5.6254755859375,-0.020259864628314972,-0.0368310920894146,-0.013150623068213463
1761430128529419800,5.645419677734375,-0.04333527758717537,-0.010751884430646896,-0.035131629556417465
1761430128549364000,5.665364013671875,-0.04109804332256317,0.03463387116789818,-0.06679615378379822
1761430128569308000,5.685307861328125,-0.029777569696307182,0.040536437183618546,-0.0765405148267746
1761430128589251800,5.705251953125,-0.015176873654127121,0.018463492393493652,-0.04221052676439285
1761430128609196500,5.725196533203125,-0.004889895208179951,-0.008928815834224224,0.0050286357291042805
1761430128629140700,5.745140625,0.009188826195895672,-0.018140625208616257,0.02801818773150444
1761430128649085000,5.7650849609375,0.017101168632507324,0.00434770667925477,0.00046524545177817345
1761430128669028900,5.78502880859375,0.002078553196042776,0.007968704216182232,-0.029596636071801186
1761430128688972800,5.804972900390625,-0.01818482205271721,0.02769939973950386,-0.026092955842614174
1761430128708917800,5.824917724609375,-0.020737383514642715,0.010690789669752121,-0.006037833634763956
1761430128728861700,5.84486181640625,-0.004374299198389053,0.01253696158528328,-0.01371427346020937
1761430128748806000,5.864805908203125,0.008121601305902004,0.0057596489787101746,-0.03650883212685585
1761430128768749800,5.884749755859375,-0.014300347305834293,-0.03275901451706886,-0.048990748822689056
1761430128788693800,5.90469384765625,-0.029661718755960464,-0.011831730604171753,-0.0335991270840168
1761430128808638700,5.924638671875,-0.02312339097261429,0.02283650077879429,-0.018325896933674812
1761430128828582700,5.944582763671875,-0.020077187567949295,0.0158911794424057,-0.021055448800325394
1761430128848526600,5.964526611328125,-0.024647094309329987,0.00499002868309617,-0.021887822076678276
1761430128868470800,5.984470703125,-0.02591119520366192,0.022211791947484016,0.010374888777732849
1761430128888415700,6.004415771484375,-0.03600236028432846,-0.035212986171245575,0.00869067758321762
1761430128908359700,6.024359619140625,-0.040153052657842636,-0.04605728015303612,-0.036253154277801514
1761430128928303600,6.0443037109375,-0.03640289977192879,-0.008327075280249119,-0.06512942910194397
1761430128948247600,6.06424755859375,-0.015871791169047356,-0.00038419710472226143,-0.02747872658073902
1761430128968191700,6.084191650390625,0.01246123667806387,0.008991491980850697,0.04563768953084946
1761430128988136700,6.10413671875,0.02655644714832306,-0.0230952687561512,0.07932554930448532
1761430129008080600,6.12408056640625,0.024883534759283066,-0.01419564988464117,0.05195227637887001
1761430129028024600,6.144024658203125,0.02191421017050743,0.030365124344825745,-0.005778391379863024
1761430129047968800,6.16396875,0.019668547436594963,0.023302288725972176,-0.019308071583509445
1761430129067913700,6.183913818359375,0.019892161712050438,0.05109097436070442,0.010913891717791557
1761430129087857700,6.203857666015625,0.013257681392133236,0.0703311488032341,0.04753529652953148
1761430129107801600,6.223801513671875,0.006555668078362942,0.07745213806629181,0.06160958111286163
1761430129127745500,6.24374560546875,0.005443796049803495,0.039617445319890976,0.03761711344122887
1761430129147689700,6.263689697265625,-0.00016428891103714705,0.028765331953763962,0.00459897518157959
1761430129167634700,6.283634765625,-0.01216680184006691,0.043472472578287125,-0.033705200999975204
1761430129187578600,6.30357861328125,-0.021527180448174477,0.06027379259467125,-0.044034261256456375
1761430129207522600,6.3235224609375,-0.019633591175079346,0.012376472353935242,-0.04582206904888153
1761430129227466800,6.343466796875,-0.015098669566214085,-0.0004175538197159767,-0.0556815043091774
1761430129247410700,6.36341064453125,-0.007458425592631102,0.0031231530010700226,-0.051457736641168594
1761430129267355600,6.383355712890625,-0.0007520428043790162,0.03958888351917267,-0.03931165486574173
1761430129287299600,6.403299560546875,-0.0010030156699940562,0.05205950140953064,0.00015548046212643385
1761430129307243800,6.423243896484375,0.005641395226120949,0.045155059546232224,0.04304687678813934
1761430129327187700,6.443187744140625,0.016563381999731064,0.008604204282164574,0.0347500741481781
1761430129347131600,6.463131591796875,0.009712406434118748,-0.0124066062271595,-0.008124319836497307
1761430129367076600,6.48307666015625,-0.003875227877870202,0.013503488153219223,-0.03831478953361511
1761430129387020800,6.503020751953125,-0.00158126640599221,0.03923535346984863,-0.04472610726952553
1761430129406964700,6.52296484375,0.008982423692941666,0.04062744975090027,-0.027871062979102135
1761430129426908700,6.54290869140625,0.029646238312125206,0.033262111246585846,-0.011933938600122929
1761430129446852600,6.5628525390625,0.025310618802905083,-0.004469352774322033,-0.0037816334515810013
1761430129466797800,6.5827978515625,0.014117796905338764,-0.034781020134687424,0.010693640448153019
1761430129486741800,6.60274169921875,0.01411008182913065,-0.03457712009549141,0.027333755046129227
1761430129506685700,6.622685791015625,0.025892866775393486,0.012690393254160881,0.011889919638633728
1761430129526629600,6.642629638671875,0.02126367576420307,0.040721595287323,-0.029878798872232437
1761430129546573600,6.662573486328125,0.005107345525175333,0.04229415953159332,-0.047550685703754425
1761430129566518800,6.682518798828125,-0.002958559663966298,0.04236912354826927,-0.02187121845781803
1761430129586462700,6.702462646484375,-0.009330096654593945,-0.005485215689986944,0.01441310252994299
1761430129606406700,6.72240673828125,-0.017747458070516586,-0.023043669760227203,0.025668594986200333
1761430129626350600,6.7423505859375,-0.010456069372594357,0.006550506688654423,0.030107365921139717
1761430129646295800,6.7622958984375,0.005975267384201288,0.05347920209169388,0.034401651471853256
1761430129666239700,6.78223974609375,0.016460057348012924,0.033654894679784775,0.025052808225154877
1761430129686183700,6.80218359375,0.013346103020012379,0.028457138687372208,-0.004116075579077005
1761430129706127600,6.822127685546875,0.013077832758426666,0.005636177957057953,-0.012236975133419037
1761430129726071600,6.842071533203125,0.0172329880297184,-0.03147653490304947,0.001483271480537951
1761430129746016800,6.862016845703125,0.006856507621705532,-0.09727808833122253,-0.011541071347892284
1761430129765960700,6.881960693359375,0.010442892089486122,-0.11334200948476791,-0.06266041100025177
1761430129785904600,6.901904541015625,0.022283313795924187,-0.02711883932352066,-0.08719323575496674
1761430129805848600,6.9218486328125,-0.012578089721500874,-0.06677649915218353,-0.10624412447214127
1761430129825792800,6.941792724609375,-0.004104442894458771,-0.04692666232585907,-0.0787288248538971
1761430129845737700,6.96173779296875,0.00578690692782402,-0.07287554442882538,-0.04485756903886795
1761430129865681700,6.981681640625,0.030169466510415077,-0.055253006517887115,0.00761449383571744
1761430129885625600,7.00162548828125,0.036874063313007355,-0.03470421954989433,0.044267650693655014
1761430129905569800,7.02156982421875,0.03383636847138405,-0.026939773932099342,0.03458496928215027
1761430129925513700,7.041513671875,0.028264066204428673,-0.04626716673374176,0.014231240376830101
1761430129945458700,7.061458740234375,0.019938495010137558,-0.042895905673503876,0.03378262370824814
1761430129965402600,7.081402587890625,0.017895661294460297,-0.1007501482963562,0.08322987705469131
1761430129985346800,7.101346923828125,0.009302973747253418,-0.15260884165763855,0.10924315452575684
1761430130005290800,7.121290771484375,0.0016233057249337435,-0.1628614217042923,0.07324746251106262
1761430130025234700,7.141234619140625,0.009033294394612312,-0.16358327865600586,0.08314371109008789
1761430130045179600,7.1611796875,0.020393358543515205,-0.1787165105342865,0.07713665068149567
1761430130065123800,7.181123779296875,-0.009607422165572643,-0.17906665802001953,-0.0030605527572333813
1761430130085067800,7.20106787109375,-0.029491640627384186,-0.11028183996677399,-0.08487404137849808
1761430130105011500,7.221011474609375,-0.018762117251753807,0.027497468516230583,-0.11120100319385529
1761430130124955400,7.240955322265625,-0.012634016573429108,0.04396332800388336,-0.07561271637678146
1761430130144900600,7.260900634765625,0.009866057895123959,0.06391389667987823,-0.014141718856990337
1761430130164844500,7.280844482421875,0.014569372870028019,0.026669057086110115,0.008465627208352089
1761430130184788500,7.30078857421875,0.015879031270742416,0.025180187076330185,0.009879798628389835
1761430130204732400,7.320732421875,0.019838346168398857,0.04146368056535721,0.024626843631267548
1761430130224676400,7.34067626953125,0.016443707048892975,0.035668112337589264,0.04572490230202675
1761430130244621600,7.36062158203125,0.013414896093308926,0.013455452397465706,0.05211813747882843
1761430130264565500,7.3805654296875,0.020592650398612022,0.03017660602927208,0.014584928750991821
1761430130284509400,7.400509521484375,0.02810267172753811,0.031014136970043182,-0.0046331495977938175
1761430130304453400,7.420453369140625,0.0274305809289217,0.03823297098278999,-0.001632974948734045
1761430130324397600,7.4403974609375,0.015514178201556206,0.053814493119716644,-0.01115091796964407
1761430130344342500,7.460342529296875,-0.0003635886241681874,0.019930828362703323,-0.035401929169893265
1761430130364286500,7.480286376953125,-0.014744127169251442,-0.03391878679394722,-0.046839725226163864
1761430130384230400,7.50023046875,-0.02727874182164669,-0.04383893311023712,-0.058056410402059555
1761430130404174600,7.520174560546875,-0.03854914382100105,-0.03028104268014431,-0.06493645906448364
1761430130424118500,7.540118408203125,-0.052339524030685425,0.001808416098356247,-0.06311293691396713
1761430130444063500,7.5600634765625,-0.057319022715091705,0.018480803817510605,-0.07260052859783173
1761430130464007400,7.58000732421875,-0.05010619014501572,0.02987007610499859,-0.072276771068573
1761430130483951600,7.59995166015625,-0.021201664581894875,0.04084862396121025,-0.039841990917921066
1761430130503895600,7.6198955078125,-0.01286961231380701,-0.0056849196553230286,-0.004264536313712597
1761430130523839500,7.639839599609375,-0.018779078498482704,-0.026590367779135704,0.009050276130437851
1761430130543784400,7.659784423828125,-0.0174429751932621,0.011609016917645931,-0.011829010210931301
1761430130563728600,7.679728759765625,-0.015968378633260727,0.05011213570833206,-0.020473795011639595
1761430130583672600,7.699672607421875,-0.0030058887787163258,0.05222788453102112,0.009588253684341908
1761430130603616500,7.719616455078125,-0.005484676454216242,-0.007096761371940374,0.03319789096713066
1761430130623560400,7.739560546875,-0.0038859755732119083,-0.014410966075956821,0.013025134801864624
1761430130643505700,7.759505615234375,0.005449830554425716,-0.0095323221758008,-0.023007208481431007
1761430130663449600,7.77944970703125,0.025718431919813156,0.002763426396995783,-0.013013513758778572
1761430130683393500,7.7993935546875,0.04099343717098236,-0.006918628700077534,0.016841301694512367
1761430130703337500,7.81933740234375,0.03990704566240311,-0.024048414081335068,0.028558021411299706
1761430130723281400,7.839281494140625,0.02292620576918125,-0.036980025470256805,-0.008374541997909546
1761430130743226600,7.8592265625,0.008860445581376553,-0.06188473850488663,-0.04825793206691742
1761430130763170600,7.879170654296875,0.001925664721056819,-0.10085763782262802,-0.04944051802158356
1761430130783114500,7.899114501953125,-0.017982181161642075,-0.13246676325798035,-0.013004562817513943
1761430130803058400,7.919058349609375,-0.031996358186006546,-0.06080036982893944,-0.002530741272494197
1761430130823002600,7.939002685546875,-0.02158747799694538,0.00937805138528347,-0.008171867579221725
1761430130842947600,7.958947509765625,-0.020905790850520134,0.052425455302000046,-0.04473565146327019
1761430130862891500,7.9788916015625,-0.0029616872780025005,0.07106481492519379,-0.03870411962270737
1761430130882834400,7.99883447265625,0.013265048153698444,0.02599477954208851,0.011384361423552036
1761430130902778400,8.0187783203125,0.012105862610042095,-0.029992755502462387,0.039934318512678146
1761430130922722600,8.03872265625,0.018606821075081825,-0.01899087056517601,0.007328736130148172
1761430130942667500,8.05866748046875,0.024403098970651627,0.029509251937270164,-0.048218321055173874
1761430130962611500,8.078611572265626,0.03981995955109596,0.057169780135154724,-0.04398227483034134
1761430130982555400,8.098555419921874,0.04076084867119789,0.01239045150578022,0.006638877093791962
1761430131002499600,8.11849951171875,0.046214114874601364,-0.013255421072244644,0.02850319817662239
1761430131022443500,8.138443603515626,0.03154870867729187,-0.017785092815756798,-0.016719069331884384
1761430131042388500,8.158388427734375,0.028628740459680557,0.036445923149585724,-0.05105634778738022
1761430131062332400,8.17833251953125,0.020602673292160034,0.03494106978178024,-0.03263724222779274
1761430131082276400,8.1982763671875,-0.004578050691634417,-0.021153826266527176,0.011449948884546757
1761430131102220500,8.218220458984375,-0.02163434959948063,-0.033132921904325485,0.019862163811922073
1761430131122164200,8.238164306640625,-0.014236357994377613,0.0024903849698603153,-0.015449860133230686
1761430131142109400,8.258109375,-0.005852099508047104,0.03599078580737114,-0.025863870978355408
1761430131162053400,8.278053466796875,-0.015506768599152565,0.03605373948812485,0.003582774195820093
1761430131181997300,8.297997314453125,-0.03301341086626053,0.048700958490371704,-0.00636814720928669
1761430131201941200,8.317941162109374,-0.026760226115584373,0.08240106701850891,-0.04874258488416672
1761430131221885400,8.337885498046875,-0.021597955375909805,0.056954093277454376,-0.07253963500261307
1761430131241830400,8.357830322265626,-0.01493170764297247,0.010612726211547852,-0.025583665817975998
1761430131261774300,8.3777744140625,-0.008023200556635857,-0.02004961110651493,0.041053734719753265
1761430131281718300,8.39771826171875,0.005829054396599531,-0.01756132021546364,0.06812404096126556
1761430131301663500,8.41766357421875,0.008201929740607738,-0.021906767040491104,0.06489969789981842
1761430131321607400,8.437607421875,0.011752729304134846,-0.020008863881230354,0.04520956054329872
1761430131341551400,8.45755126953125,0.00926161278039217,-0.037334393709897995,0.00899200327694416
1761430131361495300,8.477495361328126,0.03304282948374748,0.03845600783824921,-0.034276049584150314
1761430131381439500,8.497439453125,0.04740250110626221,0.033771440386772156,-0.031173856928944588
1761430131401384400,8.517384521484376,0.04469940811395645,-0.009589646011590958,0.023140456527471542
1761430131421328400,8.537328369140624,0.011933285742998123,-0.07946276664733887,0.08105448633432388
1761430131441272300,8.557272216796875,-0.006890027783811092,-0.07635995745658875,0.05575401335954666
1761430131461216500,8.577216552734376,-0.0017158514820039272,-0.03817102313041687,-0.020732849836349487
1761430131481160400,8.597160400390624,0.002568100346252322,0.012981275096535683,-0.07149802148342133
1761430131501105400,8.61710546875,0.006701690144836903,0.004864959977567196,-0.06469757109880447
1761430131521049300,8.63704931640625,-0.01687243953347206,-0.019640116021037102,-0.02148907445371151
1761430131540993500,8.65699365234375,-0.012305034324526787,0.034204937517642975,0.02528632991015911
1761430131560937500,8.6769375,-0.017362195998430252,0.036211732774972916,0.030928270891308784
1761430131580881400,8.69688134765625,-0.021753836423158646,0.0012139324098825455,-0.004002831410616636
1761430131600825300,8.716825439453125,-0.019444433972239494,-0.0036284939851611853,-0.04691484197974205
1761430131620770600,8.7367705078125,-0.0055043804459273815,0.04089173674583435,-0.06645403057336807
1761430131640714500,8.756714599609374,-0.0010734163224697113,0.0567764975130558,-0.06827414035797119
1761430131660658400,8.776658447265625,0.016187509521842003,0.07341765612363815,-0.04972337931394577
1761430131680602400,8.796602294921875,0.01771109737455845,0.0469030886888504,-0.03316032513976097
1761430131700546300,8.81654638671875,0.014137491583824158,0.0057362779043614864,-0.006801564246416092
1761430131720491500,8.836491455078125,0.0015151749830693007,-0.05560167878866196,0.01988096721470356
1761430131740435500,8.856435546875,-0.019057029858231544,-0.10010460019111633,0.031417280435562134
1761430131760379400,8.87637939453125,-0.04026440903544426,-0.0690302699804306,0.014251594431698322
1761430131780323300,8.8963232421875,-0.03189578279852867,0.001677919179201126,-0.010698088444769382
1761430131800267300,8.916267333984376,-0.015119992196559906,0.07009226828813553,-0.014118439517915249
1761430131820212500,8.93621240234375,0.004100574180483818,0.06539178639650345,0.00991792045533657
1761430131840156400,8.956156494140625,0.007494769059121609,0.011096421629190445,0.01474766992032528
1761430131860100400,8.976100341796876,-0.011716922745108604,-0.0346340537071228,0.019815197214484215
1761430131880044300,8.996044189453125,-0.020412582904100418,-0.023573240265250206,0.038723237812519073
1761430131899988500,9.015988525390625,-0.003915809560567141,0.02507425844669342,0.03680801764130592
1761430131919933400,9.035933349609374,0.01780555211007595,0.029043033719062805,0.026644613593816757
1761430131939877400,9.05587744140625,0.0375719778239727,0.0260806642472744,0.022652518004179
1761430131959821300,9.0758212890625,0.04351810738444328,0.022489193826913834,0.027273492887616158
1761430131979765500,9.095765625,0.027777496725320816,-0.004775217268615961,0.010561943985521793
1761430131999709400,9.11570947265625,-0.004702327772974968,-0.03080458752810955,-0.022419104352593422
1761430132019654400,9.135654296875,-0.020538819953799248,0.01694122888147831,-0.059559497982263565
1761430132039598300,9.155598388671875,-0.02254222333431244,0.05636985972523689,-0.05768519639968872
1761430132059542500,9.17554248046875,-0.00267575541511178,0.06592997908592224,-0.03127999231219292
1761430132079486500,9.195486572265626,0.005434638354927301,0.00292481342330575,0.012004791758954525
1761430132099430400,9.215430419921875,0.00410483730956912,-0.07164172828197479,0.07988933473825455
1761430132119374800,9.235374755859375,0.010895895771682262,-0.11682222783565521,0.08908358216285706
1761430132139319800,9.25531982421875,-0.006098626181483269,-0.0240789745002985,0.002560707740485668
1761430132159263700,9.275263671875,-0.015278092585504055,0.03149407356977463,-0.10016025602817535
1761430132179207700,9.295207763671876,-0.0038129251915961504,0.09530676901340485,-0.11709875613451004
1761430132199151900,9.31515185546875,-0.0008907236042432487,0.026860671117901802,-0.04580318555235863
1761430132219096000,9.335095947265625,0.00950944796204567,-0.03009592369198799,0.032669518142938614
1761430132239040800,9.355040771484376,0.01002228632569313,-0.08532555401325226,0.049146585166454315
1761430132258984700,9.374984619140625,0.020148247480392456,-0.026170819997787476,0.01916590705513954
1761430132278928600,9.3949287109375,0.030148064717650414,0.041685592383146286,-0.013399509713053703
1761430132298872800,9.414872802734376,0.03678767755627632,0.051753804087638855,-0.03482488915324211
1761430132318817000,9.434817138671875,0.015275194309651852,-0.014063259586691856,-0.04020559415221214
1761430132338761000,9.454760986328125,0.011021774262189865,-0.024325648322701454,-0.0031229043379426003
1761430132358705700,9.47470556640625,-0.0013091086875647306,0.017825163900852203,0.048543449491262436
1761430132378649900,9.49464990234375,-0.012588485144078732,0.015714608132839203,0.0608169287443161
1761430132398593800,9.51459375,-0.0006145439692772925,0.022907309234142303,0.019173678010702133
1761430132418537700,9.534537841796874,0.005819377023726702,0.029461247846484184,-0.027874786406755447
1761430132438482000,9.55448193359375,0.008573083207011223,0.014291949570178986,-0.01341073028743267
1761430132458427000,9.574427001953126,0.002827312098816037,-0.014092255383729935,0.03924417123198509
1761430132478370800,9.594370849609374,-0.011556688696146011,-0.01014139037579298,0.04996781423687935
1761430132498314800,9.614314697265625,-0.011995486915111542,0.0433223694562912,0.008833926171064377
1761430132518258700,9.6342587890625,0.006351740099489689,0.06440838426351547,-0.052431102842092514
1761430132538203000,9.654202880859375,0.02678191475570202,0.010861829854547977,-0.0728144571185112
1761430132558147800,9.67414794921875,0.01985618658363819,-0.05090536177158356,-0.01213708333671093
1761430132578091800,9.694091796875,0.009040110744535923,-0.026517001911997795,0.06051811948418617
1761430132598035700,9.71403564453125,0.01156700775027275,0.012031789869070053,0.0714486613869667
1761430132617979600,9.733979736328125,0.016998881474137306,0.03123694285750389,0.037273555994033813
1761430132637923800,9.753923828125,0.019085552543401718,0.03655361011624336,-0.011635223403573036
1761430132657868000,9.773867919921875,0.014404252171516418,0.050018154084682465,-0.04607660323381424
1761430132677812700,9.793812744140626,0.01592731475830078,0.11933837831020355,-0.060428377240896225
1761430132697756700,9.813756591796874,0.006059678737074137,0.14628073573112488,-0.12634313106536865
1761430132717700600,9.83370068359375,-0.012534068897366524,0.19749969244003296,-0.20599551498889923
1761430132737644800,9.853644775390626,0.011438732035458088,0.28979581594467163,-0.28177744150161743
1761430132757588700,9.873588623046874,0.0419500358402729,0.4158551096916199,-0.3787027895450592
1761430132777533700,9.89353369140625,-0.018924055621027946,0.20744839310646057,-0.23504729568958282
1761430132797477600,9.9134775390625,0.001184055581688881,0.09070270508527756,0.06653281301259995
1761430132817421800,9.933421875,0.05705708637833595,0.0494239367544651,0.15624041855335236
1761430132837365800,9.95336572265625,0.07248371094465256,0.05617481470108032,0.05607888102531433
1761430132857309700,9.973309814453126,0.03723295405507088,-0.1371258795261383,0.014860259369015694
