time,seconds_elapsed,z,y,x
1761509356612395000,0.07739501953125,0.0005442381370812654,0.003701409325003624,0.0019513505976647139
1761509356632552000,0.097552001953125,0.0016597285866737366,-0.004145788960158825,0.0002257106825709343
1761509356652710000,0.1177099609375,-0.00038141850382089615,0.00012524891644716263,-0.001785867614671588
1761509356672867000,0.1378671875,0.001069545280188322,-0.0014380048960447311,0.0027796803042292595
1761509356693024800,0.158024658203125,-0.00023098662495613098,0.003090047277510166,0.000013899989426136017
1761509356713182000,0.178181884765625,0.0008677735459059477,-0.00017154868692159653,-0.0013918073382228613
1761509356733340000,0.19833984375,-0.0008292109705507755,0.0014321031048893929,0.0016209392342716455
1761509356753496800,0.218496826171875,0.00010903854854404926,0.0009117983281612396,0.00019126711413264275
1761509356773655000,0.238655029296875,-0.0013510693097487092,0.0016355495899915695,-0.002421473152935505
1761509356793812000,0.25881201171875,0.002124330261722207,0.0019034631550312042,0.00019934354349970818
1761509356813970000,0.278969970703125,0.00246261665597558,-0.0021903738379478455,0.0015914685791358352
1761509356834126800,0.299126953125,0.002536684274673462,0.0032510245218873024,0.0007770627271384001
1761509356854285000,0.31928515625,-0.0013807294890284538,-0.0007164077833294868,-0.0017349172849208117
1761509356874442000,0.33944189453125,-0.0005087138852104545,-0.0005475394427776337,-0.001963856630027294
1761509356894600000,0.359599853515625,0.00015666638500988483,0.0020409785211086273,0.0018096701242029667
1761509356914757000,0.379757080078125,0.0012194209266453981,0.0009656213223934174,0.00038585253059864044
1761509356934915000,0.3999150390625,0.0002559265121817589,-0.0003839964047074318,-0.00027292431332170963
1761509356955072000,0.420072021484375,-0.00041545869316905737,-0.0015903385356068611,0.0016461239429190755
1761509356975230000,0.44022998046875,0.0009933959227055311,0.0020317314192652702,-0.002353667514398694
1761509356995387100,0.46038720703125,0.0002102924045175314,0.0006814366206526756,-0.0019175319466739893
1761509357015544800,0.480544921875,-0.0016645693685859442,-0.00026633497327566147,-0.0013473541475832462
1761509357035702000,0.500701904296875,-0.0014150210190564394,-0.0011656340211629868,-0.00026192632503807545
1761509357055860000,0.52085986328125,0.0010205795988440514,-0.002703270874917507,-0.0034099589101970196
1761509357076017000,0.541016845703125,-0.0006903441390022635,-0.0004743281751871109,-0.0019006466027349234
1761509357096174800,0.5611748046875,-0.0000462275929749012,0.0010378891602158546,-0.0031846524216234684
1761509357116332000,0.58133203125,0.0013703852891921997,-0.0006857328116893768,0.0015503786271438003
1761509357136490000,0.601489990234375,-0.0008840304799377918,0.0031677791848778725,-0.003059800248593092
1761509357156647000,0.62164697265625,-0.0015750809106975794,-0.0031358711421489716,-0.0008845150005072355
1761509357176804000,0.64180419921875,0.00014650565572082996,0.0008146585896611214,-0.002342548221349716
1761509357196961800,0.6619619140625,-0.000043612439185380936,0.002813197672367096,-0.0005290238186717033
1761509357217119000,0.682118896484375,0.002769638318568468,0.0019229650497436523,-0.0005076967645436525
1761509357237277000,0.70227685546875,0.0007106414996087551,-0.001762167550623417,0.00040731183253228664
1761509357257433900,0.722433837890625,-0.0015162123600021005,0.000475042499601841,0.0003454899415373802
1761509357277592000,0.742592041015625,-0.00047408661339432,-0.001829884946346283,0.004929456859827042
1761509357297749000,0.7627490234375,-0.001238781725987792,0.0006875284016132355,0.0010066120885312557
1761509357317907000,0.782906982421875,-0.00016044266521930695,0.0005750088021159172,-0.0010129138827323914
1761509357338064000,0.80306396484375,0.001170973526313901,-0.001004192978143692,-0.0005622003227472305
1761509357358222000,0.82322216796875,0.0007261794526129961,-0.002186901867389679,0.0021300730295479298
1761509357378378800,0.843378662109375,-0.0020066681317985058,-0.0003432519733905792,0.0029925161506980658
1761509357398537000,0.863536865234375,0.0010779791045933962,0.000013552606105804443,0.0015545354690402746
1761509357418694100,0.883694091796875,-0.0007850100519135594,-0.0015158094465732574,0.00037618097849190235
1761509357438852000,0.90385205078125,0.0014843035023659468,0.000952565111219883,-0.00029517081566154957
1761509357459009000,0.924009033203125,-0.0016127487178891897,-0.0008104192093014717,-0.00035698036663234234
1761509357479167000,0.9441669921875,-0.00004666787572205067,0.0017159311100840569,0.0006458815187215805
1761509357499324000,0.964323974609375,-0.00032114190980792046,0.00037810951471328735,0.0015999547904357314
1761509357519481900,0.98448193359375,0.001264768186956644,-0.000738261267542839,-0.0029904088005423546
1761509357539639000,1.00463916015625,-0.0038974154740571976,-0.0017783138900995255,0.00021177553571760654
1761509357559797000,1.024796875,-0.0006175066810101271,-0.0020314082503318787,-0.00003224494867026806
1761509357579954000,1.044953857421875,-0.0013511290308088064,-0.0002644108608365059,0.00015920540317893028
1761509357600111900,1.06511181640625,-0.0003461220767349005,-0.0007396619766950607,0.0007031774148344994
1761509357620269000,1.08526904296875,0.0005589555948972702,0.0013128872960805893,0.0007263047154992819
1761509357640426000,1.105426025390625,0.000800407025963068,0.0015747928991913795,-0.0016252566128969193
1761509357660584000,1.125583984375,0.004059012979269028,-0.001088854856789112,-0.0008860998786985874
1761509357680741000,1.1457412109375,-0.0010036271996796131,-0.0008116429671645164,0.00027361675165593624
1761509357700898800,1.16589892578125,0.00034735212102532387,0.0024176929146051407,-0.002200570423156023
1761509357721056000,1.186055908203125,0.0006156251765787601,0.0003376724198460579,0.0009831604547798634
1761509357741214000,1.2062138671875,0.002088934648782015,-0.0004131197929382324,-0.0009967067744582891
1761509357761371000,1.226370849609375,0.003159687854349613,0.0018056267872452736,-0.00102714030072093
1761509357781528800,1.24652880859375,-0.0015430579660460353,-0.0006621871143579483,0.0011406727135181427
1761509357801686000,1.26668603515625,-0.0017421660013496876,-0.00250136386603117,0.0005634687840938568
1761509357821844000,1.286843994140625,-0.001850903034210205,-0.0015732645988464355,0.0008031681645661592
1761509357842001000,1.3070009765625,-0.0017772398423403502,-0.00013323314487934113,-0.0011688126251101494
1761509357862159000,1.3271591796875,-0.001055222935974598,-0.0017062397673726082,0.0009201497305184603
1761509357882315800,1.347315673828125,0.0002664306666702032,-0.00021927431225776672,-0.000368321780115366
1761509357902474000,1.367473876953125,0.00035078474320471287,0.0004940805956721306,-0.0013517870102077723
1761509357922631000,1.387630859375,0.002713135676458478,0.00024968571960926056,0.00029260292649269104
1761509357942789000,1.4077890625,0.0015489081852138042,0.0007352391257882118,0.0004134676419198513
1761509357962946000,1.427946044921875,-0.00046676176134496927,0.0026083188131451607,0.0012573206331580877
1761509357983103500,1.448103515625,-0.0007829413516446948,-0.0020851241424679756,0.000704808859154582
1761509358003260400,1.468260498046875,0.0012377812527120113,-0.004106173291802406,-0.001134991878643632
1761509358023418400,1.48841845703125,0.0004345767665654421,-0.001959286630153656,0.00034079840406775475
1761509358043575600,1.508575439453125,-0.0010049688862636685,0.0005014371126890182,0.000902184285223484
1761509358063733500,1.5287333984375,-0.0021049438510090113,0.0010811351239681244,0.0013681254349648952
1761509358083890400,1.548890380859375,0.002198251197114587,-0.0019814753904938698,0.0009165175724774599
1761509358104047600,1.569047607421875,-0.003482673317193985,-0.0009929900988936424,-0.0021171539556235075
1761509358124205300,1.589205322265625,-0.0010701552964746952,-0.0019615916535258293,-0.0013667687308043242
1761509358144362500,1.609362548828125,-0.0014232161920517683,-0.00428994745016098,-0.00005664117634296417
1761509358164520400,1.6295205078125,-0.0014351028949022293,0.000891457311809063,0.0006109559908509254
1761509358184677400,1.649677490234375,0.0024521721061319113,-0.0005841348320245743,-0.0016022089403122663
1761509358204835300,1.66983544921875,-0.00004739989526569843,0.0016122814267873764,0.00253270729444921
1761509358224992500,1.689992431640625,0.0015012274961918592,0.0001342296600341797,0.001681652618572116
1761509358245150500,1.710150390625,-0.0018458216218277812,0.001880561001598835,0.0006278802175074816
1761509358265307400,1.730307373046875,-0.0010241022100672126,0.00019105244427919388,0.0016402560286223888
1761509358285465600,1.750465576171875,0.0015465484466403723,0.0009393366053700447,-0.0009155322331935167
1761509358305622500,1.77062255859375,0.00012417114339768887,-0.002019088715314865,-0.0021919752471148968
1761509358325780500,1.790780517578125,-0.000008993083611130714,0.0015986589714884758,-0.0034123656805604696
1761509358345937400,1.8109375,-0.0006017704727128148,-0.0012576114386320114,-0.000006975606083869934
1761509358366095600,1.831095703125,0.0034606324043124914,-0.0006711911410093307,-0.001170710427686572
1761509358386252300,1.851252197265625,-0.00019426154904067516,-0.0012443922460079193,0.0007422722410410643
1761509358406410500,1.871410400390625,0.0013972732704132795,0.0005280422046780586,-0.0019721239805221558
1761509358426567700,1.891567626953125,0.00048705190420150757,0.0007438724860548973,-0.0007661818526685238
1761509358446725400,1.911725341796875,0.0023917239159345627,0.0018002018332481384,0.0008212937973439693
1761509358466882600,1.931882568359375,-0.0003369903424754739,0.0026884255930781364,1.5320256352424622e-7
1761509358487040500,1.95204052734375,-0.0012540188618004322,0.003058585338294506,0.001609661616384983
1761509358507197400,1.972197509765625,-0.0004770691739395261,0.0028479741886258125,0.0013915905728936195
1761509358527355400,1.99235546875,-0.0010855247965082526,-0.0007899831980466843,-0.0017284178175032139
1761509358547512600,2.0125126953125,0.0010510399006307125,0.0014278795570135117,-0.000680495286360383
1761509358567669500,2.03266943359375,0.0010827251244336367,0.0008193450048565865,0.0002558936830610037
1761509358587827500,2.052827392578125,0.001010258449241519,0.0008593099191784859,-0.0005861816462129354
1761509358607984600,2.072984619140625,-0.002291335491463542,-0.0010642465204000473,0.00015413598157465458
1761509358628142300,2.093142333984375,-0.0014222862664610147,-0.00014871731400489807,0.0003799793776124716
1761509358648299500,2.113299560546875,-0.002096835756674409,0.0006284844130277634,-0.0009545120410621166
1761509358668457500,2.13345751953125,-0.001864606630988419,-0.0013680215924978256,-0.00012759491801261902
1761509358688614400,2.153614501953125,0.0019953097216784954,-0.00013228971511125565,0.0008872014004737139
1761509358708772400,2.1737724609375,0.0021033911034464836,0.0002559022977948189,0.0009951521642506123
1761509358728929500,2.193929443359375,-0.00020947144366800785,-0.00018228963017463684,-0.0025335908867418766
1761509358749087500,2.21408740234375,-0.0020011195447295904,0.001237126998603344,0.00040119909681379795
1761509358769244400,2.234244384765625,0.0012778283562511206,-0.002103116363286972,0.002462416421622038
1761509358789402400,2.25440234375,0.0008048433810472488,0.001506422646343708,-0.0014288388192653656
1761509358809559300,2.274559326171875,-0.002484997734427452,-0.003051714040338993,-0.0023013220634311438
1761509358829717500,2.294717529296875,0.001478811725974083,-0.0011801505461335182,0.003207942470908165
1761509358849874400,2.31487451171875,-0.0009015622781589627,0.0012540686875581741,0.002674874383956194
1761509358870032600,2.33503271484375,0.0011152666993439198,0.000699872151017189,-0.0010906110983341932
1761509358890189300,2.355189208984375,0.0008549247868359089,-0.0006215628236532211,0.0022385483607649803
1761509358910347500,2.375347412109375,0.0010495956521481276,-0.00036224350333213806,0.0006146784871816635
1761509358930504400,2.39550439453125,-0.0024178752209991217,-0.00020241644233465195,-0.0026888633146882057
1761509358950662400,2.415662353515625,0.0012870037462562323,0.002592950128018856,0.0006608010735362768
1761509358970819600,2.435819580078125,-0.00004732375964522362,-0.0007824460044503212,-0.0008491051848977804
1761509358990976800,2.455976806640625,0.001285388832911849,-0.003181222826242447,-0.0003113506827503443
1761509359011135000,2.476135009765625,-0.0007515891920775175,-0.001994849182665348,0.00152788613922894
1761509359031291600,2.496291748046875,-0.0022895014844834805,0.000361468642950058,0.001505232066847384
1761509359051449900,2.516449951171875,0.0001387312076985836,-0.0014449646696448326,-0.0012951879762113094
1761509359071606800,2.536606689453125,-0.0014636351261287928,-0.0010287454351782799,-0.0014696919824928045
1761509359091765000,2.556764892578125,0.0022019315510988235,0.0008110115304589272,0.00040675397031009197
1761509359111921700,2.576921630859375,0.0018124787602573633,-0.0007347948849201202,0.002972871530801058
1761509359132079900,2.597079833984375,0.001555566443130374,-0.0012603746727108955,-0.00039351521991193295
1761509359152237000,2.617237060546875,0.0013656336814165115,0.0026347413659095764,-0.0025248497258871794
1761509359172394800,2.637394775390625,0.00025020004250109196,-0.0014435676857829094,-0.001826268620789051
1761509359192552000,2.657552001953125,-0.001097359461709857,-0.0007562050595879555,0.002338649006560445
1761509359212710000,2.6777099609375,0.0005260214675217867,0.00014279596507549286,-0.0025532797444611788
1761509359232866800,2.69786669921875,0.0002125212922692299,0.000704626552760601,-0.0031814444810152054
1761509359253024800,2.718024658203125,-0.00008703419007360935,0.001707959920167923,-0.00013084709644317627
1761509359273182000,2.738181884765625,-0.000833784812130034,0.00002702418714761734,-0.00035106344148516655
1761509359293339600,2.758339599609375,0.0034953528083860874,0.00072528887540102,-0.0007939240895211697
1761509359313496800,2.778496826171875,-0.00266905315220356,-0.00025364290922880173,-0.0024641300551593304
1761509359333654800,2.79865478515625,-0.0009986682562157512,-0.002235332503914833,-0.0013670192565768957
1761509359353811700,2.818811767578125,0.0016198630910366774,0.0008047958835959435,-0.002344599226489663
1761509359373970000,2.838969970703125,0.001149650663137436,0.00024140812456607819,-0.0013269749470055103
1761509359394126800,2.859126953125,0.0006478503346443176,-0.0011755377054214478,0.00027936510741710663
1761509359414283800,2.87928369140625,0.0005771936848759651,0.0007541170343756676,-0.0011048903688788414
1761509359434441700,2.899441650390625,-0.0007525066612288356,-0.0007099062204360962,0.00038426369428634644
1761509359454599000,2.919598876953125,-0.0008665635250508785,-0.001858583651483059,-0.0007851885166019201
1761509359474756600,2.939756591796875,-0.0012328025186434388,-0.0013671470806002617,-0.001073306193575263
1761509359494913800,2.959913818359375,0.00015630852431058884,-0.00017124507576227188,-0.0003042789176106453
1761509359515071700,2.98007177734375,0.0008911092299968004,0.0014688819646835327,-0.0002986618783324957
1761509359535228700,3.000228759765625,0.0026483936235308647,-0.0017784805968403816,0.0008105041924864054
1761509359555387000,3.020386962890625,0.0006221053190529346,0.000250169076025486,-0.0000701292883604765
1761509359575543800,3.040543701171875,-0.0011761741479858756,-0.001909090206027031,0.0005609055515378714
1761509359595702000,3.060701904296875,-0.0013943492667749524,0.0012345453724265099,0.000013628974556922913
1761509359615858700,3.080858642578125,-0.0008676414145156741,-0.0022362452000379562,-0.002498811110854149
1761509359636017000,3.101016845703125,0.0009345316793769598,-0.0011725956574082375,0.00015405751764774323
1761509359656173800,3.121173828125,0.0011470923200249672,0.0009238924831151962,-0.0007095818873494864
1761509359676331800,3.141331787109375,0.00044775335118174553,-0.0013527339324355125,-0.00016457634046673775
1761509359696489000,3.161489013671875,-0.0023224204778671265,0.00074054766446352,-0.0023604058660566807
1761509359716647000,3.18164697265625,-0.000020227860659360886,0.002246902324259281,-0.00022166152484714985
1761509359736803800,3.201803955078125,-0.0018666037358343601,0.0008979300037026405,-0.002065015025436878
1761509359756961800,3.2219619140625,0.0006368588656187057,-0.0012609940022230148,0.0001116280909627676
1761509359777119000,3.242118896484375,-0.0005379494978114963,-0.00004154816269874573,-0.003026411170139909
1761509359797276700,3.262276611328125,-0.002646144712343812,-0.000014709308743476868,-0.0012614901643246412
1761509359817433900,3.282433837890625,-0.002425441052764654,-0.0012612026184797287,-0.00025619054213166237
1761509359837591000,3.302591064453125,0.0001943563111126423,0.000743490643799305,0.0006652481388300657
1761509359857748700,3.322748779296875,-0.0022107886616140604,0.00027494411915540695,-0.0019188534934073687
1761509359877906000,3.342906005859375,-0.0014627480413764715,-0.0003374144434928894,0.0010164051782339811
1761509359898064000,3.36306396484375,-0.000714014982804656,-0.0014105290174484253,-0.00011894805356860161
1761509359918220800,3.383220703125,0.001525755738839507,0.0003594188019633293,-0.0010500638745725155
1761509359938378800,3.403378662109375,0.00008090026676654816,0.00013669393956661224,0.00003036647103726864
1761509359958536000,3.423535888671875,0.0009930962696671486,-0.0009491685777902603,-0.001005337806418538
1761509359978693600,3.443693603515625,0.00014252983964979649,-0.00010884087532758713,-0.0020251264795660973
1761509359998854100,3.463854248046875,-0.002342038322240114,0.0027959737926721573,0.0011311359703540802
1761509360019012000,3.48401220703125,-0.00005334801971912384,0.000883324071764946,0.0017742404015734792
1761509360039169000,3.5041689453125,0.0015157887246459723,-0.0021658819168806076,-0.00020204787142574787
1761509360059327200,3.5243271484375,0.00008419482037425041,-0.00039810314774513245,-0.0029435264877974987
1761509360079484200,3.544484130859375,-0.0003457927377894521,-0.0008908072486519814,-0.0005412574391812086
1761509360099642000,3.56464208984375,-0.0007280750432983041,-0.0005197366699576378,-0.0018345252610743046
1761509360119799000,3.584799072265625,0.0014164645690470934,-0.0008253566920757294,-0.002543546026572585
1761509360139957200,3.604957275390625,0.0023259983863681555,-0.0014743460342288017,-0.0007681543938815594
1761509360160114200,3.6251142578125,-0.0017619054997339845,-0.00038010068237781525,0.0011231277603656054
1761509360180271000,3.64527099609375,0.0007159383967518806,-0.0014853738248348236,-0.00269978865981102
1761509360200429300,3.66542919921875,0.0032902569510042667,0.0015723202377557755,0.0016180980019271374
1761509360220586000,3.6855859375,0.0007975473999977112,-0.0005346182733774185,0.0013368395157158375
1761509360240744200,3.705744140625,-0.0020303078927099705,0.0021453993394970894,-0.00034139398485422134
1761509360260901000,3.725901123046875,-0.0011702956398949027,-0.002075808122754097,-0.0008322086650878191
1761509360281059000,3.74605908203125,-0.0033537663985043764,-0.00011302251368761063,-0.0020183930173516273
1761509360301216000,3.766216064453125,0.0025474175345152617,0.00038850121200084686,-0.0010036206804215908
1761509360321374200,3.786374267578125,-0.00011402321979403496,0.002152079716324806,-0.0007776881102472544
1761509360341531100,3.80653125,0.002362611470744014,-0.0014455150812864304,-0.0024690425489097834
1761509360361689000,3.826689208984375,-0.00038247276097536087,0.0017653387039899826,0.0038139368407428265
1761509360381846300,3.84684619140625,-0.0007161221001297235,-0.00008758995682001114,0.001839085714891553
1761509360402004200,3.867004150390625,0.00008682766929268837,0.001988636329770088,-0.0015960352029651403
1761509360422161200,3.8871611328125,-0.0014106843154877424,0.002049466595053673,-0.0023956650402396917
1761509360442319000,3.907319091796875,-0.0012227252591401339,-0.0003125034272670746,0.0006221577059477568
1761509360462476000,3.92747607421875,-0.0007058149203658104,-0.0005921414121985435,-0.0011094568762928247
1761509360482634000,3.947634033203125,-0.0004484314704313874,-0.00142563134431839,-0.00023348955437541008
1761509360502791200,3.967791259765625,-0.00043892301619052887,0.0023562712594866753,0.0008309464901685715
1761509360522948000,3.987947998046875,-0.002430286491289735,0.0008580945432186127,-0.0003050900995731354
1761509360543103200,4.008103271484375,0.000727115198969841,-0.0000998983159661293,-0.0007890937849879265
1761509360563261000,4.028260986328125,-0.000570438802242279,-0.001794072799384594,0.0006482014432549477
1761509360583418000,4.048418212890625,-0.0023329362738877535,0.00003461446613073349,-0.0009516715072095394
1761509360603576000,4.068576171875,0.0022842399775981903,-0.002545468509197235,0.0018176203593611717
1761509360623733000,4.08873291015625,0.0016143107786774635,0.00019737239927053452,-0.0012585497461259365
1761509360643891200,4.10889111328125,-0.0007801147876307368,0.00025040004402399063,-0.0005975160747766495
1761509360664048000,4.129048095703125,-0.0011548481415957212,-0.0013093026354908943,-0.00013604224659502506
1761509360684206000,4.1492060546875,-0.001956968568265438,0.00028549227863550186,0.0028021391481161118
1761509360704363000,4.169363037109375,0.00105772796086967,-0.00022139400243759155,0.001618622220121324
1761509360724521200,4.189521240234375,0.0009553642012178898,0.0028623314574360847,-0.0004589189775288105
1761509360744678100,4.20967822265625,0.0018441418651491404,-0.0015995828434824944,-0.0007586497813463211
1761509360764836000,4.229836181640625,0.001699934946373105,0.0019440604373812675,-0.00046914443373680115
1761509360784993300,4.2499931640625,0.0008399991784244776,0.001998940482735634,0.0015080436132848263
1761509360805151200,4.270151123046875,0.00014325231313705444,-0.0009425673633813858,-0.0006869575008749962
1761509360825308200,4.29030810546875,0.0016026082448661327,-0.0014198198914527893,-0.0010759402066469193
1761509360845466000,4.310466064453125,-0.0025649559684097767,0.001342623494565487,-0.0021876893006265163
1761509360865623300,4.330623291015625,0.002911763731390238,0.0002678222954273224,-0.0012577318120747805
1761509360885780200,4.3507802734375,0.0015758052468299866,0.001632770523428917,-0.0024658592883497477
1761509360905938200,4.370938232421875,0.00018593366257846355,-0.00047569163143634796,0.0013429606333374977
1761509360926095000,4.39109521484375,-0.0013906247913837433,-0.0018111541867256165,0.0003308181185275316
1761509360946253000,4.411253173828125,-0.0001858271425589919,-0.000945093110203743,-0.00067485636100173
1761509360966410200,4.43141015625,0.0009243404492735863,-0.0008901404216885567,-0.0001362585462629795
1761509360986568200,4.451568115234375,-0.00025663047563284636,0.0023555122315883636,0.0016234811628237367
1761509361006721800,4.4717216796875,0.0010727464687079191,-0.0003560017794370651,-0.0007977366913110018
1761509361026879700,4.491879638671875,0.00004843622446060181,0.0007769027724862099,0.0003669923171401024
1761509361047036700,4.51203662109375,0.00158393825404346,0.0008857380598783493,0.0004959686193615198
1761509361067194600,4.532194580078125,-0.000721245538443327,0.0023781387135386467,-0.002382491948083043
1761509361087351800,4.552351806640625,-0.001137405983172357,-0.0016735261306166649,0.0007147074211388826
1761509361107509500,4.572509521484375,0.00005103321745991707,0.002688412554562092,-0.002434625755995512
1761509361127666700,4.592666748046875,0.0011526518501341343,-0.00032703764736652374,0.0008851273451000452
1761509361147824600,4.61282470703125,0.00009335950016975403,0.00010774098336696625,0.0006218727212399244
1761509361167983900,4.63298388671875,-0.00139442621730268,0.0006523830816149712,-0.0005519695114344358
1761509361188140500,4.653140625,0.0014710486866533756,0.00016745459288358688,-0.00007773120887577534
1761509361208298800,4.673298828125,-0.002533214632421732,-0.000016470439732074738,-0.0010199348907917738
1761509361228455700,4.69345556640625,0.0010013850405812263,-0.0009058238938450813,-0.00014985469169914722
1761509361248613600,4.713613525390625,-0.0011801356449723244,-0.0009909989312291145,-0.0021915454417467117
1761509361268770800,4.733770751953125,-0.00027077458798885345,0.0016917670145630836,-0.0007463656365871429
1761509361288928800,4.7539287109375,0.003237249795347452,-0.0003129923716187477,0.001195952296257019
1761509361309085700,4.774085693359375,0.0036296858452260494,-0.0025205062702298164,0.0014335846062749624
1761509361329242600,4.79424267578125,0.0005767983384430408,0.0009576957672834396,0.00004141777753829956
1761509361349400800,4.81440087890625,0.0020824719686061144,0.003085663542151451,-0.0012900647707283497
1761509361369557500,4.8345576171875,0.00015857256948947906,-0.0025386912748217583,-0.00020475941710174084
1761509361389715700,4.8547158203125,0.0006458584684878588,0.0020974911749362946,-0.0022322663571685553
1761509361409873000,4.874872802734375,-0.00046836817637085915,-0.001400332897901535,-0.0011405327823013067
1761509361430030800,4.89503076171875,0.0014912299811840057,0.0002751583233475685,-0.0025032463017851114
1761509361450187800,4.915187744140625,0.0012418520636856556,-0.0002932315692305565,0.0005997715052217245
1761509361470345700,4.935345703125,0.0020197518169879913,0.000640534795820713,-0.0002386088017374277
1761509361490502700,4.955502685546875,-0.0006437147967517376,0.001375117339193821,0.00016568275168538094
1761509361510660600,4.97566064453125,-0.0005903082201257348,-0.0020677633583545685,-0.0024778652004897594
1761509361530817800,4.99581787109375,0.0003602951765060425,-0.005194266326725483,-0.004555548541247845
1761509361550975700,5.015975830078125,0.0010686996392905712,0.00047211814671754837,0.0015094198752194643
1761509361571132700,5.036132568359375,-0.000008322298526763916,0.0018807630985975266,0.0007916884496808052
1761509361591290600,5.05629052734375,0.00032707396894693375,0.002596108242869377,0.001064130337908864
1761509361611447800,5.07644775390625,0.002484586788341403,-0.000004380941390991211,0.0005719470791518688
1761509361631604700,5.096604736328125,-0.0018748765578493476,-0.001046719029545784,-0.0001990839373320341
1761509361651762700,5.1167626953125,-0.00012221396900713444,0.0004366999492049217,0.00022047432139515877
1761509361671919900,5.136919921875,-0.0003018849529325962,0.0003166971728205681,0.0006828582845628262
1761509361692077600,5.15707763671875,0.0019016233272850513,-0.0005644466727972031,0.0017170838546007872
1761509361712234800,5.17723486328125,0.0008470397442579269,0.0012884559109807014,-0.001173913711681962
1761509361732392700,5.197392822265625,-0.0015096509596332908,0.0016875294968485832,0.002708589658141136
1761509361752549600,5.217549560546875,-0.0003860555589199066,0.0007567116990685463,-0.001598042668774724
1761509361772707600,5.23770751953125,0.0010472575668245554,-0.0011077672243118286,0.0005958692636340857
1761509361792864800,5.25786474609375,0.0014664728660136461,-0.001614939421415329,-0.0018295235931873322
1761509361813022700,5.278022705078125,0.0016422467306256294,-0.0008520921692252159,-0.0009007749613374472
1761509361833179600,5.2981796875,-0.0004728854401037097,-0.00029449257999658585,0.0016753777163103223
1761509361853337900,5.318337890625,-0.0000023008324205875397,0.0010002311319112778,0.00075543113052845
1761509361873494500,5.33849462890625,0.0012446246109902859,-0.0009748600423336029,-0.0001546845305711031
1761509361893652700,5.35865283203125,0.0006582722999155521,0.0000736285001039505,-0.0017902597319334745
1761509361913809700,5.3788095703125,0.0011287613306194544,-0.00036128610372543335,-0.0019675379153341055
1761509361933966600,5.398966552734375,-0.00017394288443028927,0.0007174527272582054,0.0010084188543260098
1761509361954124800,5.419124755859375,-0.0002749459818005562,-0.0019511040300130844,0.00001876172609627247
1761509361974281700,5.43928173828125,0.0030466564930975437,-0.0010631829500198364,0.0005645717028528452
1761509361994440200,5.459440185546875,0.00117179611697793,0.00043245311826467514,0.001357000321149826
1761509362014597000,5.47959716796875,-0.00016477634198963642,0.0004115840420126915,0.0017288009403273463
1761509362034755000,5.499755126953125,-0.0006297450745478272,-0.0014758259057998657,-0.0010663396678864956
1761509362054912000,5.519912109375,0.0009419447742402554,0.0007590847089886665,-0.00072075380012393
1761509362075070200,5.5400703125,0.0015125172212719917,-0.0008711963891983032,0.00035914964973926544
1761509362095227000,5.560226806640625,-0.001287002582103014,-0.0004102177917957306,0.00029393727891147137
1761509362115385000,5.580385009765625,0.000460971612483263,-0.0013211295008659363,0.0017881811363622546
1761509362135542300,5.600542236328125,-0.000905442051589489,0.00034894514828920364,0.002601170912384987
1761509362155700000,5.620699951171875,-0.00026633404195308685,0.00041073188185691833,-0.0001358790323138237
1761509362175857200,5.640857177734375,0.0005599646829068661,-0.0007014628499746323,-0.0011607194319367409
1761509362196014000,5.66101416015625,0.00030810548923909664,-0.001407111994922161,-0.0011223421897739172
1761509362216172000,5.681172119140625,0.0023788597900420427,0.00021212268620729446,0.00009173504076898098
1761509362236329000,5.701328857421875,0.00039982027374207973,0.0012348638847470284,-0.002011101460084319
1761509362256487200,5.721487060546875,0.0014785032253712416,0.0026622628793120384,0.004437297582626343
1761509362276644000,5.74164404296875,0.0004558158107101917,-0.0001644650474190712,0.00003292434848845005
1761509362296802000,5.761802001953125,0.000449970830231905,-0.0015109991654753685,-0.0006970374379307032
1761509362316959200,5.781959228515625,-0.001431841403245926,-0.000028862617909908295,0.002720676828175783
1761509362337117200,5.8021171875,0.00018392829224467278,-0.0008810302242636681,-2.3283064365386963e-8
1761509362357274000,5.822274169921875,0.00021318579092621803,-0.00021174177527427673,-0.0009476153645664454
1761509362377432000,5.84243212890625,0.0008738383185118437,0.0007131677120923996,0.0020118632819503546
1761509362397589000,5.862589111328125,-0.0010064290836453438,0.00016119331121444702,0.0022660617250949144
1761509362417747000,5.882746826171875,-0.0008590552024543285,0.00032419711351394653,0.002187540289014578
1761509362437904100,5.902904052734375,-0.0024024448357522488,0.0008511785417795181,0.0011237263679504395
1761509362458062000,5.92306201171875,0.0008153696544468403,0.0018787384033203125,-0.002292250981554389
1761509362478219000,5.943218994140625,0.0029050863813608885,0.0009834486991167068,-0.0022973178420215845
1761509362498376200,5.963376220703125,-0.000265193753875792,-0.0010625924915075302,0.000504357973113656
1761509362518534100,5.9835341796875,-0.0014729318208992481,0.0003222562372684479,0.001025005942210555
1761509362538691000,6.003691162109375,-0.0004493868909776211,0.0017562629655003548,0.002511771395802498
1761509362558849000,6.02384912109375,0.002206277335062623,-0.0004926808178424835,0.00004051742143929005
1761509362579006200,6.044006103515625,-0.0022196804638952017,0.0005732197314500809,0.0008062771521508694
1761509362599164000,6.064163818359375,-0.000020532868802547455,-0.00009875744581222534,-0.001593142282217741
1761509362619321000,6.084321044921875,0.0011037176009267569,0.002917621284723282,-0.00011567841283977032
1761509362639479000,6.10447900390625,0.0009677843190729618,0.00004374980926513672,-0.0007594018243253231
1761509362659636000,6.124635986328125,-0.000455592991784215,0.0002325102686882019,0.00021283351816236973
1761509362679794200,6.144794189453125,0.0002451546024531126,-0.0019260244444012642,-0.0013735934626311064
1761509362699951000,6.164951171875,-0.00036241440102458,0.0015934016555547714,0.0003649056889116764
1761509362720109000,6.185109130859375,-0.00048386002890765667,-0.002056506462395191,-0.001050346065312624
1761509362740266000,6.205265869140625,-0.0011934079229831696,0.0016305185854434967,-0.0005935265216976404
1761509362760423200,6.225423095703125,-0.0011591024231165648,-0.0010707788169384003,-0.0015136520378291607
1761509362780581000,6.2455810546875,0.0004115921910852194,-0.0031138919293880463,-0.00011123670265078545
1761509362800738000,6.265738037109375,-0.0012119694147258997,-0.00013025198131799698,-0.0020914000924676657
1761509362820896300,6.285896240234375,0.0004127013962715864,0.0019072275608778,-0.00023401575163006783
1761509362841053000,6.306052978515625,-0.00022093765437602997,0.0012025656178593636,-0.00005188188515603542
1761509362861211100,6.326211181640625,-0.00017647678032517433,0.001971706748008728,-0.00046570482663810253
1761509362881368000,6.3463681640625,0.001171046867966652,-0.000390087254345417,0.0008571241050958633
1761509362901526000,6.366526123046875,0.00022650044411420822,-0.0015772739425301552,-0.0002381203230470419
1761509362921683200,6.38668310546875,-0.00030242535285651684,-0.0002639191225171089,0.0002173024695366621
1761509362941841200,6.406841064453125,0.000709734158590436,0.00104595348238945,-0.001367421355098486
1761509362961998000,6.426998046875,-0.0002560601569712162,0.00028543267399072647,0.0005184917245060205
1761509362982156000,6.447156005859375,-0.0008155574323609471,0.0007279664278030396,0.0013545840047299862
1761509363002312700,6.467312744140625,0.000544397858902812,0.000714404508471489,0.001555505208671093
1761509363022469600,6.4874697265625,-0.001656842534430325,-0.0013303067535161972,-0.0004017404280602932
1761509363042627600,6.507627685546875,0.0013949989806860685,0.0009878966957330704,-0.000922398641705513
1761509363062784800,6.52778466796875,0.0015693826135247946,0.00017258897423744202,0.00014048349112272263
1761509363082942700,6.547942626953125,0.000721251592040062,-0.000004730187356472015,-0.0004607981536537409
1761509363103099600,6.568099609375,-0.001594432396814227,0.0010227756574749947,-0.0005145994946360588
1761509363123257600,6.588257568359375,0.0005278296303004026,0.0011122524738311768,0.0004732203669846058
1761509363143414800,6.608414794921875,0.0008190718945115805,-0.001966566778719425,0.000920875696465373
1761509363163572500,6.628572509765625,0.0026351925916969776,0.0018869824707508087,0.0016593681648373604
1761509363183729700,6.648729736328125,-0.0012410477502271533,-0.005838949698954821,0.0005244347266852856
1761509363203887600,6.6688876953125,0.0013922026846557856,-0.00008223205804824829,-0.004107980523258448
1761509363224044500,6.68904443359375,0.00131040601991117,-0.000568978488445282,-0.001226993277668953
1761509363244201700,6.70920166015625,-0.002516274806112051,0.0002696104347705841,0.0005642164032906294
1761509363264359700,6.729359619140625,0.0015461414586752653,0.0013341065496206284,0.0018013373482972383
1761509363284516600,6.7495166015625,0.0005219744052737951,-0.0012137535959482193,-0.0023265217896550894
1761509363304674600,6.769674560546875,0.0005643090698868036,0.00007800105959177017,-0.0017062861006706953
1761509363324831700,6.789831787109375,-0.0014529519248753786,0.001682443544268608,0.00006889365613460541
1761509363344989400,6.809989501953125,0.0006565037183463573,0.00167815200984478,-0.0010831111576408148
1761509363365146600,6.830146728515625,-0.0004417843883857131,-0.0005670404061675072,-0.0002851500175893307
1761509363385304600,6.8503046875,0.00032393564470112324,-0.00021572038531303406,0.000611928291618824
1761509363405461500,6.87046142578125,0.001156551530584693,-0.00047513656318187714,0.0006515709683299065
1761509363425619700,6.89061962890625,-0.0010069108102470636,-0.0004947148263454437,0.003265066770836711
1761509363445776600,6.910776611328125,0.00035868515260517597,-0.0005689840763807297,-0.002146645914763212
1761509363465934600,6.9309345703125,0.003331536427140236,0.0013258038088679314,-0.002206367440521717
1761509363486091500,6.951091552734375,-0.00021028739865869284,0.00007644575089216232,-0.0010483067017048597
1761509363506248700,6.971248779296875,-0.0005379156209528446,-0.0016210926696658134,-0.002893171738833189
1761509363526406400,6.991406494140625,0.0009843765292316675,0.00041933823376893997,-0.0007840467151254416
1761509363546563600,7.0115634765625,0.0011717751622200012,0.0006484789773821831,-0.0007517149206250906
1761509363566721800,7.0317216796875,0.0009846175089478493,-0.0014858422800898552,-0.00020673731341958046
1761509363586878500,7.05187841796875,-0.00020962371490895748,-0.002906233072280884,-0.00012988876551389694
1761509363607036700,7.07203662109375,-0.000164080411195755,0.000023346394300460815,0.000917844008654356
1761509363627193600,7.092193603515625,-0.0013640308752655983,0.0016306545585393906,-0.00012162653729319572
1761509363647351800,7.112351806640625,-0.003258403157815337,0.0017679044976830482,0.0007244993466883898
1761509363667508500,7.132508544921875,0.0014724461361765862,0.002963012084364891,0.0005655838176608086
1761509363687666700,7.152666748046875,-0.002538908738642931,0.0007337182760238647,0.0015417002141475677
1761509363707823600,7.17282373046875,0.0014258632436394691,0.0013343589380383492,-0.0021295284386724234
1761509363727981600,7.192981689453125,0.00013198214583098888,-0.001033836044371128,-0.00021935882978141308
1761509363748138800,7.213138671875,-0.00007483293302357197,0.0016436344012618065,-0.0006190761923789978
1761509363768295400,7.23329541015625,0.00042431196197867393,-0.00038984790444374084,0.000693127978593111
1761509363788453600,7.25345361328125,-0.0013205658178776503,-0.0022395020350813866,0.002584929810836911
1761509363808610600,7.273610595703125,-0.00036698963958770037,-0.00012728385627269745,0.0009183024521917105
1761509363828768800,7.293768798828125,0.0010133034083992243,0.0006749331951141357,0.0025195053312927485
1761509363848925700,7.31392578125,0.0011914034839719534,-0.0005673151463270187,-0.001141226151958108
1761509363869083600,7.334083740234375,0.0009966471698135138,0.000019004568457603455,-0.0002541674766689539
1761509363889240800,7.35424072265625,0.0026288372464478016,-0.001599217765033245,0.0009120383765548468
1761509363909398500,7.3743984375,0.000506845535710454,-0.0013645878061652184,0.0005370981525629759
1761509363929555700,7.3945556640625,-0.0013040307676419616,-0.0008886847645044327,0.0011623767204582691
1761509363949713700,7.414713623046875,0.0004445465747267008,0.0016935132443904877,-0.001746835419908166
1761509363969870600,7.43487060546875,0.0005894149653613567,0.00006252061575651169,0.0007575252093374729
1761509363990027300,7.45502734375,0.00190081843174994,0.00047272350639104843,-0.0022850497625768185
1761509364010185200,7.475185302734375,-0.00005814270116388798,-0.0007871277630329132,0.00012595229782164097
1761509364030342100,7.495342041015625,-0.001261059078387916,0.0013134041801095009,0.0009022043086588383
1761509364050500000,7.5155,-0.001815842930227518,0.002117595635354519,-0.0018601689953356981
1761509364070657300,7.5356572265625,0.0005068869795650244,-0.000005576759576797485,-0.002071274211630225
1761509364090815200,7.555815185546875,0.0014166864566504955,-0.0024088099598884583,0.0013592406176030636
1761509364110972200,7.57597216796875,0.0010336716659367085,-0.00038505811244249344,0.0011433572508394718
1761509364131130000,7.596130126953125,0.0025654069613665342,-0.002109791152179241,0.0010540841612964869
1761509364151287300,7.616287353515625,0.000654259929433465,0.0008725188672542572,-0.0005973016377538443
1761509364171445200,7.6364453125,-0.0022407262586057186,0.0013691512867808342,0.0007431104313582182
1761509364191602200,7.656602294921875,0.0005924415308982134,-0.0005868077278137207,-0.0012807308230549097
1761509364211760400,7.676760498046875,-0.0007257435936480761,-0.0001673772931098938,0.001335920998826623
1761509364231917000,7.6969169921875,0.0008670841343700886,0.0003007110208272934,0.0006332655902951956
1761509364252074200,7.71707421875,0.0004391716793179512,0.0023364853113889694,-0.00014832708984613419
1761509364272232200,7.737232177734375,-0.0025622479151934385,-0.0011758580803871155,-0.0009373051580041647
1761509364292389000,7.75738916015625,-0.00018931366503238678,-0.003032309003174305,0.00013956241309642792
1761509364312547300,7.77754736328125,0.00018442119471728802,-0.000017841346561908722,-0.001844773069024086
1761509364332704300,7.797704345703125,-0.00035286496859043837,0.00006508082151412964,-0.0003404407761991024
1761509364352862200,7.8178623046875,0.0003036041744053364,-0.0020324252545833588,0.0007762224413454533
1761509364373019100,7.83801904296875,-0.0009905595798045397,0.003475065343081951,-0.0012589222751557827
1761509364393177300,7.85817724609375,-0.001711437595076859,0.0015395786613225937,-0.001411754870787263
1761509364413334000,7.878333984375,0.0013707922771573067,-0.00013431161642074585,-0.000028565293177962303
1761509364433492200,7.8984921875,0.0012089093215763569,-0.0008196551352739334,0.0018977246945723891
1761509364453649400,7.9186494140625,0.0010410160757601261,0.0003387453034520149,0.0025193821638822556
1761509364473806000,7.93880615234375,0.0007810834795236588,-0.0008605476468801498,-0.0004911194555461407
1761509364493964300,7.95896435546875,-0.00039027235470712185,0.002179962582886219,0.0007335632108151913
1761509364514121200,7.979121337890625,0.00012696324847638607,0.00004884693771600723,0.0016241006087511778
1761509364534279200,7.999279052734375,-0.003620960284024477,0.00006006751209497452,0.001584038371220231
1761509364554435300,8.019435302734376,0.000015055295079946518,0.00035561714321374893,0.0017747165402397513
1761509364574592000,8.039592041015625,-0.000291490345261991,-0.0008696094155311584,0.00137613108381629
1761509364594750200,8.059750244140625,-0.0009570777183398604,-0.00035187043249607086,-0.0007369192317128181
1761509364614907400,8.079907470703125,-0.000040394486859440804,-0.001642155461013317,0.0007317964918911457
1761509364635064000,8.10006396484375,-0.000017829472199082375,0.0015298454090952873,0.0013712772633880377
1761509364655222300,8.12022216796875,0.0056263115257024765,0.00037313811480998993,-0.0004284004680812359
1761509364675379200,8.140379150390626,-0.00231245718896389,0.0010889507830142975,-0.0010123979300260544
1761509364695537400,8.160537353515625,0.00013531767763197422,-0.00035727396607398987,-0.0008971914649009705
1761509364715694000,8.180694091796875,-0.0007809259695932269,0.00023039523512125015,-0.00032255356200039387
1761509364735852300,8.200852294921875,-0.0011240644380450249,-0.0007087429985404015,0.00041253608651459217
1761509364756009200,8.22100927734375,0.00010519800707697868,0.0016186041757464409,-0.0015779267996549606
1761509364776167200,8.241167236328126,0.0005600238218903542,0.0009863702580332756,-0.0005970823112875223
1761509364796324400,8.261324462890625,-0.00029053923208266497,-0.0009704884141683578,0.0003376617096364498
1761509364816482300,8.281482421875,-0.0003254055045545101,0.0020613716915249825,0.000553846126422286
1761509364836639200,8.30163916015625,0.0006843951996415854,0.0006215032190084457,0.0013470363337546587
1761509364856796200,8.321796142578124,-0.0011096857488155365,-0.002401784062385559,-0.00005176872946321964
1761509364876954400,8.341954345703124,0.001140026142820716,0.0009882990270853043,-0.003402192145586014
1761509364897111300,8.362111328125,0.0010378810111433268,-0.00009803939610719681,-0.00027254526503384113
1761509364917269200,8.382269287109375,-0.000566443195566535,-0.00008759833872318268,-0.0015566365327686071
1761509364937426400,8.402426513671875,-0.0010868057142943144,-0.0002263253554701805,-0.0008832230232656002
1761509364957586200,8.422586181640625,-0.0009785048896446824,0.0007071318104863167,-0.0009682606905698776
1761509364977744100,8.442744140625,-0.000833801575936377,-0.00027250777930021286,0.00025490717962384224
1761509364997901800,8.46290185546875,-0.0019283468136563897,-0.000025041401386260986,0.000881923595443368
1761509365018059800,8.483059814453124,0.0006791760679334402,0.0024764863774180412,0.0010707757901400328
1761509365038216700,8.503216796875,0.0005682774353772402,-0.0012663314118981361,-0.0002636148128658533
1761509365058374000,8.523373779296875,0.00006931577809154987,-0.0008879108354449272,-0.0003053019754588604
1761509365078531800,8.54353173828125,-0.0003673493629321456,0.00011615362018346786,-0.002691020490601659
1761509365098688800,8.563688720703125,-0.0011216095881536603,0.00060224998742342,-0.001050915103405714
1761509365118847000,8.583846923828125,0.0004755833651870489,-0.00019429530948400497,-0.0011323054786771536
1761509365139003600,8.604003662109376,0.0009962641634047031,-0.00020889472216367722,0.0005805587861686945
1761509365159161900,8.624161865234376,0.0007199936080724001,-0.00019040610641241074,-0.0009867397602647543
1761509365179318800,8.64431884765625,0.003641956252977252,0.00039138831198215485,-0.002205164637416601
1761509365199476700,8.664476806640625,-0.00186113640666008,-0.0017016716301441193,0.0008149596396833658
1761509365219634000,8.684634033203125,0.0017229958903044462,0.0013853488489985466,-0.0004074831958860159
1761509365239791900,8.7047919921875,-0.0009878933196887374,-0.00024305377155542374,0.002059411723166704
1761509365259948800,8.72494873046875,-0.0004850029945373535,0.0013376874849200249,-0.001016597030684352
1761509365280105700,8.745105712890625,-0.0018978221341967583,0.0001606503501534462,-0.001726576592773199
1761509365300264000,8.765263916015625,0.001516047865152359,-0.00018838606774806976,-0.0009217902552336454
1761509365320420900,8.7854208984375,-0.00002687796950340271,-0.0018665734678506851,0.000360934529453516
1761509365340578800,8.805578857421875,0.0007528422866016626,-0.0009147496894001961,0.0005644585471600294
1761509365360736000,8.825736083984374,-0.00017192168161273003,0.00033882446587085724,-0.00019147992134094238
1761509365380894000,8.84589404296875,-0.0018548478838056326,-0.0006272289901971817,0.0008654771372675896
1761509365401051000,8.86605078125,-0.0015834934310987592,0.0020914431661367416,0.0037615171167999506
1761509365421208800,8.886208740234375,-0.0016646229196339846,0.0036972099915146828,0.0013981685042381287
1761509365441365800,8.90636572265625,0.002592370379716158,-0.000530005432665348,0.0013623107224702835
1761509365461523700,8.926523681640624,0.0006381371058523655,-0.00036716926842927933,0.0005671705584973097
1761509365481681000,8.946680908203126,0.00035526417195796967,0.000246233306825161,0.0035225884057581425
1761509365501838800,8.9668388671875,0.0002809143625199795,0.0006168624386191368,0.000020142877474427223
1761509365521995800,8.986995849609375,-0.0012313001789152622,-0.0006484240293502808,0.0009374665096402168
1761509365542153000,9.007153076171875,-0.0013298760168254375,0.0017879093065857887,0.0005983144510537386
1761509365562311000,9.027310791015625,-0.0011736187152564526,0.0008316207677125931,0.00026400433853268623
1761509365582467800,9.0474677734375,0.00043193064630031586,-0.0010344590991735458,-0.00033155991695821285
1761509365602625800,9.067625732421876,0.0022842860780656338,0.0009758966043591499,-0.0010552064049988985
1761509365622783000,9.087782958984375,-0.0005308862309902906,-0.001558944582939148,-0.0008127258624881506
1761509365642940700,9.107940673828125,-0.0014618434943258762,-0.0019973842427134514,-0.0002421257086098194
1761509365663097900,9.128097900390625,-0.0017881946405395865,0.0010079899802803993,0.001801535952836275
1761509365683255800,9.148255859375,-0.0008030880708247423,-0.0013714088127017021,0.0007940351497381926
1761509365703412700,9.168412841796876,-0.000720977783203125,0.0008691735565662384,-0.00020813848823308945
1761509365723570000,9.18856982421875,-0.0010364808840677142,-0.0015757298097014427,-0.0008264018688350916
1761509365743727900,9.208727783203125,-0.0014191094087436795,-0.0013954117894172668,0.0011463561095297337
1761509365763884800,9.228884765625,-0.0018642753129824996,0.0016404977068305016,-0.0009911686647683382
1761509365784042800,9.249042724609374,0.00000616908073425293,-0.0003240937367081642,0.000812687911093235
1761509365804200000,9.269199951171874,-0.0020743082277476788,-0.002461761236190796,0.00028939638286828995
1761509365824357600,9.289357666015626,-0.0023454278707504272,0.0014686733484268188,-0.0011394692119210958
1761509365844514800,9.309514892578125,0.0005893779452890158,-0.0016669686883687973,0.0009917193092405796
1761509365864673000,9.329673095703125,0.0012653195299208164,0.0009084241464734077,-0.0010958353523164988
1761509365884829700,9.34982958984375,0.0013603067491203547,0.0002820715308189392,0.001091859070584178
1761509365904988000,9.36998779296875,0.00008497433736920357,-0.0003370335325598717,-0.0017232329118996859
1761509365925144800,9.390144775390626,0.0002762540243566036,-0.0007987907156348228,-0.0009324566926807165
1761509365945301800,9.4103017578125,0.0007943105883896351,0.00211968831717968,-0.0023803345393389463
1761509365965459700,9.430459716796875,0.000288219191133976,0.0002365289255976677,0.0017592597287148237
1761509365985617000,9.450616943359375,0.002002711407840252,0.0004476010799407959,0.0004306812770664692
1761509366005774800,9.47077490234375,-0.0023034997284412384,0.0009469687938690186,-0.00016185594722628593
1761509366025931800,9.490931884765626,0.001970722107216716,0.0025752484798431396,-0.00043791462667286396
1761509366046090000,9.511090087890626,0.0005661472678184509,0.0010669287294149399,0.0001967728603631258
1761509366066246700,9.53124658203125,0.0015164520591497421,-0.000017420388758182526,0.0006850897334516048
1761509366086404900,9.55140478515625,0.00005111703649163246,0.0007165707647800446,0.0017138548428192735
1761509366106561800,9.571561767578125,0.00019085104577243328,0.00016153138130903244,0.00204683979973197
1761509366126720000,9.591719970703124,0.0010149129666388035,-0.0002891998738050461,0.002179505303502083
1761509366146877000,9.611876953125,0.0013209166936576366,0.00012743938714265823,0.0016153586329892278
1761509366167033900,9.632033935546875,-0.0010151934111490846,-0.0005143964663147926,0.0009136341977864504
1761509366187191800,9.65219189453125,-0.000039735808968544006,0.0011607958003878593,0.0027446765452623367
1761509366207348700,9.6723486328125,-0.0009775442304089665,-0.0002676118165254593,0.0022532932925969362
1761509366227507000,9.6925068359375,-0.0010843980126082897,0.002049725502729416,0.0005943707656115294
1761509366247663600,9.71266357421875,0.001027887687087059,0.00034390389919281006,0.0002785162068903446
1761509366267821800,9.73282177734375,0.0035508060827851295,-0.00093853659927845,0.00014900905080139637
1761509366287979000,9.75297900390625,-0.00020336825400590897,-0.00011194124817848206,0.0016778232529759407
1761509366308137000,9.773136962890625,0.0007954956963658333,0.0017079487442970276,-0.0010599065572023392
1761509366328294000,9.7932939453125,-0.0012985276989638805,-0.001603604294359684,0.00006244424730539322
1761509366348450800,9.813450927734374,0.00022532138973474503,0.0014230525121092796,0.0017321405466645956
1761509366368609000,9.833609130859376,0.0007134198676794767,-0.0006837723776698112,-0.000933885108679533
1761509366388765700,9.853765625,0.0008984601590782404,0.0019590165466070175,-0.0011187833733856678
1761509366408924000,9.873923828125,-0.0010925778187811375,0.0018468182533979416,0.00017488538287580013
1761509366429080800,9.894080810546875,-0.00044432247523218393,0.000815127044916153,-0.000580628402531147
1761509366449238800,9.91423876953125,0.00022185174748301506,-0.0009332075715065002,0.00021178065799176693
1761509366469396000,9.93439599609375,-0.00014317617751657963,0.0007958076894283295,-0.001977248815819621
1761509366489554000,9.954553955078126,-0.0006810578051954508,-0.0008313367143273354,-0.00025380379520356655
1761509366509710800,9.9747109375,-0.0009792452910915017,0.0017547719180583954,0.00016900617629289627
1761509366529868800,9.994868896484375,0.0007516909390687943,-0.00046382565051317215,-0.00022966135293245316
1761509366550026000,10.01502587890625,0.002215913962572813,-0.0022673290222883224,0.002371016424149275
1761509366570183000,10.035182861328124,0.00039636134169995785,0.0008087558671832085,-0.002123202895745635
1761509366590340900,10.0553408203125,-0.0004421648336574435,0.00020872708410024643,0.001845268765464425
1761509366610498000,10.075498046875,-0.00006519071757793427,0.0018340740352869034,-0.000051337992772459984
1761509366630655700,10.09565576171875,-0.0016310174250975251,-0.0006531728431582451,0.001162559725344181
1761509366650813000,10.11581298828125,0.002168788341805339,-0.00030795857310295105,0.0012319381348788738
1761509366670971000,10.135970947265625,-0.00011628377251327038,0.001557081937789917,0.0006349983159452677
1761509366691127800,10.1561279296875,0.002271684817969799,-0.002079082652926445,0.0010631917975842953
1761509366711285800,10.17628564453125,-0.002695797011256218,-0.0010843109339475632,-0.00006132503040134907
1761509366731443000,10.19644287109375,-0.0012616728199645877,0.001262773759663105,0.001240832032635808
1761509366751599900,10.216599853515625,0.0003060696180909872,0.0005517285317182541,-0.00009031035006046295
1761509366771757800,10.2367578125,0.0013248329050838947,0.0004613017663359642,-0.0013483723159879446
1761509366791915000,10.2569150390625,-0.0005559256533160806,0.00044957268983125687,0.0006402067374438047
1761509366812072700,10.27707275390625,0.0010811812244355679,0.0011468660086393356,-0.0022393532563000917
1761509366832230000,10.29722998046875,-0.001608219463378191,-0.000330338254570961,0.0020135934464633465
1761509366852387800,10.317387939453125,-0.001622136333025992,-0.0008115274831652641,-0.000413242494687438
1761509366872544800,10.337544677734375,-0.0013773121172562242,0.0010664025321602821,0.0004825915675610304
1761509366892702700,10.35770263671875,-0.0007371313404291868,-0.001759885810315609,-0.0010148922447115183
1761509366912860000,10.37785986328125,-0.000025141052901744843,-0.0014607254415750504,0.0025561731308698654
1761509366933017900,10.398017822265626,-0.00022008433006703854,-0.0010146461427211761,0.0003966158255934715
1761509366953174800,10.4181748046875,0.0015548963565379381,-0.00012246612459421158,0.0009491874370723963
1761509366973332000,10.43833203125,-0.001232968526892364,-0.000034236349165439606,-0.0005884072743356228
1761509366993491000,10.458490966796875,-0.0005738920299336314,0.0015437286347150803,0.0004433507565408945
1761509367013648000,10.47864794921875,0.0014818345662206411,0.0010070409625768661,0.00038292095996439457
1761509367033805800,10.498805908203124,0.0007820816244930029,0.0030891019850969315,0.000515808816999197
1761509367053963000,10.518962890625,-0.00039312755689024925,0.00007697567343711853,-0.0026181561406701803
1761509367074120700,10.53912060546875,-0.0009034910472109914,0.0007492108270525932,-0.001399478642269969
1761509367094278000,10.55927783203125,-0.0033366642892360687,-0.001995747908949852,-0.0019956929609179497
1761509367114435800,10.579435791015625,0.0010448528919368982,0.0006501823663711548,0.001698255306109786
1761509367134592800,10.5995927734375,-0.0015223347581923008,0.001538303680717945,0.00044825533404946327
1761509367154750000,10.61975,-0.0005446365103125572,0.0020721331238746643,-0.00013901805505156517
1761509367174908000,10.639907958984375,-0.0018127934308722615,0.0006966656073927879,-0.001307555241510272
1761509367195064800,10.66006494140625,0.00048772431910037994,0.00008014682680368423,-0.00008664559572935104
1761509367215222800,10.680222900390625,0.0033319799695163965,0.006065843626856804,0.002470490988343954
1761509367235380000,10.7003798828125,0.0006000758148729801,0.0315018892288208,0.02890520542860031
1761509367255537700,10.72053759765625,-0.0023458448704332113,0.011339548043906689,0.024844763800501823
1761509367275694800,10.74069482421875,0.0006367287132889032,0.020633090287446976,0.01741703599691391
1761509367295852800,10.760852783203125,-0.0013269521296024323,0.005781498737633228,0.013603371568024158
1761509367316009700,10.781009765625,0.0008321385830640793,-0.004631813615560532,-0.00009053410030901432
1761509367336167000,10.8011669921875,0.0005024729762226343,-0.02644280344247818,-0.0156842153519392
1761509367356324900,10.821324951171874,-0.0000035278499126434326,-0.03140324354171753,-0.023137766867876053
1761509367376481800,10.841481689453126,0.002025866648182273,-0.013066745363175869,-0.005236257798969746
