time,seconds_elapsed,z,y,x
1761505873622773000,0.07577294921875,0.2863315547943115,-0.6719049895852803,-0.0068218819092959165
1761505873642929200,0.09592919921875,0.3349696212351322,-0.6592611965894699,0.08361161853596567
1761505873663085000,0.1160849609375,0.38733985994160175,-0.634874066568911,0.18314239847660063
1761505873683241200,0.1362412109375,0.3300964622408151,-0.6573015869542956,0.17238478455357253
1761505873703397000,0.156397216796875,0.2779670465528965,-0.6611341508544981,0.2690755187626928
1761505873723554000,0.176553955078125,0.2709861016243696,-0.6462270891018211,0.0981059347692877
1761505873743710000,0.1967099609375,0.11265899545252323,-0.6228431447744369,0.2666958570845425
1761505873763865900,0.216865966796875,0.1521083777874708,-0.6119445880107581,0.18325725702792406
1761505873784022000,0.23702197265625,0.0010503858357667922,-0.6040615796759724,0.17289733718559144
1761505873804178000,0.257177978515625,-0.030710780084133145,-0.5835049677290022,0.07122304241023958
1761505873824333800,0.277333740234375,-0.08512684540450573,-0.5731636064566672,0.06763144765906036
1761505873844491000,0.297490966796875,-0.1337257488787174,-0.5927037348374724,0.036163784793019293
1761505873864647000,0.31764697265625,-0.12236848856210708,-0.6900209303818643,0.002246390687301755
1761505873884803000,0.337802978515625,-0.18207155437469483,-0.7676740789048373,0.05131707639172673
1761505873904959000,0.357958984375,-0.2517950789421797,-0.9053378978848456,0.15363324926719069
1761505873925115100,0.378115234375,-0.4531166927099228,-1.0569069080986082,0.19346257083043455
1761505873945271000,0.39827099609375,-0.6227011059552431,-0.8963131721690296,0.1607190428096801
1761505873965428200,0.41842822265625,-0.6312286958038806,-0.6775681299135089,0.0026783523637801407
1761505873985584400,0.43858447265625,-0.5328758736014366,-0.3923129721790552,-0.2594927938379347
1761505874005740300,0.458740234375,-0.3553051377773285,-0.20436331955119966,-0.45474283260703086
1761505874025896200,0.478896240234375,-0.19492402168512343,-0.026993366996198892,-0.5095213014990091
1761505874046052000,0.499052001953125,-0.16847089904546736,-0.07528378904312849,-0.4812641981773078
1761505874066209000,0.519208984375,-0.10525544119775294,-0.09708952426835894,-0.49730844726637
1761505874086365200,0.539365234375,-0.03328559900820255,-0.10400208013579249,-0.4465421366252005
1761505874106521000,0.55952099609375,0.018790040665864944,0.02423413141593337,-0.4818249007999897
1761505874126677000,0.579677001953125,0.06986380982100963,0.14741291344761848,-0.49013592528849836
1761505874146833200,0.599833251953125,0.07249649641215801,0.16248218002468345,-0.47388154058009385
1761505874166989000,0.619989013671875,-0.05092822320461273,0.1469298061057925,-0.3625964638292789
1761505874187146200,0.640146240234375,-0.03396013726890087,0.23516893831193444,-0.2863653109334409
1761505874207302100,0.66030224609375,-0.021834815189242362,0.29871289746165275,-0.18757000566050408
1761505874227458300,0.680458251953125,-0.04210778788924217,0.2984656447023153,-0.07118424476981162
1761505874247614200,0.7006142578125,-0.12685820119678973,0.27050094845592976,0.03383066567033529
1761505874267770000,0.72077001953125,-0.2289361814022064,0.2624251940280199,0.10260931060314178
1761505874287926300,0.74092626953125,-0.2162701765745878,0.2732306656807661,0.15384703814834355
1761505874308083000,0.7610830078125,-0.2654489257633686,0.36714579769670963,0.14418153031095862
1761505874328239000,0.781239013671875,-0.24955928271412847,0.4682821131378412,0.1646015102662146
1761505874348395000,0.80139501953125,-0.18963994380235671,0.5717065395161509,0.1430668470673263
1761505874368551200,0.82155126953125,-0.10627426285147666,0.6876067088469863,0.12894728243052958
1761505874388707000,0.84170703125,0.05346446368396282,0.7324743168383836,0.1659732370108366
1761505874408864300,0.8618642578125,0.1533107393145561,0.7316808283731341,0.21157997293174266
1761505874429020200,0.882020263671875,0.2910159132182598,0.699891897663474,0.31124475451558825
1761505874449176000,0.902176025390625,0.3442056516140699,0.6205053494766354,0.4262827540591359
1761505874469332200,0.922332275390625,0.29776772556602954,0.5485296620681882,0.52935383695513
1761505874489488100,0.942488037109375,0.2705786898672581,0.4498939312711358,0.6031554246164857
1761505874509644000,0.96264404296875,0.22824644557237625,0.36692251033484935,0.6646643708072603
1761505874529801200,0.98280126953125,0.08007949888706206,0.3573179389044642,0.6167721542976796
1761505874549957000,1.00295703125,-0.07169277881383895,0.23179478570371864,0.6105164549037814
1761505874570113300,1.02311328125,-0.16400865893959998,0.13509849853664635,0.5565871501870453
1761505874590269200,1.043269287109375,-0.36137130594849587,0.14052812236994505,0.4574254958197474
1761505874610425300,1.06342529296875,-0.46547056284844873,0.22549568555951116,0.2803562797769904
1761505874630581200,1.083581298828125,-0.35842005492746826,0.37143414254039525,0.04424173117801547
1761505874650738200,1.10373828125,-0.12792962982058526,0.4622676751539111,-0.1402963594406843
1761505874670894000,1.12389404296875,0.08359715161919594,0.25848230162113905,-0.18980682480186223
1761505874691050000,1.144050048828125,0.20774375576972962,0.12986439727544785,-0.06348799117878079
1761505874711206100,1.1642060546875,0.3403413774013519,-0.1362321787416935,0.14255349071770906
1761505874731362000,1.184362060546875,0.4728483981400728,-0.35053923854976893,0.3522181315474212
1761505874751518200,1.204518310546875,0.5466372724503279,-0.5332414920434355,0.4609302890703082
1761505874771675100,1.224675048828125,0.4749707971215248,-0.6293123407885431,0.577120381258428
1761505874791831300,1.244831298828125,0.4549672890126705,-0.6405003820180892,0.7911717127397656
1761505874811987200,1.2649873046875,0.22070845128297806,-0.6757926446735859,0.6741546682082116
1761505874832143000,1.28514306640625,-0.0946001916706562,-0.6416410764858126,0.4667744850538671
1761505874852299300,1.30529931640625,-0.22271336136460304,-0.5799342696353793,0.33326252505630255
1761505874872456200,1.325456298828125,-0.21539806991517543,-0.5258864531055093,0.2736357393503189
1761505874892612000,1.345612060546875,-0.21440204461514947,-0.4986443720452487,0.20249533372223377
1761505874912768000,1.36576806640625,-0.10101122775673865,-0.48121641351282596,0.18950126598402856
1761505874932924200,1.385924072265625,-0.02934650599360466,-0.521346617718786,0.19122677460238335
1761505874953080000,1.406080078125,0.10473229410648345,-0.5867223223403096,0.1692285855449736
1761505874973236000,1.426236083984375,0.15127894122600555,-0.6751080234102904,0.19660788311883806
1761505874993393000,1.446392822265625,0.22560674471855163,-0.731890817862004,0.21183087895289063
1761505875013548800,1.466548828125,0.2554886727631092,-0.8032049726217985,0.2732110841974616
1761505875033705000,1.486705078125,0.23112112422585487,-0.8593782568730414,0.3052481444492936
1761505875053860900,1.50686083984375,0.1197708732843399,-0.9158201289325952,0.42259105993434787
1761505875074016800,1.527016845703125,0.04763035070300102,-0.870213685272634,0.4576354853086173
1761505875094173000,1.5471728515625,-0.10837094286978244,-0.8321179095037281,0.5235711619004607
1761505875114329900,1.567329833984375,-0.26153087553679943,-0.7066827268473803,0.5189212902680039
1761505875134486000,1.587486083984375,-0.34883097332715984,-0.5598633953787386,0.44861923516020175
1761505875154642000,1.607641845703125,-0.29854806228876113,-0.3400321653217077,0.3783328160129487
1761505875174798000,1.627798095703125,-0.2916922050446272,-0.41974224637448787,0.49401627385318275
1761505875194954000,1.6479541015625,-0.34732056876420975,-0.48455900193899865,0.6608801760934293
1761505875215110000,1.66810986328125,-0.5303858103513718,-0.5061056478366256,0.7634453552938997
1761505875235266800,1.688266845703125,-0.5635802239447831,-0.5083920052081347,0.6585545096248387
1761505875255422700,1.708422607421875,-0.6106926882535219,-0.2112549787610769,0.40037922812625765
1761505875275579000,1.728578857421875,-0.5774146880298853,0.04744008882790804,0.2825657725200057
1761505875295734800,1.74873486328125,-0.36273090386390683,0.3638251288414001,0.07284384854510426
1761505875315890700,1.768890625,-0.15259060834646224,0.5930091475248337,-0.05203603831604123
1761505875336047900,1.7890478515625,0.09871054959893226,0.6230979963183403,0.0052327860869467255
1761505875356203800,1.809203857421875,0.21734394328594206,0.5479162063449621,0.05953939968347549
1761505875376360000,1.82935986328125,0.31452363005578515,0.44827685146331786,0.17416911068707702
1761505875396515800,1.849515869140625,0.3387736896932125,0.4581003263413906,0.2644938169956207
1761505875416672000,1.869672119140625,0.3406839072287082,0.3846434604644775,0.28743337855637074
1761505875436828000,1.889827880859375,0.3166343385994434,0.3926066944286227,0.2216080304712057
1761505875456985000,1.909985107421875,0.2465308748036623,0.392391590373218,0.12316979500763117
1761505875477141000,1.93014111328125,0.19605331797599793,0.45885640540570016,0.061543432982265944
1761505875497297000,1.950296875,0.19818623835146426,0.5686828077808023,-0.013094313242286442
1761505875517453000,1.970453125,0.23133681280314922,0.7182751110941171,-0.09484152614586054
1761505875537609000,1.99060888671875,0.2379997778236866,0.7921642309084534,-0.08130531435497104
1761505875557766000,2.010765869140625,0.3185433870911598,0.8550529410198331,-0.10641469423547387
1761505875577921800,2.030921875,0.40358547682166096,0.8150143606200814,-0.13454809811227023
1761505875598078000,2.051077880859375,0.3968278192549944,0.7406465173780917,-0.05907046699747443
1761505875618233900,2.07123388671875,0.3649813131392002,0.5738610872015356,-0.028959333306923508
1761505875638389800,2.0913896484375,0.24184534733593463,0.4023334309339523,0.03467603045329452
1761505875658546000,2.1115458984375,0.17606091578304767,0.26631489494293925,0.12298778950423002
1761505875678702800,2.131702880859375,0.055613166150450706,0.1901879330739379,0.12666940062642096
1761505875698859000,2.15185888671875,-0.22061551230251789,0.20264701715260744,0.026479572255164383
1761505875719015000,2.172014892578125,-0.2973866172939539,0.4002516562238335,-0.23433307200968265
1761505875739170800,2.1921708984375,-0.17523907800614832,0.5910895776391029,-0.5007329418223351
1761505875759327000,2.212326904296875,0.07302899585366249,0.6304568346485495,-0.649112581410259
1761505875779484000,2.23248388671875,0.20887772823572157,0.5021221311584114,-0.43424598802328107
1761505875799640000,2.25264013671875,0.18364684086740016,0.11722674175947904,-0.10384776635691523
1761505875819796000,2.2727958984375,-0.025787352207303046,-0.3816109609007835,0.1417052033253014
1761505875839952000,2.292951904296875,-0.16419512142241,-0.6290554434180259,0.14884740323014556
1761505875860107800,2.313107666015625,-0.2816740843772888,-0.6861437966875732,0.04369337658025324
1761505875880263700,2.333263671875,-0.3315940073221922,-0.5522381611973047,-0.22149375644177197
1761505875900420900,2.3534208984375,-0.3594540741503238,-0.3481498591952026,-0.48619734373055395
1761505875920576800,2.37357666015625,-0.27736381996273995,-0.21033245708867906,-0.678276570443809
1761505875940733000,2.39373291015625,-0.26409926472008227,-0.22416604439094662,-0.7257515844546258
1761505875960888800,2.413888916015625,-0.19491466933488844,-0.3501192595720291,-0.6163611623439937
1761505875981044500,2.43404443359375,-0.10694178684949875,-0.529584284710139,-0.509094308258593
1761505876001201700,2.45420166015625,-0.03781564365327358,-0.6573907265424728,-0.3715446902427822
1761505876021357600,2.474357666015625,0.06142740538716316,-0.723364835448563,-0.3441230148319155
1761505876041513700,2.494513671875,0.16777122634351252,-0.827875157367438,-0.3832370277326554
1761505876061669600,2.514669677734375,0.17708675169944763,-0.8769367099173366,-0.32822453088909387
1761505876081825800,2.53482568359375,0.16092881310284138,-0.9441237017445265,-0.23752894544154404
1761505876101981700,2.554981689453125,0.17188859853446484,-0.9753234343893825,-0.14251491227298974
1761505876122138600,2.575138671875,0.09759586635529995,-1.0043665735222398,-0.003906652049720287
1761505876142294500,2.59529443359375,0.0736643711477518,-0.9502741871982813,0.015787205588072537
1761505876162450400,2.615450439453125,-0.08787000663280486,-0.8688133169554173,0.03065948828831315
1761505876182606600,2.635606689453125,-0.23956103579103946,-0.7968811764277517,0.012150894912332295
1761505876202762500,2.655762451171875,-0.4311515291392803,-0.7275498660482466,-0.0311985636010766
1761505876222919700,2.675919677734375,-0.6113765788644552,-0.5949640809848904,-0.0767461166806519
1761505876243075600,2.69607568359375,-0.7754822684377431,-0.5757207435935735,-0.13545710271596909
1761505876263231700,2.716231689453125,-0.9868494754016399,-0.6520422051213681,-0.11664645765349269
1761505876283387600,2.7363876953125,-1.1425205141067505,-0.6099073830947279,-0.1269337506510317
1761505876303543600,2.75654345703125,-1.2311977454692125,-0.673133800727874,-0.0856619751945138
1761505876323699700,2.77669970703125,-1.2899047859817743,-0.41064869320616126,-0.15028350044786928
1761505876343856600,2.796856689453125,-1.2832289614796637,-0.05383855769336223,-0.20856778550371527
1761505876364012800,2.8170126953125,-0.9339327087283134,0.30836466903463006,-0.3266543589629233
1761505876384168700,2.837168701171875,-0.5344792171448469,0.4912561614900827,-0.4589969829201698
1761505876404324600,2.85732470703125,-0.23840718958079812,0.5455138213783502,-0.45933279074579475
1761505876424480800,2.877480712890625,-0.08298691076636314,0.6304170871600508,-0.3348597311198711
1761505876444637400,2.897637451171875,0.08451251289844512,0.6487973779812455,-0.19451281053572891
1761505876464793600,2.917793701171875,0.3024403935521841,0.5789411669448018,-0.13978972509279847
1761505876484949500,2.937949462890625,0.3295142784386873,0.5986915770754218,0.017997575113922356
1761505876505105700,2.958105712890625,0.38664194080531594,0.6360419413045049,0.06271247676163912
1761505876525261600,2.978261474609375,0.44088323408067226,0.662276745018363,0.045497576458007095
1761505876545418800,2.998418701171875,0.3870014217674732,0.6761705380752683,0.10055866168364883
1761505876565574700,3.01857470703125,0.3058253598153591,0.7010577265724539,0.1733398202560842
1761505876585730600,3.03873046875,0.29135844304561614,0.7598489382371306,0.18508520310744642
1761505876605886700,3.05888671875,0.291813785597682,0.7982523186504841,0.18730360980927943
1761505876626042600,3.079042724609375,0.19877368285059926,0.7688982138723135,0.2417534312687814
1761505876646199800,3.09919970703125,0.1017541550785303,0.7288111181557178,0.2518732587449252
1761505876666355700,3.119355712890625,0.08511164783537388,0.6619324616253376,0.20170286817029118
1761505876686511900,3.139511962890625,0.05935410624444484,0.740355133216083,0.28958851076364517
1761505876706667800,3.159667724609375,0.1108516537696123,0.704949765574932,0.27577348203137514
1761505876726823700,3.17982373046875,0.1187555587619543,0.6582672171160578,0.343869843788445
1761505876746979800,3.199979736328125,0.13169336626827716,0.5557563984513283,0.48272272642254827
1761505876767136500,3.220136474609375,0.20349486615359783,0.4160360853329301,0.5662151024930179
1761505876787292700,3.240292724609375,0.09675415483415126,0.18623013535887,0.7482642989054322
1761505876807448600,3.260448486328125,-0.014875497570633887,-0.06139671798795461,0.8809107281148433
1761505876827604500,3.2806044921875,-0.14566811560690401,-0.22114771948307752,0.9282838891863823
1761505876847760600,3.3007607421875,-0.3085135759860277,-0.18683453099280595,0.7766467821724712
1761505876867917600,3.32091748046875,-0.30304245109856126,-0.007212123335897922,0.5481557141892611
1761505876888073700,3.34107373046875,-0.18691665631830692,0.27582652739286423,0.2772963076844811
1761505876908229600,3.361229736328125,-0.04050502886772155,0.485448059733212,0.03210749513953924
1761505876928385800,3.3813857421875,0.11781506304144859,0.5898273026183247,-0.12413885923549532
1761505876948541700,3.401541748046875,0.28047113832831383,0.5762243092015386,-0.09558686462044716
1761505876968699000,3.421698974609375,0.361091319963336,0.4203878508016467,0.013697539832442998
1761505876988854800,3.441854736328125,0.43129298343658445,0.21617460724562404,0.1332106389634311
1761505877009010700,3.4620107421875,0.47170916497707366,0.05561638102084398,0.18295637438520787
1761505877029166800,3.482166748046875,0.4888736502677202,-0.06220218915194273,0.23997502341941
1761505877049322800,3.50232275390625,0.5307569817513227,-0.14404489831924439,0.3406584805265069
1761505877069480000,3.52247998046875,0.5140718044102192,-0.30659809775352476,0.49512481961697336
1761505877089635800,3.5426357421875,0.445023987147212,-0.48330870961695904,0.6707553811587393
1761505877109792000,3.5627919921875,0.25885493432581425,-0.6860483734890818,0.7508598683565855
1761505877129948000,3.582947998046875,0.1223673195183277,-0.7617714307323098,0.7565551573887467
1761505877150103800,3.603103759765625,-0.16522504899203777,-0.7594245753452181,0.7243480012670159
1761505877170260000,3.623260009765625,-0.2634989607393741,-0.6483779835253953,0.6305543036736547
1761505877190417000,3.6434169921875,-0.3191676564693451,-0.44152737720310686,0.5616689834959805
1761505877210573000,3.663572998046875,-0.3198673291712999,-0.36445027500241994,0.44408203012198205
1761505877230729000,3.68372900390625,-0.2504173608481884,-0.3404758174359798,0.35511531429365273
1761505877250885000,3.703885009765625,-0.23019933320581912,-0.3374053239494562,0.3460753910087049
1761505877271041000,3.724041015625,-0.1888864950865507,-0.3842529998421669,0.36987200779020785
1761505877291197700,3.74419775390625,-0.09556114565730095,-0.5159025269687175,0.4297245650760829
1761505877311353900,3.764353759765625,-0.013064064234495161,-0.5898804941102862,0.47365883774012324
1761505877331509800,3.784509765625,-0.014746902754902839,-0.642518736103177,0.5777940427362919
1761505877351666000,3.804666015625,0.010169511836767196,-0.7122837617248297,0.6593067892968654
1761505877371821800,3.82482177734375,-0.0801391201198101,-0.851440303480625,0.8260856436021625
1761505877391979000,3.84497900390625,-0.18298808469772337,-0.8722863998934626,0.8421427521727979
1761505877412135000,3.865135009765625,-0.38448505503237246,-0.6769000213935971,0.7427831640806049
1761505877432290800,3.885290771484375,-0.38472120187580583,-0.32210283313840626,0.4521143837995827
1761505877452447000,3.905447021484375,-0.2419295184880495,0.02832417720854282,0.21995492950193582
1761505877472603000,3.925602783203125,-0.08742576999664306,0.20807225707173346,0.08811316773891449
1761505877492760000,3.945760009765625,-0.08079027750492096,0.23599399095922707,0.21893223539069293
1761505877512916000,3.965916015625,-0.18237082958221434,0.1630535501718521,0.40985345117524263
1761505877533072000,3.98607177734375,-0.32465982414484024,0.062382514154911035,0.4457484289642423
1761505877553227800,4.006227783203125,-0.39048049605488777,0.07789455606341361,0.3708081195965409
1761505877573382000,4.0263818359375,-0.4570464333742857,0.21284633960574864,0.224610134896636
1761505877593537800,4.046537841796875,-0.447137033778429,0.3714063777506351,0.04870645550191402
1761505877613694000,4.06669384765625,-0.35969372812509537,0.5046732769459485,-0.08080372150838375
1761505877633851000,4.086850830078125,-0.19086217907369135,0.5601031954839826,-0.14434665774479508
1761505877654007000,4.107007080078125,-0.02736614583134651,0.5970823883131146,-0.09084748807363212
1761505877674163000,4.127162841796875,0.1517073957711458,0.6682654640391469,-0.03214380856193602
1761505877694319000,4.147319091796875,0.3230050426751375,0.7181874328106641,-0.008276683827489613
1761505877714475000,4.16747509765625,0.4469757057368755,0.6779691119298339,0.024238953721523283
1761505877734631700,4.187631591796875,0.4049351378649473,0.6300353943660855,0.0344113151025027
1761505877754787800,4.207787841796875,0.3020271365761757,0.6627896629765629,0.06588043927326798
1761505877774943700,4.22794384765625,0.224766786763072,0.7063771680295466,-0.011535393362492322
1761505877795100000,4.248099853515625,0.17730477836430072,0.8302855795100331,-0.22449344971440732
1761505877815255800,4.268255859375,0.1827349867194891,0.9635688453182577,-0.42683410433158275
1761505877835413000,4.2884130859375,0.20918694031536578,0.9639400167182087,-0.548405524231866
1761505877855569000,4.30856884765625,0.19447335530817508,0.818224847099185,-0.500321876803413
1761505877875724800,4.328724853515625,0.16260639092624188,0.5413572862207889,-0.31118922493606804
1761505877895881000,4.348880859375,0.060956280744075775,0.2985492313325405,-0.11526099464446306
1761505877916036900,4.369036865234375,-0.06940203752815723,0.25514000545591115,-0.11647424289174377
1761505877936194000,4.389194091796875,-0.33500235446095467,0.37542116634994743,-0.27825996508486567
1761505877956350000,4.409349853515625,-0.3560878125876188,0.5511182172566652,-0.56392640703395
1761505877976506000,4.429506103515625,-0.3211515237629413,0.7003679907426238,-0.7458717777457088
1761505877996664300,4.449664306640625,-0.200497437903285,0.8044771845147013,-0.7647285269722343
1761505878016820200,4.4698203125,-0.12598609453737736,0.722199298800528,-0.601603226738423
1761505878036976400,4.489976318359375,-0.12825462399125098,0.48863282724916934,-0.3611401275411248
1761505878057132300,4.51013232421875,-0.2486041739463806,0.1265223933711648,-0.13429163913317024
1761505878077289200,4.530289306640625,-0.3474626075834036,-0.13877835609316824,-0.006691387397423386
1761505878097445400,4.5504453125,-0.4390151021212339,-0.2682730432733893,-0.00307158946506679
1761505878117601300,4.570601318359375,-0.40516777757704253,-0.2320326861128211,-0.05473707743566483
1761505878137757200,4.590757080078125,-0.31546120316684245,-0.1055345504000783,-0.11005038385670632
1761505878157913000,4.6109130859375,-0.187604638582468,-0.06432634169906377,-0.10794749329332262
1761505878178070300,4.6310703125,-0.12268062325119972,-0.10020108041763305,-0.03775602242052555
1761505878198226200,4.65122607421875,-0.060471127575635907,-0.20933599339723585,0.10624781323596834
1761505878218382300,4.67138232421875,-0.08625731073915958,-0.3474716676726937,0.2224410837618634
1761505878238538200,4.691538330078125,-0.09722761756479739,-0.4189277151212096,0.2432393589776009
1761505878258694100,4.711694091796875,-0.07997603851258754,-0.4096843782186508,0.17888039365056901
1761505878278851300,4.731851318359375,-0.017083821269869803,-0.4467205619320273,0.0689258348511532
1761505878299007200,4.75200732421875,0.046940030351281165,-0.5407721798092127,0.032709260424971576
1761505878319163400,4.772163330078125,0.08169979356527328,-0.6464046376258135,0.0027169673411175607
1761505878339319300,4.7923193359375,0.07662614356279372,-0.6874567789822816,-0.04248232029005885
1761505878359475500,4.812475341796875,0.07301321376264094,-0.7013382970795035,-0.11135028747413307
1761505878379631400,4.83263134765625,0.05284077882766723,-0.6560635695919395,-0.20201821772977707
1761505878399788300,4.852788330078125,-0.0017576573222875594,-0.5906997015386819,-0.3581048880310729
1761505878419944200,4.872944091796875,-0.04061667254865169,-0.4504910203814506,-0.46041368131767957
1761505878440100000,4.89310009765625,-0.028680151039361952,-0.3877840965777635,-0.5584447972850873
1761505878460256300,4.91325634765625,-0.08504267425239086,-0.27763737620711326,-0.6285615224212407
1761505878480412200,4.933412109375,-0.07782382891476154,-0.3072907561928034,-0.6376829134445637
1761505878500569300,4.9535693359375,-0.10252923110425471,-0.37736411711126566,-0.6275712692748755
1761505878520725200,4.973725341796875,-0.047047582378983495,-0.4471075154229998,-0.5651236539945006
1761505878540881200,4.993881103515625,0.0574561636686325,-0.549581801469624,-0.477214922786504
1761505878561037300,5.014037353515625,0.07791442980766296,-0.7160808159202336,-0.3413551575537771
1761505878581193200,5.034193115234375,0.10221358928382396,-0.8696358853846788,-0.1907104225780815
1761505878601350400,5.054350341796875,-0.024019173491001126,-1.1188611138388513,0.1033447122056037
1761505878621506300,5.07450634765625,-0.3293868526667356,-1.4992378567695617,0.49930488178059457
1761505878641662500,5.094662353515625,-0.6238865163475275,-0.8973249795600772,0.2679994139637798
1761505878661818400,5.114818359375,-0.8792699751704931,-0.4546887643322348,0.12704729402810333
1761505878681974300,5.134974365234375,-0.6633265463322401,0.12526830165684222,-0.40127844198830426
1761505878702131200,5.155131103515625,-0.380343717443943,0.4894669399857521,-0.6882314166165888
1761505878722287000,5.175287109375,-0.14602818109095095,0.6241133108407259,-0.6562216827630997
1761505878742443300,5.195443359375,-0.1347901632398367,0.5840384900838136,-0.3269354409266263
1761505878762599200,5.21559912109375,-0.11230126805603503,0.4321189128667116,-0.11105923210568726
1761505878782755300,5.23575537109375,-0.08890870203077793,0.28914982708543535,0.07219086452908814
1761505878802912300,5.255912353515625,-0.12917466144561768,0.26452976509183646,0.07194163900837301
1761505878823068400,5.276068359375,-0.19140695347487927,0.409758612498641,-0.06661606007143854
1761505878843224300,5.296224365234375,-0.16587094568014144,0.5971817570343614,-0.2228692825786769
1761505878863380200,5.316380126953125,-0.19092413839399813,0.7185723404750227,-0.32031551133021713
1761505878883536400,5.336536376953125,-0.11355623655319214,0.7572378789559007,-0.3256683436002582
1761505878903693300,5.356693359375,-0.06195932030677795,0.6703375941380858,-0.2740896205976605
1761505878923849500,5.376849365234375,0.04544482335746288,0.5643044465661049,-0.24487711624726652
1761505878944005400,5.39700537109375,0.200594468536973,0.4876894089192152,-0.20774799355342982
1761505878964161300,5.417161376953125,0.30021921037137506,0.3950947118520736,-0.09761091779395938
1761505878984317200,5.437317138671875,0.4349409845501184,0.23428718704134224,0.035315205139666794
1761505879004474000,5.45747412109375,0.5392208587139845,0.10944412505924701,0.1806840455390513
1761505879024630000,5.477630126953125,0.4817489129543304,0.04363309776037931,0.3947289472796023
1761505879044786000,5.497785888671875,0.3529477609962225,0.010335223792493343,0.5036022867135703
1761505879064942000,5.517942138671875,0.18693068484365938,0.07142682135403156,0.5086759367160498
1761505879085098000,5.538097900390625,0.04577098657190799,0.17358254297077655,0.3922119960226118
1761505879105255200,5.558255126953125,-0.006241524738073349,0.34190438893437386,0.2554166304402053
1761505879125411000,5.5784111328125,-0.048996962881088256,0.4762459316238761,0.175451405582577
1761505879145567200,5.598567138671875,-0.0949438905417919,0.6512663984432816,0.19322905433550475
1761505879165723100,5.61872314453125,-0.023624036693572995,0.6660659081682563,0.17677110987901687
1761505879185879000,5.638879150390625,-0.009148936617374419,0.6880053527757525,0.24360548887625336
1761505879206036000,5.659035888671875,0.041944706282019614,0.648152942597866,0.3591249883264303
1761505879226192000,5.67919189453125,0.07172901917099953,0.5773652959302067,0.4566282079622149
1761505879246348000,5.69934814453125,-0.003847907599806785,0.3959983826935291,0.6281205006554722
1761505879266504000,5.71950390625,-0.08143500514924526,0.2511804541751742,0.7218919864170252
1761505879286659800,5.739659912109375,-0.2037397808253765,0.17007395032793282,0.6568931522838771
1761505879306817000,5.759817138671875,-0.3771148185253143,0.05046235925853252,0.5870379641607404
1761505879326973000,5.779972900390625,-0.49483635806441306,0.049826399442553515,0.3483114794977009
1761505879347129000,5.800129150390625,-0.4310638508558273,0.07690525276511907,0.1221998539969325
1761505879367285000,5.820284912109375,-0.23379180473983285,0.07187105799019336,0.001404752231389284
1761505879387441200,5.840441162109375,0.005949848315119743,-0.016643676286935805,-0.0025857787095010278
1761505879407598000,5.86059814453125,0.1521253289222717,-0.13065087147802112,0.18602379913181066
1761505879427754200,5.880754150390625,0.23608722220063208,-0.30735563812255856,0.33131898977309465
1761505879447910100,5.90091015625,0.2141653132498264,-0.4178393353626132,0.44103067972734566
1761505879468066000,5.921066162109375,0.06522329053878784,-0.38824791469722986,0.48399859157726166
1761505879488222200,5.94122216796875,-0.010008768317103385,-0.3557935058161616,0.3863208921574056
1761505879508379000,5.96137890625,-0.09357143314480781,-0.23079788362085818,0.34141163698136806
1761505879528535000,5.98153515625,-0.12469137855172156,-0.1112505899593234,0.18709581227749586
1761505879548691000,6.00169091796875,-0.18379121777415275,-0.03192044813483953,0.13592764283716677
1761505879568847000,6.02184716796875,-0.1310731885433197,-0.06098872170895338,0.11156608564928173
1761505879589003000,6.0420029296875,-0.006600421178340912,-0.10550094039142131,0.13328706520050762
1761505879609160000,6.062159912109375,0.14331424595713615,-0.153738024815917,0.27212328896075483
1761505879629316000,6.082316162109375,0.3024772184312343,-0.18620353961288927,0.3499742981433868
1761505879649472000,6.102471923828125,0.3642828094810247,-0.2268751572191715,0.4260884005308151
1761505879669628200,6.122628173828125,0.316562442407012,-0.2973462852835655,0.4757613629773259
1761505879689784000,6.1427841796875,0.2561649645894766,-0.32070524130016564,0.43847178902477024
1761505879709941200,6.162941162109375,0.21220365778803824,-0.3281713393971324,0.4522035233877599
1761505879730097200,6.18309716796875,0.19361060099899768,-0.3641483694463968,0.46306817788183685
1761505879750253000,6.203253173828125,0.17710837900936602,-0.4158770953789353,0.5175225293859839
1761505879770409200,6.2234091796875,0.09554594808816909,-0.4730313534915447,0.6344426894143224
1761505879790565000,6.243565185546875,0.06723638392686844,-0.5199941801965237,0.6809374602161348
1761505879810722000,6.26372216796875,0.08152151438891887,-0.5602233147323131,0.7655437888778746
1761505879830878000,6.2838779296875,0.07103928334116935,-0.5970747895285486,0.813005505015701
1761505879851034000,6.3040341796875,0.003265723797678947,-0.7319687054038048,0.9896804610438644
1761505879871190000,6.32418994140625,-0.0904611921697855,-0.851615952308476,1.153739242735505
1761505879891346000,6.344345947265625,-0.14680325711667536,-0.727162181904912,1.0813201954737306
1761505879911503000,6.364503173828125,-0.16061141771674156,-0.47413756116777656,0.8716573082096875
1761505879931659000,6.384658935546875,-0.1147124208509922,-0.08108458427637814,0.5497166798956692
1761505879951815200,6.404815185546875,-0.060442486003041265,0.2768681454002857,0.2607667592965066
1761505879971971800,6.424971923828125,0.014143091642856598,0.5221034274354577,0.18487769783660768
1761505879992128000,6.4451279296875,0.1009615433961153,0.5084264919996261,0.2883760662339628
1761505880012284700,6.46528466796875,0.06523556549847126,0.34545682071894407,0.5170167718209326
1761505880032440800,6.48544091796875,0.004959083712100983,0.10926233875155449,0.7479502645201981
1761505880052596700,6.5055966796875,-0.04102291526198387,-0.07231178749501704,0.8925047197967767
1761505880072752600,6.525752685546875,-0.1891606358528137,-0.19237112233191728,0.9541584082204848
1761505880092908800,6.54590869140625,-0.33629999305605884,-0.22753362112790346,0.8419829585012047
1761505880113065700,6.566065673828125,-0.4201496581315994,-0.15002806438207625,0.6259852421924471
1761505880133222000,6.586221923828125,-0.486951157772541,0.10660480998009443,0.46306211346723136
1761505880153377800,6.606377685546875,-0.3912836291313171,0.3323211525529623,0.39687151226624845
1761505880173534000,6.626533935546875,-0.2387041267007589,0.4472793648585677,0.2889236171141267
1761505880193689900,6.64668994140625,-0.10384440535604954,0.5614683463573455,0.2943522910993546
1761505880213847000,6.666846923828125,0.03896773629784584,0.6203723707467317,0.3737028911899775
1761505880234003000,6.6870029296875,0.13387012578547,0.6608396979525685,0.3981101141504943
1761505880254158800,6.707158935546875,0.23759528867602348,0.6820934983834623,0.36535716071426866
1761505880274315000,6.72731494140625,0.21513211245536804,0.6901768515959381,0.31070524081140755
1761505880294471000,6.747470947265625,0.12169628838896751,0.7281509006813168,0.215503283855319
1761505880314627800,6.7676279296875,-0.0016080197185277937,0.7212541269049048,0.19192944297902284
1761505880334783700,6.78778369140625,-0.05565817433595657,0.7492743527308106,0.13062383734062313
1761505880354939600,6.807939697265625,-0.02922492544054985,0.8602338507890701,0.007217091771960258
1761505880375095800,6.828095703125,0.0811497584670782,0.8964882364749908,-0.19330248489789664
1761505880395251700,6.848251708984375,0.126885673725605,0.7547118676096201,-0.2609743376325816
1761505880415409000,6.868408935546875,0.13288403735756874,0.5154647200733423,-0.2640927619140595
1761505880435564800,6.888564697265625,-0.03240940069556236,0.30945085683614015,-0.10639482049122452
1761505880455721000,6.908720947265625,-0.1315735392808914,0.1805471212863922,0.040696386721357704
1761505880475876900,6.928876953125,-0.28633564644753934,0.06821691939681768,0.23807459662556646
1761505880496032800,6.94903271484375,-0.45595922265946864,0.04338379917442799,0.1669508498713374
1761505880516189700,6.969189697265625,-0.6564630903035402,0.2335571192011237,0.13970949946343897
1761505880536345600,6.989345703125,-0.5754349123895168,0.38375586397498845,-0.04425765939950943
1761505880556501800,7.009501708984375,-0.3517921612203121,0.5151853186100721,-0.12040237612091004
1761505880576657700,7.02965771484375,-0.11212474244534969,0.5768392262294888,-0.09693842535987496
1761505880596813800,7.049813720703125,0.08355272795557975,0.4567433587744832,-0.03570866143666208
1761505880616970800,7.069970703125,0.2565513335585594,0.3288905935823917,0.1908354371972382
1761505880637127000,7.090126953125,0.3751134155750274,0.2016664816826582,0.32524054664224383
1761505880657282800,7.11028271484375,0.415247273042798,0.11194324839860201,0.46725715400427575
1761505880677438700,7.130438720703125,0.47455403301417826,-0.05352934561371803,0.4905363227829337
1761505880697595000,7.150594970703125,0.3149316263347864,-0.13875088356435297,0.5483347240179777
1761505880717751800,7.170751708984375,0.0060930561780929565,-0.18647066611647606,0.6274822027519344
1761505880737908000,7.190907958984375,-0.16401333511471747,-0.09592939444780349,0.5490018826898188
1761505880758063900,7.21106396484375,-0.3844973299920559,-0.03232406049966812,0.5008343563701957
1761505880778219800,7.2312197265625,-0.4742167638838291,0.10556816040873528,0.4468434576593339
1761505880798376000,7.2513759765625,-0.5257534743756056,0.20943565437942743,0.3861632904428988
1761505880818532600,7.27153271484375,-0.6715209587037563,0.2835860554784536,0.4362118082035333
1761505880838688800,7.291688720703125,-0.6688368341863155,0.34119770196974275,0.4057309644177556
1761505880858844700,7.3118447265625,-0.6857698488086461,0.34592531501352786,0.42661286279633637
1761505880879000800,7.332000732421875,-0.6623702685207128,0.35974896544367074,0.34987858268395067
1761505880899156700,7.35215673828125,-0.707598234257102,0.3012050065383315,0.37840178959593174
1761505880919314000,7.37231396484375,-0.6468950514912605,0.23174159421175716,0.3719850544214248
1761505880939469800,7.3924697265625,-0.6371311978459357,0.20459142921864984,0.4158431931093335
1761505880959625700,7.412625732421875,-0.6743290018618107,0.16967735222578048,0.4688781793348491
1761505880979780400,7.4327802734375,-0.7382482240647077,0.32571459389477964,0.4435448545053601
1761505880999936500,7.4529365234375,-0.7807640082329511,0.3868947465226054,0.24412673627138137
1761505881020093400,7.473093505859375,-0.7287281160473823,0.6657417907804251,0.05674027048423886
1761505881040249600,7.49324951171875,-0.7071639344930648,0.8857035153493285,-0.1296871410124004
1761505881060405500,7.513405517578125,-0.45604982355237006,1.050320953837037,-0.21345672658905385
1761505881080561700,7.533561767578125,-0.1494733531087637,1.066072941981256,-0.1563802098877728
1761505881100717600,7.553717529296875,0.07167641220092773,0.9806938753813504,-0.004523322643339634
1761505881120874500,7.57387451171875,0.1548977162450552,1.064058679549396,0.21840835764706135
1761505881141030700,7.59403076171875,0.2719967399716377,0.9936965648174285,0.24780805513262746
1761505881161186600,7.6141865234375,0.35515023947656155,0.9251368233323096,0.13994082400128244
1761505881181342700,7.6343427734375,0.33910569812655444,0.9630597267523408,0.08436696694791317
1761505881201498600,7.65449853515625,0.3544371227711439,0.9937117623865603,0.01191416354700923
1761505881221655600,7.674655517578125,0.39525019467473027,0.9963915029898285,0.0359552566088736
1761505881241811500,7.6948115234375,0.4979986214876175,0.9307865196570754,0.06782397455647587
1761505881261967400,7.71496728515625,0.47058922103643414,0.8775751539513468,0.1307026016652584
1761505881282123500,7.73512353515625,0.48432197831273077,0.8661980198904872,0.10413754308372736
1761505881302279400,7.755279541015625,0.4631722227782011,0.7154562542811036,-0.026406214758008716
1761505881322436600,7.7754365234375,0.35999066524505613,0.6138833009883761,-0.16429054462090134
1761505881342592500,7.795592529296875,0.21662848849296568,0.4722597845971584,-0.42023368315324183
1761505881362748700,7.815748779296875,0.18652736473977566,0.32441227912455795,-0.46121845836192366
1761505881382904600,7.835904541015625,0.09990063616633414,0.17066197934895752,-0.44587300519198175
1761505881403060500,7.856060546875,-0.10625205101966857,0.07847937021404504,-0.39487726970911025
1761505881423217400,7.876217529296875,-0.26120588136613365,0.0595671644732356,-0.3380252094134688
1761505881443373600,7.89637353515625,-0.34361996068060396,0.045664603587985034,-0.2129303646273911
1761505881463529500,7.916529541015625,-0.29192075310349463,0.08441957391798496,-0.14092238238453864
1761505881483685400,7.936685302734375,-0.35517946557104585,0.18054682902544736,-0.0012292495340108871
1761505881503841500,7.956841552734375,-0.3223790197312832,0.11702332814186811,0.14976327596604824
1761505881523998500,7.97699853515625,-0.2818786670386791,0.09041676850616931,0.3126936381496489
1761505881544154400,7.997154296875,-0.26103812358379364,0.029494390031695364,0.47762934880629176
1761505881564310500,8.017310546875,-0.2123053645968437,-0.03480009522438049,0.5860653197363018
1761505881584465400,8.03746533203125,-0.24770810188949108,-0.12016893269121647,0.718611941833049
1761505881604621300,8.057621337890625,-0.21731471719145773,-0.18497458233982322,0.7228907881960273
1761505881624777500,8.077777587890624,-0.21406886713802814,-0.1691004291206598,0.7299401221856474
1761505881644933400,8.097933349609375,-0.19694880551099775,-0.10333704035580157,0.6106279524542391
1761505881665089500,8.118089599609375,-0.1794189940392971,-0.07643617394864559,0.5022350900135935
1761505881685246500,8.13824658203125,-0.13479600845873355,-0.043455987627804275,0.37740897916629906
1761505881705402600,8.158402587890626,-0.13226444415450095,-0.05192132589519024,0.2644302502401173
1761505881725558500,8.17855859375,-0.20218729068636893,-0.1005997243463993,0.1341976041741669
1761505881745714400,8.19871435546875,-0.21792846517562864,-0.12314327232688664,0.02534296944066882
1761505881765870600,8.21887060546875,-0.20555355224907396,-0.15319880337268113,-0.03775061559304595
1761505881786027500,8.239027587890625,-0.056791562280058855,-0.19838789840340612,-0.11537322284728288
1761505881806183700,8.25918359375,-0.09168401196300983,-0.2640311679199338,-0.08766118618771433
1761505881826339600,8.279339599609376,-0.04622516008019447,-0.3403609588846564,-0.041852790214866396
1761505881846495700,8.299495849609375,-0.08797872770428657,-0.4410685275197029,0.05056231250166893
1761505881866651600,8.319651611328124,0.015303952115774153,-0.5143684492692351,0.18823387639671563
1761505881886808600,8.33980859375,0.02694879720211029,-0.5614499339178204,0.25797069883719087
1761505881906964500,8.359964599609375,0.028534020566940307,-0.6042205696299672,0.1916346978161484
1761505881927120400,8.380120361328125,-0.036814357656240464,-0.6181517720878124,0.15573957389667628
1761505881947279400,8.400279296875,-0.056095396709442136,-0.6521238920554518,0.11277918776609003
1761505881967436000,8.42043603515625,-0.04268763360381126,-0.6679644352659583,0.15289777459949255
1761505881987592000,8.440592041015625,-0.055717795568704605,-0.6768202341556548,0.15356778281554578
1761505882007748000,8.460748046875,0.006216974818706512,-0.6347036784380674,0.1667881335902959
1761505882027904000,8.480904052734376,0.013954875594377516,-0.6283166077494621,0.1512166165795177
1761505882048060000,8.501059814453125,-0.018396072912216184,-0.6039324003383517,0.10484744491875171
1761505882068217000,8.521217041015625,-0.062037061718106266,-0.5807654597625136,0.08422310149781405
1761505882088373000,8.541373046875,-0.09984978276193142,-0.5340536852091551,0.12315189402475953
1761505882108529200,8.561529052734375,-0.10224047729074955,-0.4681693004131317,0.058942529768869274
1761505882128685000,8.58168505859375,-0.19914543877243995,-0.3794385852977633,0.013548340620100498
1761505882148841000,8.601841064453126,-0.18123276546299458,-0.3815305891409516,-0.055637496874108905
1761505882168998000,8.621997802734375,-0.11505904233157634,-0.3111582452759146,-0.06743767865262926
1761505882189153800,8.64215380859375,0.04650222345590591,-0.27943039710372686,-0.06573365121372043
1761505882209310000,8.66231005859375,0.12147241650521755,-0.24955051488578317,-0.0947244025722146
1761505882229465900,8.6824658203125,0.33889643929004665,-0.2415636077851057,-0.16223244304731488
1761505882249622000,8.7026220703125,0.4585182594925165,-0.273488147573173,-0.02326214457862079
1761505882269779000,8.722779052734374,0.6522305673003196,-0.29848697975128885,0.09402239178270101
1761505882289935000,8.74293505859375,0.7263783380508423,-0.2898155975177884,0.22446619638130066
1761505882310091000,8.763091064453125,0.5649474206447601,-0.2355588144123554,0.2772949194449931
1761505882330247000,8.783246826171874,0.38399756377637384,-0.25180589259713887,0.25959092045016585
1761505882350403000,8.803403076171875,0.19540332963466645,-0.3278431303560734,0.3236384452078491
1761505882370560000,8.82356005859375,0.030247254225611683,-0.36164223184436556,0.37839769794270395
1761505882390716200,8.843716064453124,-0.11206044503748416,-0.378616747520864,0.44967495475821195
1761505882410872000,8.8638720703125,-0.22840368196070193,-0.3480111813768744,0.5742200567070395
1761505882431028200,8.8840283203125,-0.2864244937747717,-0.3521703468829393,0.5559502405229956
1761505882451184000,8.90418408203125,-0.29744916113615033,-0.34011867456138134,0.5419608050718904
1761505882471341000,8.924341064453126,-0.1921019500017166,-0.29004823722988365,0.4639885806623846
1761505882491497000,8.9444970703125,-0.09482114094495772,-0.19553572384268045,0.5555620449230074
1761505882511652900,8.96465283203125,0.0776034641623497,-0.21530688450038432,0.44356816231571133
1761505882531809000,8.98480908203125,0.09884966580867767,-0.17988398120254276,0.48100437819734215
1761505882551965000,9.00496484375,0.16029402233064174,-0.12098930916339158,0.49579957707338035
1761505882572122000,9.0251220703125,0.22307342684864997,-0.0580313332080841,0.4529229237034917
1761505882592278000,9.045278076171876,0.24764906517863272,0.04566694167554378,0.32771475473605094
1761505882612434000,9.065433837890625,0.09689794721901417,0.06629881081581115,0.25090105271190405
1761505882632590000,9.085590087890624,-0.07224573652148246,0.19336743989288807,0.18777634188756345
1761505882652746000,9.10574609375,-0.13531623294055461,0.3382660324320197,0.005585471982136369
1761505882672903200,9.125903076171875,-0.2388888356178999,0.5351347584441304,-0.16833229429237542
1761505882693059000,9.14605908203125,-0.27143793704509733,0.684136402387917,-0.3157162739064544
1761505882713215200,9.16621533203125,-0.26049334918260575,0.7277724227577448,-0.4274623922977596
1761505882733371100,9.18637109375,-0.2529267133206129,0.7019190195769072,-0.4226793227396905
1761505882753527000,9.206527099609374,-0.21258184345066547,0.6553615588024259,-0.3938827057138085
1761505882773683000,9.226682861328126,-0.1830091274857521,0.5559262020602822,-0.3222038092948496
1761505882793839900,9.24683984375,-0.14252981758117675,0.44695027903467416,-0.25293489662706853
1761505882813996000,9.26699609375,-0.14829086532592772,0.38201632683128117,-0.12431399660669266
1761505882834152000,9.28715185546875,-0.20804127741158007,0.38551848973333835,-0.055840691296011206
1761505882854308000,9.30730810546875,-0.1486450855910778,0.3008586773186922,-0.04807524492628872
1761505882874464000,9.327464111328124,-0.07662906617224216,0.29012013342231513,-0.11759535587616264
1761505882894621200,9.34762109375,-0.081759999319911,0.3344204629197717,-0.2437961891427636
1761505882914777000,9.367777099609375,-0.051287119644880294,0.35671178970485923,-0.33818463775888086
1761505882934933000,9.38793310546875,0.10505553471148013,0.3175166743919253,-0.4265285455137491
1761505882955089200,9.408089111328126,0.14299977318048476,0.22591508001536129,-0.42807402139008044
1761505882975244800,9.428244873046875,0.19791618923842905,0.04072919301241636,-0.43512072503119703
1761505882995402000,9.448402099609375,0.22594226028323172,-0.20640783099085092,-0.3742139825172722
1761505883015558000,9.468557861328126,0.26815058593749996,-0.383126333899796,-0.31794469054564833
1761505883035713800,9.4887138671875,0.27237901728749275,-0.4791381459340453,-0.3120049252331257
1761505883055869700,9.50886962890625,0.31828736650347705,-0.48371729041785,-0.2603148508105427
1761505883076025600,9.529025634765626,0.36257016034424305,-0.5067120892971754,-0.20646094941757617
1761505883096182800,9.549182861328125,0.28524843573272224,-0.5094938289701938,-0.2058702169828117
1761505883116338700,9.569338623046875,0.15074644178450106,-0.5162129080921412,-0.15669161392450331
1761505883136494800,9.589494873046876,0.0823398450344801,-0.5383931757181882,-0.22117446135953067
1761505883156650800,9.609650634765625,-0.012778817552328108,-0.47851942951381204,-0.314741218329221
1761505883176806700,9.629806640625,-0.13523147726655005,-0.4326078654274344,-0.3964652695529163
1761505883196963800,9.6499638671875,-0.25107728606164453,-0.4343082396045327,-0.43608219047449526
1761505883217119700,9.67011962890625,-0.2866904512345791,-0.5282955600738525,-0.5493389326244592
1761505883237276000,9.69027587890625,-0.29891338846981524,-0.6062848086833954,-0.5741645271275192
1761505883257431800,9.710431884765624,-0.20791268259584902,-0.7763654810130596,-0.5296070810638368
1761505883277587700,9.730587646484375,-0.11945464694201946,-0.9411033310100436,-0.45348457617424426
1761505883297744000,9.750743896484375,-0.025600889724493026,-0.9860554024145006,-0.38552528480030596
1761505883317900500,9.770900634765624,0.041103579282760615,-1.018047454480827,-0.3622830870311707
1761505883338056700,9.791056640625,0.13538462200164794,-0.9927227513492107,-0.4561678239088505
1761505883358212600,9.811212646484375,0.10781155542135239,-0.9765575062289833,-0.5271927133984864
1761505883378368800,9.83136865234375,0.12992869468331336,-0.9900006329089402,-0.5611691442150623
1761505883398524700,9.851524658203125,0.09271510857641696,-0.930942002479732,-0.5010911076102406
1761505883418681900,9.871681884765625,0.044237201133370395,-0.9190668557688594,-0.4815933570664376
1761505883438837800,9.891837646484374,-0.024577976417541503,-0.871940655195713,-0.4897856505461037
1761505883458993700,9.91199365234375,-0.10994622936248778,-0.882951586292684,-0.4007899278189987
1761505883479149800,9.93214990234375,-0.1938274586200714,-1.0208011371031402,-0.19614179997704922
1761505883499305700,9.9523056640625,-0.3672632865965366,-1.0515741687685252,-0.07845379738137126
1761505883519463000,9.972462890625,-0.7188333294987678,-1.037368825544417,0.04122252948731184
1761505883539618800,9.992618896484375,-1.0345061295896767,-0.8859525216743349,-0.03440568907931447
1761505883559775000,10.01277490234375,-0.9355600176692008,-0.3722358143121004,-0.18241525324583052
1761505883579931000,10.032930908203125,-0.949834626737237,-0.13484919995069503,-0.1640850121114403
1761505883600086800,10.053086669921875,-0.6100041214674711,0.2683586757302284,-0.3444700747039169
1761505883620243700,10.07324365234375,-0.4380523945689201,0.19424889890253544,-0.44749118097834284
1761505883640399600,10.093399658203126,-0.25151275486946106,0.19950813460499048,-0.41694150974005456
1761505883660555800,10.1135556640625,-0.3441752564758062,0.19848609808087347,-0.21125380971729754
1761505883680711700,10.133711669921874,-0.23652795170545576,0.2034279383972287,-0.2284190256603062
1761505883700867600,10.15386767578125,-0.00922609350681305,0.4138637097299099,-0.24009470427632332
1761505883721023700,10.174023681640625,0.18829495893418788,0.6806979523718357,-0.28204043347164987
1761505883741180700,10.1941806640625,0.28598025713860986,0.8156777929648756,-0.37179464641585946
1761505883761336800,10.2143369140625,0.39601533382833004,0.9218930191054939,-0.390553707421571
1761505883781492700,10.23449267578125,0.48667058726549145,0.8039531606405973,-0.23169395567774773
1761505883801649000,10.25464892578125,0.49898880156874653,0.7601426604866981,-0.02713335998877883
1761505883821804800,10.2748046875,0.3939157312005758,0.4896241763740778,0.16733868014514444
1761505883841962000,10.2949619140625,0.36659634712040423,0.38666619846373795,0.28257147160843016
1761505883862118000,10.315117919921875,0.30035072779655453,0.27127865483015773,0.4149881837151944
1761505883882273800,10.335273681640626,0.3058019789397716,0.2037599468305707,0.41520679490193724
1761505883902429700,10.3554296875,0.24017536829710004,0.2638333072602749,0.3944302565939724
1761505883922585600,10.375585693359374,0.12669804219901562,0.44449294901043174,0.5266985001407564
1761505883942742800,10.39574267578125,0.05237082322835922,0.5666963101387024,0.4468159851305186
1761505883962898700,10.415898681640625,0.07110942596793174,0.5999690496653318,0.3893406783699989
1761505883983055600,10.4360556640625,0.06453004757761954,0.3745359079480171,0.5551252609409392
1761505884003211500,10.45621142578125,0.03739069623947144,0.23156419181823729,0.5875372919850052
1761505884023367700,10.47636767578125,-0.24292554378807543,0.11128916840404271,0.7440491654284298
1761505884043523600,10.496523681640625,-0.40873277658224105,0.028055589400231836,0.6105348673433065
1761505884063680800,10.5166806640625,-0.455402757820487,0.19343699799776076,0.4558053472720086
1761505884083836700,10.536836669921875,-0.28178163640499115,0.29248218637853857,0.20980521834418175
1761505884103992600,10.55699267578125,0.06155775376856327,0.6132794898763299,0.31231486796513197
1761505884124148500,10.5771484375,0.15012392597198485,0.6509507566228508,-0.09768500594347715
1761505884144304600,10.5973046875,0.1844768619507551,0.44166766245663164,-0.09467267238497734
1761505884164461600,10.617461669921875,0.47565234964489933,0.242594412137568,-0.17386062925979495
1761505884184617500,10.637617431640624,0.5561281543731689,0.04852642275989055,-0.10453443344682455
1761505884204773600,10.657773681640625,0.7456400878816842,-0.1895236239463091,0.19120324759632348
