time,seconds_elapsed,z,y,x
1761505873622773000,0.07577294921875,-0.07772557437419891,0.12818673253059387,-0.20513857901096344
1761505873642929200,0.09592919921875,-0.05036807432770729,0.1296929568052292,-0.18058036267757416
1761505873663085000,0.1160849609375,-0.03832992911338806,0.11614131927490234,-0.12867599725723267
1761505873683241200,0.1362412109375,-0.009875738993287086,0.08155091851949692,-0.12074759602546692
1761505873703397000,0.156397216796875,0.003707816591486335,0.09616295993328094,-0.12913137674331665
1761505873723554000,0.176553955078125,0.049208492040634155,0.13668295741081238,-0.14191319048404694
1761505873743710000,0.1967099609375,0.0642162412405014,0.126445472240448,-0.16247142851352692
1761505873763865900,0.216865966796875,0.09898997098207474,0.1432906836271286,-0.14824770390987396
1761505873784022000,0.23702197265625,0.12428665906190872,0.12836821377277374,-0.15719179809093475
1761505873804178000,0.257177978515625,0.15316610038280487,0.1356736421585083,-0.15685613453388214
1761505873824333800,0.277333740234375,0.17286944389343262,0.14724451303482056,-0.12613022327423096
1761505873844491000,0.297490966796875,0.2036309540271759,0.15497195720672607,-0.0854087620973587
1761505873864647000,0.31764697265625,0.25243493914604187,0.2040041834115982,-0.06453253328800201
1761505873884803000,0.337802978515625,0.2978092432022095,0.221698597073555,-0.052071500569581985
1761505873904959000,0.357958984375,0.3237171471118927,0.19912521541118622,-0.021571477875113487
1761505873925115100,0.378115234375,0.31741976737976074,0.10027463734149933,-0.032872945070266724
1761505873945271000,0.39827099609375,0.214098259806633,-0.03356621414422989,-0.05959632247686386
1761505873965428200,0.41842822265625,0.08383588492870331,-0.05751372128725052,-0.043037280440330505
1761505873985584400,0.43858447265625,0.0309461522847414,0.020020991563796997,0.008565537631511688
1761505874005740300,0.458740234375,0.07756981253623962,0.11646773666143417,0.0902518704533577
1761505874025896200,0.478896240234375,0.15071767568588257,0.19393134117126465,0.14332614839076996
1761505874046052000,0.499052001953125,0.1999695748090744,0.21982496976852417,0.13234855234622955
1761505874066209000,0.519208984375,0.19260092079639435,0.21274670958518982,0.10018929094076157
1761505874086365200,0.539365234375,0.1451631635427475,0.18511179089546204,0.08571375161409378
1761505874106521000,0.55952099609375,0.10088276118040085,0.10771575570106506,0.1163233146071434
1761505874126677000,0.579677001953125,0.10267455875873566,0.0389668308198452,0.18971925973892212
1761505874146833200,0.599833251953125,0.1295657753944397,0.02258560061454773,0.23457561433315277
1761505874166989000,0.619989013671875,0.14863289892673492,0.02216358855366707,0.21105483174324036
1761505874187146200,0.640146240234375,0.14235064387321472,0.027258282527327538,0.1658472716808319
1761505874207302100,0.66030224609375,0.1405097395181656,0.0026750629767775536,0.15443257987499237
1761505874227458300,0.680458251953125,0.1378943920135498,-0.027897294610738754,0.16292791068553925
1761505874247614200,0.7006142578125,0.11944669485092163,-0.035989850759506226,0.15784478187561035
1761505874267770000,0.72077001953125,0.08439359068870544,-0.0174560546875,0.1388758271932602
1761505874287926300,0.74092626953125,0.05320403352379799,0.0530780628323555,0.14813753962516785
1761505874308083000,0.7610830078125,0.033456020057201385,0.09240338951349258,0.1509382575750351
1761505874328239000,0.781239013671875,0.02652875706553459,0.11222522705793381,0.14401979744434357
1761505874348395000,0.80139501953125,0.027240023016929626,0.12313008308410645,0.14671936631202698
1761505874368551200,0.82155126953125,0.03263479098677635,0.13337624073028564,0.16043303906917572
1761505874388707000,0.84170703125,0.04554016888141632,0.1691124141216278,0.19740167260169983
1761505874408864300,0.8618642578125,0.06037743389606476,0.18914124369621277,0.23295141756534576
1761505874429020200,0.882020263671875,0.07375098019838333,0.1734832376241684,0.27541491389274597
1761505874449176000,0.902176025390625,0.0748438835144043,0.1381494551897049,0.27955955266952515
1761505874469332200,0.922332275390625,0.053053174167871475,0.08319466561079025,0.22972442209720612
1761505874489488100,0.942488037109375,0.033330563455820084,0.025186318904161453,0.17093032598495483
1761505874509644000,0.96264404296875,0.021533101797103882,0.004475433379411697,0.13546986877918243
1761505874529801200,0.98280126953125,-0.00749235600233078,-0.020229920744895935,0.06885203719139099
1761505874549957000,1.00295703125,-0.021716102957725525,-0.04540068656206131,-0.03549574688076973
1761505874570113300,1.02311328125,-0.0405755415558815,-0.06989014148712158,-0.15485437214374542
1761505874590269200,1.043269287109375,-0.10921262204647064,-0.09468595683574677,-0.30684173107147217
1761505874610425300,1.06342529296875,-0.184843510389328,-0.08215763419866562,-0.4342803955078125
1761505874630581200,1.083581298828125,-0.1935720145702362,-0.0000020461156964302063,-0.45727333426475525
1761505874650738200,1.10373828125,-0.13801084458827972,0.12537243962287903,-0.4002498388290405
1761505874670894000,1.12389404296875,-0.028860796242952347,0.2672606408596039,-0.3054504990577698
1761505874691050000,1.144050048828125,0.02272506058216095,0.3221651613712311,-0.26030710339546204
1761505874711206100,1.1642060546875,0.012928234413266182,0.26778605580329895,-0.2532660961151123
1761505874731362000,1.184362060546875,-0.03705892711877823,0.14718160033226013,-0.2278010994195938
1761505874751518200,1.204518310546875,-0.0859113335609436,0.044832803308963776,-0.17855091392993927
1761505874771675100,1.224675048828125,-0.1384596824645996,-0.10745648294687271,-0.08893705159425735
1761505874791831300,1.244831298828125,-0.21120192110538483,-0.2695489525794983,0.03499407693743706
1761505874811987200,1.2649873046875,-0.24861952662467957,-0.33708465099334717,0.04535333439707756
1761505874832143000,1.28514306640625,-0.2573215067386627,-0.3123602271080017,-0.07530824840068817
1761505874852299300,1.30529931640625,-0.24578511714935303,-0.23519912362098694,-0.18648017942905426
1761505874872456200,1.325456298828125,-0.2302575707435608,-0.12413376569747925,-0.22644808888435364
1761505874892612000,1.345612060546875,-0.1985173374414444,-0.02834521234035492,-0.20392346382141113
1761505874912768000,1.36576806640625,-0.16091406345367432,0.03814238682389259,-0.14403380453586578
1761505874932924200,1.385924072265625,-0.13022184371948242,0.05281474441289902,-0.09522249549627304
1761505874953080000,1.406080078125,-0.10987793654203415,0.05438951775431633,-0.059457290917634964
1761505874973236000,1.426236083984375,-0.10622471570968628,0.014896715991199017,-0.055173441767692566
1761505874993393000,1.446392822265625,-0.09584632515907288,-0.049813445657491684,-0.035220447927713394
1761505875013548800,1.466548828125,-0.09009073674678802,-0.14081063866615295,0.017887458205223083
1761505875033705000,1.486705078125,-0.10077515989542007,-0.20566394925117493,0.06894897669553757
1761505875053860900,1.50686083984375,-0.13223649561405182,-0.24505361914634705,0.1042962446808815
1761505875074016800,1.527016845703125,-0.16287879645824432,-0.2447051852941513,0.12453123927116394
1761505875094173000,1.5471728515625,-0.16692961752414703,-0.2814638614654541,0.12598247826099396
1761505875114329900,1.567329833984375,-0.18351352214813232,-0.2828013300895691,0.10259579867124557
1761505875134486000,1.587486083984375,-0.1929410994052887,-0.23092922568321228,0.10816929489374161
1761505875154642000,1.607641845703125,-0.17666994035243988,-0.13785885274410248,0.15934303402900696
1761505875174798000,1.627798095703125,-0.0991721898317337,-0.07526782900094986,0.23959237337112427
1761505875194954000,1.6479541015625,-0.04448163881897926,-0.08589813113212585,0.2967362403869629
1761505875215110000,1.66810986328125,-0.07658801227807999,-0.13285505771636963,0.2817659378051758
1761505875235266800,1.688266845703125,-0.12357551604509354,-0.10342584550380707,0.2332897186279297
1761505875255422700,1.708422607421875,-0.17864298820495605,-0.049459103494882584,0.1689816415309906
1761505875275579000,1.728578857421875,-0.21091528236865997,0.003541013225913048,0.1015888899564743
1761505875295734800,1.74873486328125,-0.19001945853233337,0.0354941263794899,0.08760929852724075
1761505875315890700,1.768890625,-0.14073170721530914,0.0234295092523098,0.15209011733531952
1761505875336047900,1.7890478515625,-0.09894812852144241,0.02087533101439476,0.25770407915115356
1761505875356203800,1.809203857421875,-0.06723906099796295,0.015619914047420025,0.33955544233322144
1761505875376360000,1.82935986328125,-0.04830000549554825,-0.019823431968688965,0.36963820457458496
1761505875396515800,1.849515869140625,-0.06219567358493805,-0.09309349954128265,0.3512236773967743
1761505875416672000,1.869672119140625,-0.07858233153820038,-0.1552274525165558,0.30546101927757263
1761505875436828000,1.889827880859375,-0.10096872597932816,-0.18590541183948517,0.24492059648036957
1761505875456985000,1.909985107421875,-0.12315377593040466,-0.18660283088684082,0.18303711712360382
1761505875477141000,1.93014111328125,-0.15877607464790344,-0.15381009876728058,0.13669584691524506
1761505875497297000,1.950296875,-0.18733325600624084,-0.09949243068695068,0.1124173104763031
1761505875517453000,1.970453125,-0.19512511789798737,-0.06751031428575516,0.09192029386758804
1761505875537609000,1.99060888671875,-0.18834556639194489,-0.04140177741646767,0.06568145751953125
1761505875557766000,2.010765869140625,-0.1578492969274521,0.020763564854860306,0.06280165165662766
1761505875577921800,2.030921875,-0.09272834658622742,0.0791182667016983,0.055439118295907974
1761505875598078000,2.051077880859375,-0.050962068140506744,0.1211455836892128,0.023789754137396812
1761505875618233900,2.07123388671875,-0.012650632299482822,0.15267795324325562,-0.06330227106809616
1761505875638389800,2.0913896484375,0.024769481271505356,0.15418945252895355,-0.1763172298669815
1761505875658546000,2.1115458984375,0.04736219719052315,0.11449115723371506,-0.26699113845825195
1761505875678702800,2.131702880859375,0.04713241755962372,0.012376374565064907,-0.3751945495605469
1761505875698859000,2.15185888671875,0.017117314040660858,-0.11966685205698013,-0.5401251316070557
1761505875719015000,2.172014892578125,-0.034797441214323044,-0.1519767791032791,-0.6605278253555298
1761505875739170800,2.1921708984375,-0.005849255248904228,-0.05198215693235397,-0.6520412564277649
1761505875759327000,2.212326904296875,0.13331937789916992,0.08320774137973785,-0.4871880114078522
1761505875779484000,2.23248388671875,0.3010849952697754,0.11921486258506775,-0.26532188057899475
1761505875799640000,2.25264013671875,0.40139877796173096,0.05895943194627762,-0.1155896782875061
1761505875819796000,2.2727958984375,0.4084542393684387,-0.009262987412512302,-0.12185058742761612
1761505875839952000,2.292951904296875,0.34274181723594666,-0.07665876299142838,-0.21513763070106506
1761505875860107800,2.313107666015625,0.24303732812404633,-0.1282169371843338,-0.3163262903690338
1761505875880263700,2.333263671875,0.15536713600158691,-0.11598236858844757,-0.36669865250587463
1761505875900420900,2.3534208984375,0.11934691667556763,-0.074355848133564,-0.35014432668685913
1761505875920576800,2.37357666015625,0.1527106910943985,0.009271450340747833,-0.2805229723453522
1761505875940733000,2.39373291015625,0.21638886630535126,0.08504857122898102,-0.22523826360702515
1761505875960888800,2.413888916015625,0.25570768117904663,0.15310829877853394,-0.19526158273220062
1761505875981044500,2.43404443359375,0.25722452998161316,0.17137040197849274,-0.18327954411506653
1761505876001201700,2.45420166015625,0.21984340250492096,0.13352856040000916,-0.1427464336156845
1761505876021357600,2.474357666015625,0.16620345413684845,0.10381103307008743,-0.08025925606489182
1761505876041513700,2.494513671875,0.137342631816864,0.13984201848506927,-0.014926455914974213
1761505876061669600,2.514669677734375,0.1092057004570961,0.20050778985023499,0.003620484145358205
1761505876081825800,2.53482568359375,0.06700755655765533,0.23007851839065552,-0.02458062209188938
1761505876101981700,2.554981689453125,0.025549575686454773,0.25264930725097656,-0.06207156181335449
1761505876122138600,2.575138671875,-0.010275677777826786,0.22618186473846436,-0.08218973129987717
1761505876142294500,2.59529443359375,-0.017352601513266563,0.19192883372306824,-0.06313492357730865
1761505876162450400,2.615450439453125,-0.006736032664775848,0.15688000619411469,-0.03378382325172424
1761505876182606600,2.635606689453125,0.031496644020080566,0.13242293894290924,0.016399512067437172
1761505876202762500,2.655762451171875,0.09070612490177155,0.07944535464048386,0.08259232342243195
1761505876222919700,2.675919677734375,0.1474619060754776,0.017124533653259277,0.15902170538902283
1761505876243075600,2.69607568359375,0.20900578796863556,-0.03545786812901497,0.232559934258461
1761505876263231700,2.716231689453125,0.2754993140697479,-0.09886734187602997,0.2839104235172272
1761505876283387600,2.7363876953125,0.28106239438056946,-0.13259728252887726,0.29562461376190186
1761505876303543600,2.75654345703125,0.247764453291893,-0.12388135492801666,0.27705875039100647
1761505876323699700,2.77669970703125,0.16320618987083435,-0.1571851223707199,0.2422448843717575
1761505876343856600,2.796856689453125,0.04832329601049423,-0.19775328040122986,0.2377478927373886
1761505876364012800,2.8170126953125,-0.0038816742599010468,-0.1380470097064972,0.31885942816734314
1761505876384168700,2.837168701171875,0.027120182290673256,-0.025301286950707436,0.42807140946388245
1761505876404324600,2.85732470703125,0.11150386184453964,0.1251121312379837,0.46260949969291687
1761505876424480800,2.877480712890625,0.15211276710033417,0.1973569542169571,0.4000800549983978
1761505876444637400,2.897637451171875,0.12833727896213531,0.21998900175094604,0.3404269516468048
1761505876464793600,2.917793701171875,0.10639636963605881,0.21817953884601593,0.33444640040397644
1761505876484949500,2.937949462890625,0.04649970680475235,0.14729997515678406,0.33166784048080444
1761505876505105700,2.958105712890625,0.005615974776446819,0.08993693441152573,0.343374103307724
1761505876525261600,2.978261474609375,0.00011377641931176186,0.0757879987359047,0.3473000228404999
1761505876545418800,2.998418701171875,-0.00031573709566146135,0.06720113009214401,0.3103385865688324
1761505876565574700,3.01857470703125,-0.024426080286502838,0.04126756638288498,0.24408452212810516
1761505876585730600,3.03873046875,-0.039115794003009796,0.002674141898751259,0.23083345592021942
1761505876605886700,3.05888671875,-0.04092981293797493,-0.011785564012825489,0.2705380916595459
1761505876626042600,3.079042724609375,-0.057656027376651764,-0.01091505866497755,0.272377610206604
1761505876646199800,3.09919970703125,-0.0772366151213646,0.03000945784151554,0.20417754352092743
1761505876666355700,3.119355712890625,-0.08123783767223358,0.09738412499427795,0.10455019772052765
1761505876686511900,3.139511962890625,-0.10796532779932022,0.10977137833833694,0.056364044547080994
1761505876706667800,3.159667724609375,-0.11140153557062149,0.1045367419719696,0.06533815711736679
1761505876726823700,3.17982373046875,-0.11690360307693481,0.08853214979171753,0.08557045459747314
1761505876746979800,3.199979736328125,-0.12207414954900742,0.06010563299059868,0.1294657438993454
1761505876767136500,3.220136474609375,-0.08886709809303284,0.0627657100558281,0.17519629001617432
1761505876787292700,3.240292724609375,-0.048073265701532364,0.03274619206786156,0.14300407469272614
1761505876807448600,3.260448486328125,-0.029434669762849808,-0.025817686691880226,0.04429526627063751
1761505876827604500,3.2806044921875,-0.049048569053411484,-0.08012153208255768,-0.040730107575654984
1761505876847760600,3.3007607421875,-0.12063873559236526,-0.13270768523216248,-0.12785585224628448
1761505876867917600,3.32091748046875,-0.2166985273361206,-0.15728801488876343,-0.18628065288066864
1761505876888073700,3.34107373046875,-0.2752242386341095,-0.18035367131233215,-0.16987960040569305
1761505876908229600,3.361229736328125,-0.2535433769226074,-0.17006297409534454,-0.1291862279176712
1761505876928385800,3.3813857421875,-0.18752652406692505,-0.16748861968517303,-0.06451024860143661
1761505876948541700,3.401541748046875,-0.126528799533844,-0.19109514355659485,0.02260030061006546
1761505876968699000,3.421698974609375,-0.10706556588411331,-0.23654992878437042,0.094203419983387
1761505876988854800,3.441854736328125,-0.10994595289230347,-0.24715203046798706,0.10337917506694794
1761505877009010700,3.4620107421875,-0.10981421917676926,-0.1812930703163147,0.038791026920080185
1761505877029166800,3.482166748046875,-0.0934491753578186,-0.09422583132982254,-0.07646505534648895
1761505877049322800,3.50232275390625,-0.0601917989552021,-0.057081542909145355,-0.16300810873508453
1761505877069480000,3.52247998046875,-0.06710337847471237,-0.11987575888633728,-0.19335925579071045
1761505877089635800,3.5426357421875,-0.12794946134090424,-0.1804097592830658,-0.19460511207580566
1761505877109792000,3.5627919921875,-0.20633447170257568,-0.21506033837795258,-0.20588168501853943
1761505877129948000,3.582947998046875,-0.2849259078502655,-0.17979910969734192,-0.24129049479961395
1761505877150103800,3.603103759765625,-0.3493426740169525,-0.1373244971036911,-0.3087914288043976
1761505877170260000,3.623260009765625,-0.3736301064491272,-0.08067520707845688,-0.3491601049900055
1761505877190417000,3.6434169921875,-0.3777809739112854,-0.050285957753658295,-0.31802141666412354
1761505877210573000,3.663572998046875,-0.32763439416885376,-0.021816080436110497,-0.2115229219198227
1761505877230729000,3.68372900390625,-0.2329154908657074,0.029786214232444763,-0.05966375395655632
1761505877250885000,3.703885009765625,-0.1343373954296112,0.048937033861875534,0.07612776011228561
1761505877271041000,3.724041015625,-0.07024569809436798,0.015419523231685162,0.16650936007499695
1761505877291197700,3.74419775390625,-0.03539391607046127,-0.015444155782461166,0.23421737551689148
1761505877311353900,3.764353759765625,-0.03637932613492012,-0.049093812704086304,0.29265695810317993
1761505877331509800,3.784509765625,-0.0551835335791111,-0.11868258565664291,0.3276251554489136
1761505877351666000,3.804666015625,-0.059876713901758194,-0.1577715128660202,0.35593676567077637
1761505877371821800,3.82482177734375,-0.04357142001390457,-0.16566970944404602,0.3566836416721344
1761505877391979000,3.84497900390625,-0.03204174339771271,-0.17616046965122223,0.28576159477233887
1761505877412135000,3.865135009765625,-0.07141236960887909,-0.19960680603981018,0.11795708537101746
1761505877432290800,3.885290771484375,-0.12700720131397247,-0.15069715678691864,-0.02762703225016594
1761505877452447000,3.905447021484375,-0.12030185014009476,-0.03807295113801956,-0.05934868007898331
1761505877472603000,3.925602783203125,0.003342326497659087,0.045504130423069,0.013065840117633343
1761505877492760000,3.945760009765625,0.12544754147529602,-0.003446195274591446,0.10114384442567825
1761505877512916000,3.965916015625,0.13723795115947723,-0.13920652866363525,0.13489975035190582
1761505877533072000,3.98607177734375,0.08261723071336746,-0.2607360780239105,0.13350044190883636
1761505877553227800,4.006227783203125,0.019656620919704437,-0.26779457926750183,0.12873335182666779
1761505877573382000,4.0263818359375,0.019574986770749092,-0.21268363296985626,0.13250558078289032
1761505877593537800,4.046537841796875,0.06224653124809265,-0.12518763542175293,0.1424863040447235
1761505877613694000,4.06669384765625,0.10286453366279602,-0.009926563128829002,0.15405108034610748
1761505877633851000,4.086850830078125,0.10872761160135269,0.09195588529109955,0.17685453593730927
1761505877654007000,4.107007080078125,0.07830459624528885,0.1390376091003418,0.19889631867408752
1761505877674163000,4.127162841796875,0.041146256029605865,0.12410594522953033,0.22105109691619873
1761505877694319000,4.147319091796875,0.020138051360845566,0.10104943066835403,0.23665976524353027
1761505877714475000,4.16747509765625,0.05229182913899422,0.10389847308397293,0.22455155849456787
1761505877734631700,4.187631591796875,0.09050025790929794,0.05717333406209946,0.1599089503288269
1761505877754787800,4.207787841796875,0.06158418580889702,-0.0755852460861206,0.07945564389228821
1761505877774943700,4.22794384765625,-0.0042783962562680244,-0.2010975033044815,0.03391299024224281
1761505877795100000,4.248099853515625,-0.07647627592086792,-0.2488022744655609,0.04243869334459305
1761505877815255800,4.268255859375,-0.1088908463716507,-0.20008039474487305,0.08483076840639114
1761505877835413000,4.2884130859375,-0.0757482722401619,-0.07036110758781433,0.08066752552986145
1761505877855569000,4.30856884765625,-0.016683347523212433,0.04875373840332031,-0.02409432828426361
1761505877875724800,4.328724853515625,0.012988774105906487,0.06741169840097427,-0.18082672357559204
1761505877895881000,4.348880859375,-0.022756846621632576,-0.04359058663249016,-0.3056428134441376
1761505877916036900,4.369036865234375,-0.1392449587583542,-0.20062494277954102,-0.40954962372779846
1761505877936194000,4.389194091796875,-0.28110700845718384,-0.3422827124595642,-0.5340534448623657
1761505877956350000,4.409349853515625,-0.3458748161792755,-0.3267025053501129,-0.6146953105926514
1761505877976506000,4.429506103515625,-0.29044216871261597,-0.21915464103221893,-0.623464822769165
1761505877996664300,4.449664306640625,-0.16304129362106323,-0.13842913508415222,-0.5115440487861633
1761505878016820200,4.4698203125,-0.042904119938611984,-0.15134947001934052,-0.307162880897522
1761505878036976400,4.489976318359375,0.02835237607359886,-0.22564169764518738,-0.11096177250146866
1761505878057132300,4.51013232421875,0.04186512529850006,-0.288767546415329,-0.021923132240772247
1761505878077289200,4.530289306640625,0.016484778374433517,-0.2961202561855316,-0.05150967091321945
1761505878097445400,4.5504453125,0.005227828398346901,-0.27327245473861694,-0.14337249100208282
1761505878117601300,4.570601318359375,0.024109691381454468,-0.22309981286525726,-0.20344112813472748
1761505878137757200,4.590757080078125,0.06066088378429413,-0.15831896662712097,-0.2071758359670639
1761505878157913000,4.6109130859375,0.12168308347463608,-0.09642451256513596,-0.17227871716022491
1761505878178070300,4.6310703125,0.18663224577903748,-0.07484166324138641,-0.1487123966217041
1761505878198226200,4.65122607421875,0.22835111618041992,-0.06304126977920532,-0.13765527307987213
1761505878218382300,4.67138232421875,0.2558373212814331,-0.02204027771949768,-0.13670246303081512
1761505878238538200,4.691538330078125,0.2908359169960022,0.04447363317012787,-0.12840257585048676
1761505878258694100,4.711694091796875,0.33187422156333923,0.09023919701576233,-0.1156749576330185
1761505878278851300,4.731851318359375,0.3638414740562439,0.1398332417011261,-0.08581244200468063
1761505878299007200,4.75200732421875,0.37318798899650574,0.20419898629188538,-0.038805894553661346
1761505878319163400,4.772163330078125,0.35728830099105835,0.24111849069595337,-0.007615296170115471
1761505878339319300,4.7923193359375,0.32794034481048584,0.23355437815189362,0.007498463615775108
1761505878359475500,4.812475341796875,0.27754899859428406,0.2263461947441101,0.006710113026201725
1761505878379631400,4.83263134765625,0.23208680748939514,0.2357492297887802,0.0011178362183272839
1761505878399788300,4.852788330078125,0.20998147130012512,0.2178894579410553,-0.001085435040295124
1761505878419944200,4.872944091796875,0.1825120896100998,0.17834296822547913,0.015360440127551556
1761505878440100000,4.89310009765625,0.17511901259422302,0.1733434498310089,0.059030238538980484
1761505878460256300,4.91325634765625,0.17957255244255066,0.15260732173919678,0.1020280197262764
1761505878480412200,4.933412109375,0.2053433060646057,0.16257481276988983,0.13027311861515045
1761505878500569300,4.9535693359375,0.23261195421218872,0.2145104706287384,0.11504331976175308
1761505878520725200,4.973725341796875,0.25083139538764954,0.25198477506637573,0.0854416936635971
1761505878540881200,4.993881103515625,0.2859771251678467,0.2705601453781128,0.09023646265268326
1761505878561037300,5.014037353515625,0.3222934603691101,0.2619055509567261,0.1252155900001526
1761505878581193200,5.034193115234375,0.33577394485473633,0.2459266185760498,0.18928365409374237
1761505878601350400,5.054350341796875,0.3704448938369751,0.21347226202487946,0.24771849811077118
1761505878621506300,5.07450634765625,0.3920653462409973,0.08064831793308258,0.257149338722229
1761505878641662500,5.094662353515625,0.2408374845981598,-0.132200226187706,0.19105321168899536
1761505878661818400,5.114818359375,0.004273688420653343,-0.22610583901405334,0.16191478073596954
1761505878681974300,5.134974365234375,-0.09460566192865372,-0.06489473581314087,0.26291629672050476
1761505878702131200,5.155131103515625,-0.010989687405526638,0.19883522391319275,0.43018242716789246
1761505878722287000,5.175287109375,0.14525523781776428,0.4066762328147888,0.5352605581283569
1761505878742443300,5.195443359375,0.22553706169128418,0.44009658694267273,0.5470017194747925
1761505878762599200,5.21559912109375,0.22060774266719818,0.3720305562019348,0.5170658826828003
1761505878782755300,5.23575537109375,0.1475835144519806,0.29942378401756287,0.4726490080356598
1761505878802912300,5.255912353515625,0.053155869245529175,0.261611670255661,0.3868761360645294
1761505878823068400,5.276068359375,-0.003685115370899439,0.2570142447948456,0.24452127516269684
1761505878843224300,5.296224365234375,-0.006680425722151995,0.28690260648727417,0.07012227922677994
1761505878863380200,5.316380126953125,0.04223935678601265,0.2576102912425995,-0.07271299511194229
1761505878883536400,5.336536376953125,0.11647665500640869,0.2300894409418106,-0.11024567484855652
1761505878903693300,5.356693359375,0.16399364173412323,0.24641090631484985,-0.06527410447597504
1761505878923849500,5.376849365234375,0.17764295637607574,0.3116161823272705,-0.008742308244109154
1761505878944005400,5.39700537109375,0.19228211045265198,0.34236741065979004,0.02032717689871788
1761505878964161300,5.417161376953125,0.20059990882873535,0.3180641233921051,0.018311109393835068
1761505878984317200,5.437317138671875,0.1873684674501419,0.30218619108200073,0.004396296571940184
1761505879004474000,5.45747412109375,0.15248528122901917,0.2909269332885742,-0.011569635011255741
1761505879024630000,5.477630126953125,0.09086707979440689,0.2246970683336258,-0.03251124918460846
1761505879044786000,5.497785888671875,0.0013174375053495169,0.10925263911485672,-0.0718802884221077
1761505879064942000,5.517942138671875,-0.10544975101947784,0.007334534078836441,-0.105435311794281
1761505879085098000,5.538097900390625,-0.18342570960521698,-0.027302205562591553,-0.11860272288322449
1761505879105255200,5.558255126953125,-0.223065584897995,0.01497295405715704,-0.08145568519830704
1761505879125411000,5.5784111328125,-0.2250211089849472,0.08425447344779968,-0.04718366637825966
1761505879145567200,5.598567138671875,-0.20764225721359253,0.13299505412578583,-0.05955899879336357
1761505879165723100,5.61872314453125,-0.1385532170534134,0.16688941419124603,-0.08072207123041153
1761505879185879000,5.638879150390625,-0.07150391489267349,0.17657792568206787,-0.12371299415826797
1761505879206036000,5.659035888671875,-0.02483489364385605,0.16455386579036713,-0.1741231083869934
1761505879226192000,5.67919189453125,0.01970651000738144,0.12927523255348206,-0.2096525877714157
1761505879246348000,5.69934814453125,0.05956954136490822,0.03753410279750824,-0.21184541285037994
1761505879266504000,5.71950390625,0.06905428320169449,-0.059503015130758286,-0.16566415131092072
1761505879286659800,5.739659912109375,0.04809243604540825,-0.0984666496515274,-0.15102647244930267
1761505879306817000,5.759817138671875,0.018562790006399155,-0.10381646454334259,-0.19035017490386963
1761505879326973000,5.779972900390625,0.0020342357456684113,-0.048796944320201874,-0.268991082906723
1761505879347129000,5.800129150390625,0.014111937955021858,0.09068771451711655,-0.3078884184360504
1761505879367285000,5.820284912109375,0.05446713790297508,0.25797227025032043,-0.2823755443096161
1761505879387441200,5.840441162109375,0.0963972955942154,0.3471463918685913,-0.2059989720582962
1761505879407598000,5.86059814453125,0.06890319287776947,0.3146112561225891,-0.12163259834051132
1761505879427754200,5.880754150390625,0.01567448303103447,0.21717995405197144,-0.07054558396339417
1761505879447910100,5.90091015625,-0.055223338305950165,0.07820258289575577,-0.05707790330052376
1761505879468066000,5.921066162109375,-0.14250317215919495,-0.06302870810031891,-0.06523601710796356
1761505879488222200,5.94122216796875,-0.1918291300535202,-0.15773391723632812,-0.04129312187433243
1761505879508379000,5.96137890625,-0.2188267707824707,-0.17934615910053253,0.024045845493674278
1761505879528535000,5.98153515625,-0.2006359100341797,-0.13489633798599243,0.0718633234500885
1761505879548691000,6.00169091796875,-0.1621333211660385,-0.08576299995183945,0.04765965789556503
1761505879568847000,6.02184716796875,-0.10887648165225983,-0.012676809914410114,-0.01392221450805664
1761505879589003000,6.0420029296875,-0.07167907804250717,0.05226162448525429,-0.07198874652385712
1761505879609160000,6.062159912109375,-0.07150787860155106,0.0476289726793766,-0.09367889910936356
1761505879629316000,6.082316162109375,-0.06850800663232803,-0.012147698551416397,-0.06588288396596909
1761505879649472000,6.102471923828125,-0.07004281878471375,-0.09611591696739197,-0.02347315102815628
1761505879669628200,6.122628173828125,-0.0716625228524208,-0.16347196698188782,-0.0012293257750570774
1761505879689784000,6.1427841796875,-0.06734680384397507,-0.17174628376960754,0.016022423282265663
1761505879709941200,6.162941162109375,-0.05071749910712242,-0.15133145451545715,0.0274234376847744
1761505879730097200,6.18309716796875,-0.017626017332077026,-0.12669546902179718,0.03103717602789402
1761505879750253000,6.203253173828125,0.012575311586260796,-0.09055472910404205,0.0386812686920166
1761505879770409200,6.2234091796875,0.01844755932688713,-0.08458966016769409,0.05635502189397812
1761505879790565000,6.243565185546875,0.022681811824440956,-0.06301730871200562,0.09432860463857651
1761505879810722000,6.26372216796875,0.03760591894388199,-0.01164053101092577,0.1309146136045456
1761505879830878000,6.2838779296875,0.08028879016637802,0.0196642205119133,0.12938179075717926
1761505879851034000,6.3040341796875,0.13987313210964203,0.000029888935387134552,0.1161327064037323
1761505879871190000,6.32418994140625,0.1892421692609787,-0.0591609850525856,0.11851904541254044
1761505879891346000,6.344345947265625,0.215229332447052,-0.1203453317284584,0.10868218541145325
1761505879911503000,6.364503173828125,0.23312395811080933,-0.14463981986045837,0.0459732823073864
1761505879931659000,6.384658935546875,0.29810547828674316,-0.1360604166984558,-0.03592970594763756
1761505879951815200,6.404815185546875,0.40447065234184265,-0.118760846555233,-0.0984739437699318
1761505879971971800,6.424971923828125,0.5183333158493042,-0.10838738828897476,-0.0830715000629425
1761505879992128000,6.4451279296875,0.627853274345398,-0.06813063472509384,0.029700439423322678
1761505880012284700,6.46528466796875,0.6947985291481018,-0.05513990297913551,0.14837703108787537
1761505880032440800,6.48544091796875,0.7158721685409546,-0.05612872540950775,0.20296549797058105
1761505880052596700,6.5055966796875,0.7102116346359253,-0.055179696530103683,0.17696909606456757
1761505880072752600,6.525752685546875,0.6855020523071289,-0.058540649712085724,0.09275273978710175
1761505880092908800,6.54590869140625,0.6584556102752686,0.014313389547169209,-0.017580274492502213
1761505880113065700,6.566065673828125,0.6225327253341675,0.13031736016273499,-0.10791901499032974
1761505880133222000,6.586221923828125,0.5542347431182861,0.17271219193935394,-0.11204385757446289
1761505880153377800,6.606377685546875,0.48346054553985596,0.2488250583410263,-0.03577988222241402
1761505880173534000,6.626533935546875,0.49794501066207886,0.37919044494628906,0.02292099967598915
1761505880193689900,6.64668994140625,0.5783566236495972,0.48111605644226074,0.008079870603978634
1761505880213847000,6.666846923828125,0.6743118762969971,0.49367862939834595,-0.04642229527235031
1761505880234003000,6.6870029296875,0.7625928521156311,0.4104478657245636,-0.06639296561479568
1761505880254158800,6.707158935546875,0.8389822840690613,0.30423253774642944,-0.0031911986880004406
1761505880274315000,6.72731494140625,0.895591139793396,0.2079397290945053,0.09954547137022018
1761505880294471000,6.747470947265625,0.9385716915130615,0.15299808979034424,0.15501227974891663
1761505880314627800,6.7676279296875,0.9573273658752441,0.14332424104213715,0.14302828907966614
1761505880334783700,6.78778369140625,0.9666998982429504,0.19450362026691437,0.10869365185499191
1761505880354939600,6.807939697265625,0.9683481454849243,0.2671767473220825,0.10716686397790909
1761505880375095800,6.828095703125,1.00192129611969,0.36400744318962097,0.14563435316085815
1761505880395251700,6.848251708984375,1.040942907333374,0.45750150084495544,0.1793980598449707
1761505880415409000,6.868408935546875,1.0658576488494873,0.5539305210113525,0.16700781881809235
1761505880435564800,6.888564697265625,1.0340418815612793,0.5721468925476074,0.12658467888832092
1761505880455721000,6.908720947265625,0.9839719533920288,0.5231304168701172,0.10717281699180603
1761505880475876900,6.928876953125,0.9189351201057434,0.4567566215991974,0.04529741033911705
1761505880496032800,6.94903271484375,0.8673186898231506,0.41340553760528564,-0.10378590226173401
1761505880516189700,6.969189697265625,0.8063390254974365,0.3826635777950287,-0.31498780846595764
1761505880536345600,6.989345703125,0.8292268514633179,0.4214933216571808,-0.43432798981666565
1761505880556501800,7.009501708984375,0.9228472113609314,0.49937087297439575,-0.42777353525161743
1761505880576657700,7.02965771484375,1.042680025100708,0.5986891984939575,-0.3536301851272583
1761505880596813800,7.049813720703125,1.162641167640686,0.672608494758606,-0.28661081194877625
1761505880616970800,7.069970703125,1.2154200077056885,0.6744621396064758,-0.25103673338890076
1761505880637127000,7.090126953125,1.235400676727295,0.6207846999168396,-0.2081335186958313
1761505880657282800,7.11028271484375,1.2442132234573364,0.5456681847572327,-0.14770568907260895
1761505880677438700,7.130438720703125,1.2947118282318115,0.5046499967575073,-0.10765600949525833
1761505880697595000,7.150594970703125,1.322782278060913,0.48553580045700073,-0.13785552978515625
1761505880717751800,7.170751708984375,1.3121843338012695,0.43959540128707886,-0.22693990170955658
1761505880737908000,7.190907958984375,1.2882367372512817,0.4499453008174896,-0.33447736501693726
1761505880758063900,7.21106396484375,1.2876523733139038,0.48410314321517944,-0.42978203296661377
1761505880778219800,7.2312197265625,1.3206000328063965,0.546005368232727,-0.4516473114490509
1761505880798376000,7.2513759765625,1.3998903036117554,0.6182219982147217,-0.40550491213798523
1761505880818532600,7.27153271484375,1.4821850061416626,0.6452112197875977,-0.3137250542640686
1761505880838688800,7.291688720703125,1.5641484260559082,0.6909691095352173,-0.19181978702545166
1761505880858844700,7.3118447265625,1.6510263681411743,0.7497976422309875,-0.06611374765634537
1761505880879000800,7.332000732421875,1.7416918277740479,0.8338702321052551,0.02096763253211975
1761505880899156700,7.35215673828125,1.7976861000061035,0.9262582063674927,0.03758680075407028
1761505880919314000,7.37231396484375,1.8468091487884521,1.0048373937606812,0.03520110622048378
1761505880939469800,7.3924697265625,1.8777031898498535,1.0227296352386475,0.037254076451063156
1761505880959625700,7.412625732421875,1.8658260107040405,0.9601351022720337,0.06380000710487366
1761505880979780400,7.4327802734375,1.7863118648529053,0.8844459652900696,0.07820865511894226
1761505880999936500,7.4529365234375,1.7462838888168335,0.8410764336585999,0.07714618742465973
1761505881020093400,7.473093505859375,1.7134559154510498,0.85526442527771,0.052063506096601486
1761505881040249600,7.49324951171875,1.7151204347610474,0.8676636219024658,0.018698617815971375
1761505881060405500,7.513405517578125,1.748742938041687,0.9470345973968506,0.03370086848735809
1761505881080561700,7.533561767578125,1.7836109399795532,1.0194919109344482,0.08576907217502594
1761505881100717600,7.553717529296875,1.7799252271652222,1.0043556690216064,0.13484567403793335
1761505881120874500,7.57387451171875,1.6971533298492432,0.8767439723014832,0.1725694090127945
1761505881141030700,7.59403076171875,1.6260828971862793,0.7386636734008789,0.20904506742954254
1761505881161186600,7.6141865234375,1.5763719081878662,0.7220588326454163,0.19263847172260284
1761505881181342700,7.6343427734375,1.5016309022903442,0.7721119523048401,0.09680014848709106
1761505881201498600,7.65449853515625,1.4148614406585693,0.8592857718467712,-0.039899278432130814
1761505881221655600,7.674655517578125,1.3365272283554077,0.9013066291809082,-0.1565486490726471
1761505881241811500,7.6948115234375,1.277553915977478,0.9188981652259827,-0.24747245013713837
1761505881261967400,7.71496728515625,1.2248529195785522,0.8689063787460327,-0.335733562707901
1761505881282123500,7.73512353515625,1.176289677619934,0.7973044514656067,-0.4420716464519501
1761505881302279400,7.755279541015625,1.164207935333252,0.7364484071731567,-0.5582718849182129
1761505881322436600,7.7754365234375,1.1651536226272583,0.652732253074646,-0.6765233874320984
1761505881342592500,7.795592529296875,1.1739213466644287,0.5261592268943787,-0.7214221358299255
1761505881362748700,7.815748779296875,1.1633923053741455,0.42809659242630005,-0.634803831577301
1761505881382904600,7.835904541015625,1.1199276447296143,0.3535633981227875,-0.5119125843048096
1761505881403060500,7.856060546875,1.0445197820663452,0.25980889797210693,-0.47177013754844666
1761505881423217400,7.876217529296875,0.9441150426864624,0.2044335901737213,-0.5047167539596558
1761505881443373600,7.89637353515625,0.8516536355018616,0.2091018259525299,-0.5347144603729248
1761505881463529500,7.916529541015625,0.8236039876937866,0.27787333726882935,-0.5235661268234253
1761505881483685400,7.936685302734375,0.8263784646987915,0.31066057085990906,-0.5120439529418945
1761505881503841500,7.956841552734375,0.8634799718856812,0.34499865770339966,-0.48142513632774353
1761505881523998500,7.97699853515625,0.8780574798583984,0.39825281500816345,-0.43528881669044495
1761505881544154400,7.997154296875,0.8779640793800354,0.4447377622127533,-0.38787469267845154
1761505881564310500,8.017310546875,0.8817019462585449,0.4848121404647827,-0.358366996049881
1761505881584465400,8.03746533203125,0.8847156763076782,0.48809587955474854,-0.3566057085990906
1761505881604621300,8.057621337890625,0.8908056020736694,0.4703737199306488,-0.3630702495574951
1761505881624777500,8.077777587890624,0.8675535917282104,0.4604298174381256,-0.360263466835022
1761505881644933400,8.097933349609375,0.8757004737854004,0.45150497555732727,-0.3650374710559845
1761505881665089500,8.118089599609375,0.92131108045578,0.4533810317516327,-0.3773380219936371
1761505881685246500,8.13824658203125,0.9781482219696045,0.4358918070793152,-0.4084305465221405
1761505881705402600,8.158402587890626,1.0271071195602417,0.36159008741378784,-0.4578477740287781
1761505881725558500,8.17855859375,1.0402499437332153,0.2568070888519287,-0.4985530376434326
1761505881745714400,8.19871435546875,1.004785180091858,0.1828593909740448,-0.4793184995651245
1761505881765870600,8.21887060546875,0.9646347761154175,0.1430939882993698,-0.40702494978904724
1761505881786027500,8.239027587890625,0.9562991857528687,0.15839694440364838,-0.2830643057823181
1761505881806183700,8.25918359375,0.9655939936637878,0.19216035306453705,-0.18207505345344543
1761505881826339600,8.279339599609376,0.9746534824371338,0.2353883683681488,-0.14021755754947662
1761505881846495700,8.299495849609375,0.9514069557189941,0.24875596165657043,-0.1662263423204422
1761505881866651600,8.319651611328124,0.8956874012947083,0.20949459075927734,-0.16811224818229675
1761505881886808600,8.33980859375,0.8332757353782654,0.13877977430820465,-0.13486553728580475
1761505881906964500,8.359964599609375,0.7763921022415161,0.10793619602918625,-0.094708651304245
1761505881927120400,8.380120361328125,0.715287446975708,0.11825953423976898,-0.08802708983421326
1761505881947279400,8.400279296875,0.6763381958007812,0.1248825192451477,-0.07552745938301086
1761505881967436000,8.42043603515625,0.6255144476890564,0.17515257000923157,-0.08384613692760468
1761505881987592000,8.440592041015625,0.585976243019104,0.18089310824871063,-0.10440671443939209
1761505882007748000,8.460748046875,0.5408142805099487,0.17117369174957275,-0.10393481701612473
1761505882027904000,8.480904052734376,0.4989704191684723,0.15657657384872437,-0.10561850666999817
1761505882048060000,8.501059814453125,0.46766817569732666,0.12993274629116058,-0.1115725114941597
1761505882068217000,8.521217041015625,0.4158887267112732,0.10555733740329742,-0.08971847593784332
1761505882088373000,8.541373046875,0.3610345721244812,0.059253983199596405,-0.010328242555260658
1761505882108529200,8.561529052734375,0.32380765676498413,0.005060319788753986,0.06303684413433075
1761505882128685000,8.58168505859375,0.2787255048751831,-0.06027346849441528,0.051161106675863266
1761505882148841000,8.601841064453126,0.2579294443130493,-0.09284304827451706,-0.0005643698386847973
1761505882168998000,8.621997802734375,0.22596897184848785,-0.13542552292346954,-0.029663020744919777
1761505882189153800,8.64215380859375,0.17527547478675842,-0.1228426992893219,0.016815325245261192
1761505882209310000,8.66231005859375,0.14740318059921265,-0.07593366503715515,0.0749729797244072
1761505882229465900,8.6824658203125,0.1703428328037262,0.011796098202466965,0.08999796211719513
1761505882249622000,8.7026220703125,0.1917044073343277,0.06217217817902565,0.04094584658741951
1761505882269779000,8.722779052734374,0.18897517025470734,0.06666205078363419,-0.005813403055071831
1761505882289935000,8.74293505859375,0.1537158489227295,0.0016050133854150772,-0.03609374165534973
1761505882310091000,8.763091064453125,0.10599532723426819,-0.12259669601917267,-0.07823118567466736
1761505882330247000,8.783246826171874,0.08401352912187576,-0.187498539686203,-0.11111116409301758
1761505882350403000,8.803403076171875,0.09303633123636246,-0.15063324570655823,-0.13333390653133392
1761505882370560000,8.82356005859375,0.11069296300411224,-0.041777003556489944,-0.143532857298851
1761505882390716200,8.843716064453124,0.12911304831504822,0.034112561494112015,-0.15473060309886932
1761505882410872000,8.8638720703125,0.12425072491168976,0.057630881667137146,-0.15348415076732635
1761505882431028200,8.8840283203125,0.11398930102586746,0.08839136362075806,-0.13071706891059875
1761505882451184000,8.90418408203125,0.11664959043264389,0.16854171454906464,-0.08665074408054352
1761505882471341000,8.924341064453126,0.14181707799434662,0.2657897472381592,-0.0502215214073658
1761505882491497000,8.9444970703125,0.15289270877838135,0.31762179732322693,-0.006216452922672033
1761505882511652900,8.96465283203125,0.2071932852268219,0.36373981833457947,0.03961925208568573
1761505882531809000,8.98480908203125,0.24243204295635223,0.3653480112552643,0.04018205404281616
1761505882551965000,9.00496484375,0.2400895357131958,0.3344014585018158,0.02485186792910099
1761505882572122000,9.0251220703125,0.24645201861858368,0.2711103558540344,0.0321219377219677
1761505882592278000,9.045278076171876,0.27747127413749695,0.2188505083322525,0.05826759710907936
1761505882612434000,9.065433837890625,0.30594930052757263,0.13890093564987183,0.08012209087610245
1761505882632590000,9.085590087890624,0.28818345069885254,0.05743692070245743,0.09864020347595215
1761505882652746000,9.10574609375,0.2600812017917633,0.01265848707407713,0.1370706558227539
1761505882672903200,9.125903076171875,0.2582888901233673,0.003349573351442814,0.16874974966049194
1761505882693059000,9.14605908203125,0.2832806408405304,0.02661449834704399,0.18506520986557007
1761505882713215200,9.16621533203125,0.33509841561317444,0.07002928107976913,0.19704821705818176
1761505882733371100,9.18637109375,0.35187238454818726,0.10814661532640457,0.19800004363059998
1761505882753527000,9.206527099609374,0.33358803391456604,0.15357378125190735,0.1859496384859085
1761505882773683000,9.226682861328126,0.3083372712135315,0.22232770919799805,0.12243030220270157
1761505882793839900,9.24683984375,0.3294304609298706,0.31984585523605347,-0.010498549789190292
1761505882813996000,9.26699609375,0.3615007698535919,0.31781861186027527,-0.13196934759616852
1761505882834152000,9.28715185546875,0.35549136996269226,0.2262468785047531,-0.22242172062397003
1761505882854308000,9.30730810546875,0.33587804436683655,0.1667799949645996,-0.2454523891210556
1761505882874464000,9.327464111328124,0.3330881595611572,0.16153933107852936,-0.2764166593551636
1761505882894621200,9.34762109375,0.35850122570991516,0.14853279292583466,-0.3594669699668884
1761505882914777000,9.367777099609375,0.4105950891971588,0.15270119905471802,-0.43444401025772095
1761505882934933000,9.38793310546875,0.4810265004634857,0.1708071380853653,-0.4297734498977661
1761505882955089200,9.408089111328126,0.5427451729774475,0.1455453783273697,-0.3761974275112152
1761505882975244800,9.428244873046875,0.5929392576217651,0.13480736315250397,-0.31065633893013
1761505882995402000,9.448402099609375,0.6262710094451904,0.1419437676668167,-0.256885826587677
1761505883015558000,9.468557861328126,0.6424942016601562,0.14929291605949402,-0.2237635999917984
1761505883035713800,9.4887138671875,0.6450750231742859,0.1458299309015274,-0.23457127809524536
1761505883055869700,9.50886962890625,0.628757655620575,0.10050735622644424,-0.23520901799201965
1761505883076025600,9.529025634765626,0.6088833808898926,0.060698799788951874,-0.21025165915489197
1761505883096182800,9.549182861328125,0.5814058184623718,0.02845878340303898,-0.2162606418132782
1761505883116338700,9.569338623046875,0.5439013838768005,-0.0008187806233763695,-0.2559400498867035
1761505883136494800,9.589494873046876,0.5302783846855164,0.024445395916700363,-0.29183563590049744
1761505883156650800,9.609650634765625,0.5292230248451233,0.04898513853549957,-0.3135046064853668
1761505883176806700,9.629806640625,0.5241454243659973,0.0295102521777153,-0.30896297097206116
1761505883196963800,9.6499638671875,0.49783873558044434,0.04578055813908577,-0.26817023754119873
1761505883217119700,9.67011962890625,0.5080693960189819,0.12868209183216095,-0.2061040997505188
1761505883237276000,9.69027587890625,0.5209050178527832,0.23065011203289032,-0.15501555800437927
1761505883257431800,9.710431884765624,0.5242036581039429,0.33247488737106323,-0.11134445667266846
1761505883277587700,9.730587646484375,0.5205199718475342,0.37678077816963196,-0.08183424919843674
1761505883297744000,9.750743896484375,0.48315897583961487,0.34063196182250977,-0.0505666621029377
1761505883317900500,9.770900634765624,0.4454483687877655,0.2871798574924469,-0.0031277767848223448
1761505883338056700,9.791056640625,0.43648162484169006,0.2516309320926666,0.0490625724196434
1761505883358212600,9.811212646484375,0.46368205547332764,0.24446751177310944,0.09508516639471054
1761505883378368800,9.83136865234375,0.5064001679420471,0.24465347826480865,0.14260387420654297
1761505883398524700,9.851524658203125,0.5057539939880371,0.20428508520126343,0.19686010479927063
1761505883418681900,9.871681884765625,0.49567845463752747,0.17888560891151428,0.26043620705604553
1761505883438837800,9.891837646484374,0.48922058939933777,0.16675201058387756,0.28864067792892456
1761505883458993700,9.91199365234375,0.48268768191337585,0.16470691561698914,0.289405882358551
1761505883479149800,9.93214990234375,0.4960334599018097,0.14960068464279175,0.29689300060272217
1761505883499305700,9.9523056640625,0.49371227622032166,0.1487712860107422,0.2632266879081726
1761505883519463000,9.972462890625,0.4263371229171753,0.15833933651447296,0.17316854000091553
1761505883539618800,9.992618896484375,0.33271318674087524,0.18358655273914337,0.09754547476768494
1761505883559775000,10.01277490234375,0.19880619645118713,0.15925630927085876,0.109699547290802
1761505883579931000,10.032930908203125,0.1031494140625,0.0073451995849609375,0.23332664370536804
1761505883600086800,10.053086669921875,0.06364293396472931,0.05136500671505928,0.40437209606170654
1761505883620243700,10.07324365234375,0.12622922658920288,0.2058505266904831,0.5084840059280396
1761505883640399600,10.093399658203126,0.2246396541595459,0.36700671911239624,0.4776967167854309
1761505883660555800,10.1135556640625,0.2240849882364273,0.3908384144306183,0.2997204661369324
1761505883680711700,10.133711669921874,0.15876442193984985,0.3933645188808441,0.1295139193534851
1761505883700867600,10.15386767578125,0.08218881487846375,0.36984047293663025,0.06508684903383255
1761505883721023700,10.174023681640625,0.05694570392370224,0.31245753169059753,0.07488349825143814
1761505883741180700,10.1941806640625,0.09475242346525192,0.2774752974510193,0.08631667494773865
1761505883761336800,10.2143369140625,0.15187998116016388,0.21107853949069977,0.11575692892074585
1761505883781492700,10.23449267578125,0.21067318320274353,0.15004591643810272,0.15560919046401978
1761505883801649000,10.25464892578125,0.22297972440719604,0.10044816136360168,0.1456112414598465
1761505883821804800,10.2748046875,0.21240201592445374,0.04731328785419464,0.10065026581287384
1761505883841962000,10.2949619140625,0.18377548456192017,0.04201958328485489,0.07404826581478119
1761505883862118000,10.315117919921875,0.15774033963680267,0.05142982304096222,0.06564189493656158
1761505883882273800,10.335273681640626,0.17308369278907776,0.08355104178190231,0.053155235946178436
1761505883902429700,10.3554296875,0.17718441784381866,0.10623331367969513,0.04701715335249901
1761505883922585600,10.375585693359374,0.10993877053260803,0.04589226469397545,0.03760633245110512
1761505883942742800,10.39574267578125,0.05395062640309334,0.012385918758809566,0.017307991161942482
1761505883962898700,10.415898681640625,0.04612542316317558,0.06948070973157883,-0.02111775428056717
1761505883983055600,10.4360556640625,0.09355101734399796,0.11587365716695786,-0.04881139099597931
1761505884003211500,10.45621142578125,0.15898828208446503,0.1399892121553421,-0.06964164972305298
1761505884023367700,10.47636767578125,0.15517207980155945,0.1253911256790161,-0.17312690615653992
1761505884043523600,10.496523681640625,0.13643372058868408,0.09371069818735123,-0.2957059442996979
1761505884063680800,10.5166806640625,0.04085538163781166,0.0855221301317215,-0.37179043889045715
1761505884083836700,10.536836669921875,-0.05124505236744881,0.19271276891231537,-0.34010130167007446
1761505884103992600,10.55699267578125,-0.1581481546163559,0.11304473131895065,-0.2137383669614792
1761505884124148500,10.5771484375,-0.16514860093593597,-0.016031663864850998,-0.23581019043922424
1761505884144304600,10.5973046875,-0.08290331065654755,-0.011727813631296158,-0.29310840368270874
1761505884164461600,10.617461669921875,0.06496823579072952,0.16340577602386475,-0.31380030512809753
1761505884184617500,10.637617431640624,0.20746111869812012,0.2493724524974823,-0.34600627422332764
1761505884204773600,10.657773681640625,0.2358129918575287,0.22228974103927612,-0.3670395016670227
