time,seconds_elapsed,z,y,x
1761432101985260500,0.075260498046875,-0.7798901480078697,1.3812424687251448,0.04065539712384343
1761432102005202200,0.0952021484375,-0.5831143609762192,1.2959689083263277,0.04715582852642983
1761432102025144300,0.115144287109375,-0.39174364785850047,0.9511085921958088,-0.22295506116598843
1761432102045086500,0.13508642578125,-0.12604630029201508,0.7786854483932256,-0.7294043348085135
1761432102065028400,0.1550283203125,0.10621347257494926,0.706719697856903,-0.4899349958889186
1761432102084970500,0.174970458984375,-0.04648410327732563,0.7726733484968542,-0.14649126855805517
1761432102104912400,0.194912353515625,-0.8640905262172222,0.6419567183062433,-0.004054609153047204
1761432102124854300,0.214854248046875,-1.1428951926380395,0.4881035426780581,-0.4399746678683907
1761432102144796400,0.23479638671875,-1.137489534202218,0.2780278368294239,-0.9038414487820118
1761432102164738300,0.25473828125,-0.5407897154659033,0.27109511495679617,-1.5446886714763939
1761432102184680400,0.274680419921875,-0.030748189485073088,0.22348639156371353,-1.5099138568237422
1761432102204622300,0.294622314453125,0.39258068320453166,0.18211656256020067,-1.1545330234616995
1761432102224564200,0.314564208984375,0.33447920736968517,0.3744955759376287,-1.185278290337324
1761432102244506400,0.33450634765625,-0.3390905005574226,0.07891922293603419,-1.0495019656043498
1761432102264448500,0.354448486328125,-0.530353661647439,0.0922752558544278,-1.3780898499131202
1761432102284390400,0.374390380859375,-0.45359190900623797,0.047290158963203426,-1.5285324864454566
1761432102304332300,0.394332275390625,-0.15584113457500934,-0.01589753409475088,-1.511273308608681
1761432102324274200,0.414274169921875,-0.0661924278318882,0.6761103323206306,-1.564363239891827
1761432102344216300,0.43421630859375,-0.5817004025250673,0.8875736931353807,-1.0787849048424512
1761432102364158500,0.454158447265625,-0.9556202244013547,0.654721507333219,-0.8293240410014987
1761432102384100400,0.474100341796875,-0.635827129510045,0.38104952762573957,-1.057703611434251
1761432102404042500,0.49404248046875,-0.11876549563407897,0.2735425081089139,-1.4961907441586255
1761432102423984400,0.513984375,-0.0891144537359476,0.2667527018383145,-1.8420976467326282
1761432102443926300,0.53392626953125,-0.33117139799594875,0.16647066513895986,-1.5756268305756151
1761432102463868400,0.553868408203125,0.057789341145753854,0.003999298769235611,-1.1405988983944058
1761432102483810300,0.573810302734375,0.8073486482977866,-0.212314132425189,-1.0855794603534041
1761432102503752400,0.59375244140625,1.0836591598153114,-0.5347171175539494,-1.338733114297688
1761432102523694300,0.6136943359375,0.691290658056736,-0.7587839393541217,-1.3033639870136975
1761432102543636200,0.63363623046875,0.5161334131151437,-0.8454808105543256,-1.1943946398593486
1761432102563578400,0.653578369140625,0.7767781534671783,-0.9120596073552966,-1.276255323074758
1761432102583520500,0.6735205078125,1.2449100444793701,-1.195838262796402,-1.0762228723347187
1761432102603462400,0.69346240234375,1.5311282020270824,-1.2609817660972475,-0.9077652711622416
1761432102623404300,0.713404296875,1.5038257690817116,-1.1682631503894925,-0.7637683036379516
1761432102643346400,0.733346435546875,1.1645856309205294,-1.0127399957224725,-0.6950580477662384
1761432102663288300,0.753288330078125,0.8014286105990409,-1.0511293476104735,-0.796172882027924
1761432102683229700,0.773229736328125,0.3838204536437988,-1.2572495938315986,-1.0051504173763095
1761432102703171800,0.793171875,0.1747434034436941,-1.33590373609066,-0.9548990705199539
1761432102723113500,0.813113525390625,0.10508885245919226,-1.2529805382102728,-1.0393510123375802
1761432102743055600,0.8330556640625,-0.04745616317987442,-1.2427575426205992,-1.2802777104586363
1761432102762997500,0.85299755859375,-0.3182861974596977,-1.0957961723327636,-1.6011495404973626
1761432102782939600,0.872939697265625,-0.3464817798525095,-0.8940621783718466,-1.3666018028236926
1761432102802881800,0.8928818359375,-0.513783050596714,-0.6263926539495587,-0.7388096573397517
1761432102822823400,0.912823486328125,-0.7379892808675765,-0.3050482379630208,-0.27242820845777166
1761432102842765600,0.932765625,-1.2476841853678227,-0.008447510349750519,-0.015170133135654032
1761432102862707700,0.952707763671875,-1.6931114926189184,-0.07652180640548467,0.2778278390116058
1761432102882649600,0.972649658203125,-1.9020009112924336,-0.7581973716378212,0.5144029360607266
1761432102902591700,0.992591796875,-1.2096452543526888,-0.7265574940100312,0.052083786447905
1761432102922533600,1.01253369140625,-0.7180138298094272,-0.9945856226116419,-0.15604124199068173
1761432102942475500,1.0324755859375,-0.9867249722391367,-1.3558160587847232,-0.38709794094450767
1761432102962417700,1.052417724609375,-0.7092851644307374,-1.2077803372636438,-0.23734259255658835
1761432102982359600,1.072359619140625,-0.2625906137228012,-0.49955461875796314,-0.16795268385764212
1761432103002301700,1.0923017578125,-0.32459552673697467,0.05680822115391493,-0.4436939806524664
1761432103022243800,1.112243896484375,-0.7872855189561844,0.0030599720925092696,-0.21364238535426555
1761432103042185500,1.132185546875,-0.9734288528144359,-0.19962854611426592,0.361652789770998
1761432103062127600,1.152127685546875,-0.20382512102127073,0.019096622397005557,0.37663784866333005
1761432103082069800,1.17206982421875,0.5000689980208873,0.31875381497144695,0.2681816386628896
1761432103102011600,1.19201171875,0.6624439182788133,0.6191741008728743,0.24983992628641424
1761432103121953800,1.211953857421875,0.3903881415963173,0.6060644439309835,0.3820957487430423
1761432103141895400,1.2318955078125,0.14818565138578413,0.47971389999538655,0.35782099305577575
1761432103161837600,1.251837646484375,0.36850364204645153,0.47055210389643903,0.04962490378739312
1761432103181778700,1.27177880859375,0.5548755239635705,0.5793854035809636,-0.22253568497644735
1761432103201720800,1.291720947265625,0.7181102759212256,0.49268970142453905,-0.0731854102580808
1761432103221662500,1.311662353515625,1.1740765128433703,0.3377016765475273,-0.032976313863322136
1761432103241604600,1.3316044921875,1.7842150743454694,0.07469137610793113,-0.15816009730817748
1761432103261546500,1.35154638671875,2.207790030750632,-0.007113923658430576,-0.5606065053636208
1761432103281488600,1.371488525390625,2.041395937979221,-0.09830898306071757,-1.017282680653408
1761432103301430800,1.3914306640625,1.6667618303537368,-0.4033768025070429,-0.8660998202130198
1761432103321372400,1.411372314453125,1.4596727391004563,-0.6190092656999826,-0.5436905880065634
1761432103341314600,1.431314453125,1.2403215476453304,-0.8047899037256836,-0.49893144535832107
1761432103361256700,1.451256591796875,0.7192267127305269,-0.7431599615037441,-0.6798400203682482
1761432103381198600,1.471198486328125,0.17753449546694755,-0.8625526491254567,-0.6886384630475193
1761432103401140700,1.491140625,0.25152970600426194,-1.0694979479938744,-0.2298333859702572
1761432103421082600,1.51108251953125,0.7389233468472958,-1.384811559383571,0.42528756900932635
1761432103441024500,1.5310244140625,0.8823235175222158,-1.3446551978230477,0.14423607350979
1761432103460966700,1.550966552734375,0.4642623561024666,-1.00703798468858,-0.4056426285471767
1761432103480908500,1.570908447265625,-0.6710363900572062,-0.8011550543546676,-0.31695633709542453
1761432103500850700,1.5908505859375,-1.4014420839279889,-0.4151972964212298,0.1963786044076085
1761432103520792800,1.610792724609375,-1.3922721045225859,-0.1931017746940255,0.711711368664354
1761432103540734500,1.630734375,-0.7694751369774341,-0.23733108478188514,0.8563166773453355
1761432103560676600,1.650676513671875,-0.11167875224351882,-0.9107935329422354,0.9924576706722378
1761432103580618500,1.670618408203125,0.113405429905653,-0.6818386468395591,0.4509445363026112
1761432103600560600,1.690560546875,-0.1150344924122095,-0.31635815200656653,0.26320691899023946
1761432103620502800,1.710502685546875,-0.781222857916355,0.21372692183256148,-0.635940088365227
1761432103640444400,1.7304443359375,-2.018848590606451,1.227585984712839,-1.5411800788335501
1761432103660386600,1.750386474609375,-2.652652105334401,1.4376532149940728,-0.6819668032638728
1761432103680329200,1.7703291015625,-2.327990527623892,1.5605945350080728,0.3942281946832314
1761432103700271000,1.79027099609375,-0.7723217585802078,1.3905126936346293,0.64697045481503
1761432103720213200,1.810213134765625,0.4892588501930237,0.53741088668257,0.48812524305321275
1761432103740155100,1.830155029296875,1.168055352857709,0.04635930785387754,0.05100421105027198
1761432103760097300,1.85009716796875,1.226849487131834,-0.09973521647155284,-0.4687739883080125
1761432103780039400,1.870039306640625,0.8025900555938482,-0.08104483678787947,-0.38063090035486963
1761432103799981300,1.889981201171875,0.5789262616366148,0.028394904357194897,-0.16251014574384315
1761432103819923200,1.909923095703125,0.8325532321810721,0.15553075345158576,-0.21864746363256124
1761432103839865000,1.929864990234375,1.0544430022031068,-0.006968085446953773,-0.07818517304044216
1761432103859807200,1.94980712890625,0.9143886348247527,-0.2566796361133456,-0.02609958736109547
1761432103879749400,1.969749267578125,0.9923843131750821,-0.549048425245285,-0.1682966201907955
1761432103899690200,1.989690185546875,1.0145581510603427,-0.8159989877432584,-0.4463575373059138
1761432103919632100,2.009632080078125,0.7850514762938022,-0.7492930574312806,-0.46510147380772976
1761432103939574300,2.02957421875,0.3145721453726291,-0.7631704838752746,0.05715535409115254
1761432103959516200,2.04951611328125,-0.2839718399256468,-0.6320329979240894,0.37362734173573553
1761432103979458300,2.069458251953125,-0.22222820819616315,-0.39089550659656525,-0.06261993050682359
1761432103999400200,2.089400146484375,0.20085867243111133,-0.44066316158920527,-0.299157974348031
1761432104019342000,2.109342041015625,0.0452262121707201,-0.4783893733933568,-0.6154268771685659
1761432104039284200,2.1292841796875,-0.6672732381314039,-0.2893263526961207,-0.5884759610746055
1761432104059226400,2.149226318359375,-1.5706050568908452,-0.04109042754024267,-0.5193127007383853
1761432104079168300,2.169168212890625,-2.3376018210560083,-0.1265603872939944,0.02464216422755271
1761432104099110400,2.1891103515625,-1.9509341612875462,-0.4415145177215338,0.4581685327393934
1761432104119052300,2.20905224609375,-0.8368389466762542,-0.662922057184577,0.16552914650514722
1761432104138994200,2.228994140625,-0.7121843930035829,-1.2258315422609447,0.7854769351642579
1761432104158936300,2.248936279296875,-0.9342313994139433,-1.2757155171096324,0.6387688820503652
1761432104178878200,2.268878173828125,-0.8111924642443656,-0.5107607801660895,0.10440138165168464
1761432104198820400,2.2888203125,-0.2964092966943979,0.6138713182896375,0.33726861889250576
1761432104218762200,2.30876220703125,-0.14330664717257022,1.0145718873247505,1.5205460177361965
1761432104238704000,2.3287041015625,-0.6092173550039529,0.8493515145078301,2.244398344440758
1761432104258646300,2.348646240234375,-0.4219049773663282,0.7025926810547709,1.9481163273878395
1761432104278588400,2.36858837890625,0.25058219602108,0.34741993748545646,1.9414568694986403
1761432104298530300,2.3885302734375,0.8243208258867263,0.18518121082782743,1.8225019887723028
1761432104318472200,2.40847216796875,1.1471423286885023,0.26719898430109024,1.7422051938727496
1761432104338414000,2.4284140625,1.3923305567115545,0.22940847508907317,1.5879985286317764
1761432104358356200,2.448356201171875,1.7907441838532685,0.2920227521732449,1.1911050967946648
1761432104378298400,2.46829833984375,1.7698638929098844,0.49404170055538416,0.802150202871859
1761432104398240300,2.488240234375,1.5922534095972776,0.46268531604409213,0.613430296523869
1761432104418182100,2.50818212890625,1.3617834427565336,0.21825316708534956,0.5386244271907955
1761432104438124300,2.528124267578125,1.3312754917681215,-0.31126638182550664,0.7554416431888937
1761432104458066200,2.548066162109375,1.6829454879134893,-0.681842446231842,0.7254428107663988
1761432104478007300,2.56800732421875,1.6075602843225,-0.6808204097077251,0.5598296392396092
1761432104497949400,2.587949462890625,1.0032517441481352,-0.5068018134072423,0.5862720943547785
1761432104517891000,2.60789111328125,0.500685084092617,-0.2871189057797193,0.6268078106217086
1761432104537833200,2.627833251953125,0.40515842522680756,-0.35889907061606646,0.7152392505295574
1761432104557775400,2.647775390625,0.17076690102815628,-0.7265124858245253,0.5866401970148086
1761432104577717200,2.66771728515625,-0.3004454203426838,-1.109919097970426,0.33322073174118993
1761432104597659400,2.687659423828125,-0.8477268359154463,-1.1644362855777144,0.02671447698958218
1761432104617601300,2.707601318359375,-0.8875696014821529,-0.7007528984069824,-0.11089589477013796
1761432104637543200,2.727543212890625,-0.9461474626570939,-0.12653963676691055,-0.2503166769526899
1761432104657485300,2.7474853515625,-1.3816659548342227,0.3227788327038288,-0.2967176685238257
1761432104677429800,2.7674296875,-1.9050263965934513,0.12602204263359307,0.3104678518589586
1761432104697371600,2.78737158203125,-1.6232272245317696,-0.22364567377865313,0.2524533967204392
1761432104717313800,2.807313720703125,-0.8403706279337406,-1.2352619261682032,0.925282880739495
1761432104737256000,2.827255859375,0.00409691392481327,-1.1363158142477274,0.29034393224082883
1761432104757197800,2.84719775390625,0.8326929329127073,-0.6015177404120564,-0.949893590382859
1761432104777140000,2.867139892578125,0.39648470490574833,0.4474529678598046,-1.6534047745220362
1761432104797081600,2.88708154296875,-0.77966569160223,1.56509418451488,-1.3351247145421803
1761432104817023700,2.907023681640625,-1.3807728053867816,1.6342483847618101,0.04852649582512676
1761432104836966000,2.9269658203125,-1.0371171888709068,1.3754963262885809,0.7222842736702412
1761432104856907800,2.94690771484375,0.42900282667279244,0.8545078743577003,0.5988732903178781
1761432104876850000,2.966849853515625,1.3110428510785102,0.32117402785569427,0.2842672426756471
1761432104896791800,2.986791748046875,1.3273457511037587,0.10927782858163118,0.14177987599670885
1761432104916733700,3.006733642578125,0.7286977209091187,0.3345794528737664,0.13650982663929462
1761432104936675800,3.02667578125,0.2055138047605753,0.5606064688310026,0.0840512520622462
1761432104956617000,3.046616943359375,0.2292290268689394,0.6340890536710619,0.057596302791684865
1761432104976558600,3.06655859375,0.5647212106734514,0.31177345456480976,-0.010428016642481087
1761432104996500700,3.086500732421875,0.7002402727097272,0.015079787971079348,-0.3434232325321063
1761432105016443000,3.10644287109375,0.6888730755209922,-0.17615327024161814,-0.465569420113042
1761432105036384800,3.126384765625,0.6132406191706657,-0.3120408733293414,-0.4532986982133239
1761432105056327000,3.146326904296875,0.4924819038927555,-0.2275292372137308,-0.2657300077270716
1761432105076268800,3.166268798828125,0.25404899534881115,-0.24398089805990456,0.0052614276595413685
1761432105096210700,3.186210693359375,0.16969547240436075,-0.40307635825574395,0.2546737761836499
1761432105116152800,3.20615283203125,0.5802636477202177,-0.654960284525156,0.018971352049522102
1761432105136094700,3.2260947265625,0.9927046311706303,-0.9401897232964634,-0.5894710730591789
1761432105156036900,3.246036865234375,0.7767442511975765,-1.3590513874441383,-0.9543394638758153
1761432105175979000,3.26597900390625,0.1875660601377487,-1.4103478594392538,-1.0784645137816666
1761432105195920600,3.285920654296875,-0.8508259709745645,-1.1017124106392264,-0.8588182849027216
1761432105215862800,3.30586279296875,-1.633650418868661,-0.43747897859513757,-0.40495724009890105
1761432105235804700,3.3258046875,-1.8264578867912291,-0.026274843463301657,0.11513126731757074
1761432105255746800,3.345746826171875,-1.5715928988844154,-0.44084553241878743,1.0801663492634892
1761432105275689000,3.36568896484375,-0.7704957121968269,-0.42253918361663817,0.6159903562702238
1761432105295630600,3.385630615234375,-0.4837357028573751,-1.6226178604617714,1.2129171156302094
1761432105315572700,3.40557275390625,-0.43514381364583965,-1.1334370439410208,0.005344795094057917
1761432105335515000,3.425514892578125,-0.3343412602037191,-0.8412021103218197,-0.6795240132216364
1761432105355456800,3.445456787109375,-0.5916653317004442,0.06953560077995062,-0.7755030920300632
1761432105375399000,3.46539892578125,-0.6689829646587372,0.7556658073335886,0.6576972352083772
1761432105395339800,3.48533984375,-0.05861176344454288,1.3012106083720922,1.4655793327957392
1761432105415281700,3.50528173828125,0.7149193709254265,1.2016411038562655,1.7043864814795553
1761432105435223800,3.525223876953125,0.9312462461233139,0.8320701248392463,1.2623922174170612
1761432105455166000,3.545166015625,0.5712082346051931,0.35518151139765974,0.8312539130855351
1761432105475107600,3.565107666015625,0.032709260424971576,0.011655366480350494,0.8561422706265002
1761432105495049700,3.5850498046875,0.0512736756414175,0.1969970285668969,0.8288434178777039
1761432105514991900,3.604991943359375,0.2533756261318922,0.8002695036917924,0.6593282704763114
1761432105534933800,3.624933837890625,0.2389133855372667,1.1802663073942063,0.6612792584136128
1761432105554876000,3.6448759765625,0.38961306557059283,1.1430626581594348,0.7084156881198287
1761432105574817800,3.66481787109375,0.9337930079966783,0.55101592592597,0.6529368158735335
1761432105594759700,3.684759765625,1.5395219363629817,-0.2541150463223457,0.44536260798443106
1761432105614701800,3.704701904296875,1.6751175707668065,-0.5463245532393455,-0.21507212589643895
1761432105634643700,3.724643798828125,0.9676654669821262,-0.693181586369872,-0.3301136325713247
1761432105654585900,3.7445859375,0.40008302165865894,-0.4265048723772168,0.5532413103578612
1761432105674525200,3.764525146484375,0.864682062369585,-0.03302636355012655,1.0909963708356023
1761432105694467300,3.78446728515625,1.7137667426347731,-0.1871975190863013,1.0686410389035939
1761432105714409500,3.804409423828125,1.9170465047329663,-0.8715911111056804,0.5165647902697325
1761432105734351000,3.82435107421875,1.2949550551086664,-1.4370271920502184,0.07521108913309872
1761432105754293200,3.844293212890625,-0.021859949630498886,-1.4387135377019642,-0.27761713713668285
1761432105774234400,3.864234375,-1.5088701929897068,-0.8218941832616925,-0.3346238400047645
1761432105794176300,3.88417626953125,-2.577826289191842,-0.1915969230890274,-0.39053500272110103
1761432105814118100,3.9041181640625,-2.5386457869261503,0.5156397843793035,0.07309910194780678
1761432105834060300,3.924060302734375,-1.8465192625671625,0.3915522169396281,1.0922080116476862
1761432105854002200,3.944002197265625,-1.1625164234310388,-0.13165537234544752,0.8455689272291957
1761432105873944300,3.9639443359375,-0.750327368915081,-0.7016328961119055,0.5967763180386275
1761432105893886200,3.98388623046875,-0.38737434673309323,-0.5356161122202873,-0.08466335607860237
1761432105913827000,4.0038271484375,-0.23232173218727112,-0.25002690022587776,-0.6576888327062129
1761432105933769200,4.023769287109375,-0.38079379929900165,0.032926118046045304,-1.818410481674969
1761432105953711400,4.04371142578125,-0.8062789732396602,0.621099223716557,-2.2877122932493683
1761432105973653200,4.0636533203125,-0.04166296673119068,1.19062929597646,-0.9128616444531827
1761432105993595400,4.083595458984375,0.4044154979050159,1.2194488554865122,-0.021748593643936328
1761432106013537300,4.103537353515625,0.7594979328423738,0.7024921432897449,0.48256863183937965
1761432106033479200,4.123479248046875,1.0540636474967002,0.32069968834221363,0.5593966546498239
1761432106053421300,4.14342138671875,0.605737111672759,-0.09078443277478218,0.3852207854283973
1761432106073363200,4.16336328125,-0.021612112349271774,0.04171498917937279,0.19385763456262647
1761432106093305300,4.183305419921875,-0.27601298987567424,0.0840302823394537,0.6089202717535197
1761432106113246200,4.20324609375,-0.3948819458842277,0.31852965082675216,0.6440677921760827
1761432106133188400,4.223188232421875,-0.16778233225941658,0.5462669778332114,0.4366507110774517
1761432106153130200,4.243130126953125,0.3890659530818462,0.486093371899426,0.1099659204436466
1761432106173072400,4.263072265625,0.8853823205709457,0.022060732899606226,-0.11184981622779741
1761432106193014300,4.28301416015625,1.4178250634521246,-0.3722413672700524,-0.28167021191976965
1761432106212956200,4.3029560546875,1.7462381026506424,-0.9685083475470543,-0.33575375735014673
1761432106232898300,4.322898193359375,1.5010878685504196,-1.1754717665940522,-0.2746139002000913
1761432106252840200,4.342840087890625,0.8224597081899643,-0.93048870575428,0.05408807090844493
1761432106272782300,4.3627822265625,0.24020927056670188,-0.4271151132300496,0.441330575989373
1761432106292725200,4.382725341796875,-0.2601023040384054,-0.25374387492239475,0.8055204099573194
1761432106312667100,4.402667236328125,0.026871055790781972,-0.4525643195241689,0.7360738026350736
1761432106332609300,4.422609375,0.5903934120684862,-0.7017956854581833,-0.22068928992478176
1761432106352551200,4.44255126953125,0.21823650821149349,-0.686055387751758,-1.207968334116414
1761432106372493300,4.462493408203125,-1.0862141049951315,-0.7990732796445489,-0.8489540396228432
1761432106392435200,4.482435302734375,-2.1075006875276565,-1.1936340307503939,0.7461866158485412
1761432106412377300,4.50237744140625,-1.834104602152109,-1.0846002400577068,1.2750498928077518
1761432106432319200,4.5223193359375,-0.3355664180845022,-1.7766446390911936,1.407724379067868
1761432106452261000,4.54226123046875,0.4196083908617496,-1.4924474659770726,-0.2588231144154444
1761432106472203300,4.562203369140625,0.5295727404028177,-0.8241697269782423,-1.5712560681454837
1761432106492145400,4.5821455078125,-0.12916355552971362,-0.060194064199924464,-0.9008852293249219
1761432106512086300,4.602086181640625,-0.8651251299619674,0.46481794415861366,0.46720575261060143
1761432106532028200,4.622028076171875,-0.7975988231778144,0.8017834153860807,0.6205760766252875
1761432106551970300,4.64197021484375,-0.40493747595250607,0.4983811910644173,0.09635278922533616
1761432106571912200,4.661912109375,-0.5421691871255636,0.481736637994647,-0.008350922674057074
1761432106591854300,4.681854248046875,-0.9638865329653024,0.6201832779154182,0.5456539605014026
1761432106611796200,4.701796142578125,-1.0156839402198792,0.8251356494009494,1.216152225093916
1761432106631738000,4.721738037109375,-0.17706863152086733,0.884173237042129,1.3404700210928917
1761432106651680300,4.74168017578125,1.0301549486428498,0.9256538329437375,0.6690756844434886
1761432106671625000,4.761625,1.6936317171007393,1.0618053476646543,0.161590985072311
1761432106691566800,4.78156689453125,1.1637608705341815,0.7468412803649902,0.3761183548338711
1761432106711509000,4.801509033203125,0.4623164827316999,0.6372308588281274,0.834300952631235
1761432106731451100,4.821451171875,0.43273149180710313,0.14702975934892892,1.2597503246061503
1761432106751393000,4.84139306640625,0.6616022067576647,-0.2152750280573964,0.9325308791063726
1761432106771335000,4.8613349609375,1.1533330000221729,-0.13790800299942493,0.2950839298421517
1761432106791277000,4.881277099609375,1.0987725577950478,0.059763856089115136,0.22698409748636184
1761432106811219000,4.901218994140625,0.2269891389876604,0.2230737191095948,0.8849787082061171
1761432106831161000,4.9211611328125,-0.19490531698465346,0.29084201795607806,1.5055574151799083
1761432106851102200,4.941102294921875,-0.01919628337919712,-0.06485621079206466,1.6642749819740652
1761432106871043800,4.9610439453125,0.6878431479513645,-0.3612447569593787,0.9833296307124197
1761432106890986000,4.980986083984375,0.7504910350441932,-0.248562380631268,-0.33413992894534017
1761432106910928100,5.00092822265625,-0.3532201481968164,0.12860592164695261,-0.8041572318453342
1761432106930870000,5.0208701171875,-1.3114204522192476,0.6525429942503571,-0.15130254129730164
1761432106950812200,5.040812255859375,-2.001582398506999,0.25240327396839857,1.0456825534466654
1761432106970753800,5.06075390625,-1.5501888763278722,-0.1891065675780177,0.9833522809356451
1761432106990696000,5.080696044921875,-0.3970394161790609,-0.5020402980938553,-0.152236680342257
1761432107010638000,5.10063818359375,0.1751058070152998,-0.4697311429023742,-1.1534646635778247
1761432107030580000,5.120580078125,-0.23268647384643554,-0.23838994618505238,-1.136076525599137
1761432107050522000,5.140522216796875,-0.48909050788879394,0.40570407641083,-1.231894203300774
1761432107070464000,5.160464111328125,-0.2108364610880613,1.079640571823716,-1.6581341411314903
1761432107090406000,5.180406005859375,-0.21585458151102066,0.9770701319262385,-1.5328731459982692
1761432107110348000,5.20034814453125,-0.5170265625625848,0.9900734058842062,-0.9848188463568687
1761432107130290000,5.2202900390625,-0.6609264994531869,0.9994505982995032,-0.24210940509960055
1761432107150232000,5.240232177734375,-0.49976563116014,0.9625739890620112,0.16311958287907763
1761432107170174000,5.260174072265625,0.0887140562415123,0.5916533490017056,0.1385560551119968
1761432107190115000,5.280114990234375,0.8584960672110319,0.20574995160400866,-0.11886687364932148
1761432107210057000,5.300056884765625,1.3011889810621737,0.3118067723125219,-0.6941228858079761
1761432107229999000,5.3199990234375,1.0835989540606736,0.6579390080749988,-0.8204132239889353
1761432107249941000,5.33994091796875,0.26831834371984004,0.8948565436199307,-0.4380713915303349
1761432107269883000,5.3598828125,-0.1281137542158365,0.5610267400696873,0.07723526103761978
1761432107289825000,5.379824951171875,0.2555938867032528,-0.20086831704229116,-0.02615753722656518
1761432107309767000,5.399766845703125,1.3094926990270614,-0.5214829574495554,-0.9694733201216906
1761432107329709000,5.419708984375,1.3564794911295175,-0.7912190590128302,-1.331858552353084
1761432107349651200,5.439651123046875,0.6849404122471809,-0.7246911156162619,-0.4899572442533448
1761432107369592800,5.4595927734375,0.1765688653051853,-0.844430863109976,0.5825791581209748
1761432107389535000,5.479534912109375,0.1336784026056528,-0.7512367388449609,0.8199211296230554
1761432107409477000,5.49947705078125,0.24002105451822278,-0.8012586608596146,0.09523423352418467
1761432107429419000,5.5194189453125,0.16463292831778525,-1.0594273664869367,-0.6796134450707584
1761432107449361200,5.539361083984375,-0.4367722916305065,-1.062234678992629,-1.137184486841038
1761432107469302800,5.559302734375,-0.6064987436950207,-0.7817040655620395,-1.512167480969429
1761432107489245000,5.579244873046875,-1.0137193621486424,-0.651525049379468,-1.2920672247126699
1761432107509186000,5.59918603515625,-1.2629957362681627,-0.3957736340269446,-0.5428451866909861
1761432107529128200,5.619128173828125,-1.102974101138115,-0.09754325938522815,0.6874816942278296
1761432107549069800,5.63906982421875,-0.5006745626986027,-0.5378349573135376,2.435732963331789
1761432107569012000,5.659011962890625,0.43404841962456703,-0.4751821017846465,1.9260225690014658
1761432107588953900,5.678953857421875,0.5536491970390081,-0.8240797106072306,1.1336235794890672
1761432107608896000,5.69889599609375,0.14714052624702453,-0.4648664594754576,0.2949666966706514
1761432107628838100,5.718838134765625,-0.48355216298401354,0.06483633704781532,-0.1713037478512153
1761432107648780000,5.738780029296875,-0.7455307822883128,0.4847366965934634,-0.34864385325722397
1761432107668722000,5.758721923828125,-0.3845096049517393,0.8814911583513021,-0.08484147999132984
1761432107688661000,5.778660888671875,0.09806289934515952,1.1034764977023004,0.13751830956209452
1761432107708603000,5.798602783203125,0.14430325699448585,0.48811260276734825,0.4020941422853619
1761432107728545000,5.818544921875,0.08130757937729358,-0.08206015131026506,0.31320063782371577
1761432107748487000,5.83848681640625,0.4272258801281452,-0.16422843917012214,0.40863030258845534
1761432107768429000,5.858428955078125,0.6864689369887114,0.3391173885643482,0.11603660039314999
1761432107788371200,5.87837109375,0.776808548605442,0.8307876838132738,-0.05238591119963675
1761432107808312000,5.89831201171875,0.7653028197288513,1.099843255766481,0.054787227587169036
1761432107828254000,5.91825390625,0.8543506379693746,0.8866901882991194,0.11699667759696021
1761432107848196000,5.938196044921875,1.2960364206045865,0.2973421936303377,-0.05467888097502291
1761432107868138000,5.958137939453125,1.5751771871119737,-0.15075696317851542,-0.35532800719626245
1761432107888080000,5.978079833984375,1.6943500945031642,-0.28974048645496364,-0.6508736727986484
1761432107908022000,5.99802197265625,1.0865963823109865,-0.5083342836715281,-0.3678496351171285
1761432107927964000,6.0179638671875,0.27677929807305335,-0.5654555162973701,0.019570048595033585
1761432107947906000,6.037906005859375,-0.48940264257788657,-0.7653333609975874,0.10150474689472466
1761432107967848000,6.057847900390625,-0.7325783617347479,-0.8092254019550978,-0.2843732055344619
1761432107987790000,6.0777900390625,-0.8373924889057874,-0.6997481052786111,-0.9025247401602565
1761432108007732000,6.09773193359375,-0.521881016856432,-0.7122973518587649,-0.7144254499286413
1761432108027673900,6.117673828125,0.05716740985512733,-0.7570186832472682,-0.38326917643658814
1761432108047616000,6.137615966796875,0.6685755529016256,-0.7359978147894144,-0.6149081139914692
1761432108067558100,6.15755810546875,0.5726555108040571,-0.5449433280140161,-1.0351271110322326
1761432108087499000,6.1774990234375,-0.630103491166234,0.08507657652199267,-0.6427141125448048
1761432108107441000,6.19744091796875,-1.751218229150772,0.7798924860954284,0.10307981419172138
1761432108127383000,6.217383056640625,-1.7591349936246872,0.33135026169419285,0.8168417221777141
1761432108147325000,6.237324951171875,-0.938138928246498,-0.5256269253864884,0.7502272695414721
1761432108167267000,6.25726708984375,-0.2671703427284956,-1.1763029567211867,0.38372839144617316
1761432108187209000,6.277208984375,0.40929508664011954,-0.6724556092053652,-0.638057299714908
1761432108207150800,6.29715087890625,0.9427525595217943,0.2328226674467325,-1.5083566905096173
1761432108227093000,6.317093017578125,0.021432079607248303,1.2294321971014142,-1.4760297074005007
1761432108247035100,6.33703515625,-1.1559095725119113,1.4080275997981428,-0.5892492835346609
1761432108266977000,6.35697705078125,-1.1337690523743629,1.4969976766273378,0.08845909509975462
1761432108286919000,6.3769189453125,-0.23528876529932022,1.1123501245096326,0.34827271838989105
1761432108306860800,6.39686083984375,0.6564069762021303,0.37967151727080345,0.030003508597612378
1761432108326803000,6.416802978515625,0.9865729965478182,-0.004352934512495995,-0.25979820652529595
1761432108346745000,6.4367451171875,0.7537778016299009,0.3141419372618198,-0.4016689756758511
1761432108366686200,6.456686279296875,0.522031823503971,0.6210013163000345,-0.3032310690058395
1761432108386627800,6.4766279296875,0.3513467555403709,0.6153589264988899,-0.3428594977021217
1761432108406570000,6.496570068359375,0.16405366712510586,0.5116989377990365,-0.015915836936421693
1761432108426512100,6.51651220703125,0.3364402783095836,0.28944442611783744,0.13374651767211035
1761432108446454000,6.5364541015625,0.9890753347575664,-0.18420710509866475,-0.2290070181487128
1761432108466396200,6.556396240234375,1.2498422401845455,-0.5477095778569578,-0.7812097792390733
1761432108486337800,6.576337890625,1.5435709194928406,-0.7272104049608111,-1.0483346023254096
1761432108506280000,6.596280029296875,1.1882833173722027,-0.8517129829421639,-0.8104714564934372
1761432108526222000,6.61622216796875,0.32572131589651104,-0.8825755925871431,-0.23949792569326236
1761432108546164000,6.6361640625,-0.2101888108342886,-0.3960727631039917,0.1468206649092026
1761432108566106000,6.656106201171875,-0.13535773399472237,-0.014825228688120841,0.4673254700001329
1761432108586048000,6.676048095703125,0.12438918073475361,-0.17889453177377582,0.35913488866593685
1761432108605990000,6.695989990234375,0.1251864685922861,-0.4440034119278192,-0.5830253309858963
1761432108625931000,6.715930908203125,-0.6952730056911707,-0.5014052150607109,-1.1956682399917393
1761432108645873200,6.735873046875,-1.6721628126144408,-0.32548955296725035,-0.8287370348937809
1761432108665815000,6.75581494140625,-1.8000836746066808,-0.5040270879969001,0.30464822406107556
1761432108685757400,6.77575732421875,-0.7724994532346725,-0.6424322268635034,1.1238359065767376
1761432108705699300,6.79569921875,0.5437906508475542,-0.9563771802484988,1.3792374125130473
1761432108725641500,6.815641357421875,1.0577806221932171,-0.6078527886524796,0.0636412820443511
1761432108745583600,6.83558349609375,0.015877368089556695,-0.09024375002682208,-0.9922394978769123
1761432108765525500,6.855525390625,-1.6187480332911013,0.6168126324385405,-1.1836025391448288
1761432108785467400,6.87546728515625,-2.6439894909292456,1.017748763795197,0.2823257897516712
1761432108805409500,6.895409423828125,-2.134564051020145,1.2141478264689445,2.2682757713735104
1761432108825351400,6.915351318359375,-0.4985287828415632,1.3394050222098826,2.5311186062917113
1761432108845293600,6.93529345703125,0.547226470515132,1.2092241063311695,1.7333723374672234
1761432108865235500,6.9552353515625,0.017498831811547277,0.5792264136269688,0.7175187397688627
1761432108885176300,6.97517626953125,-1.0589081649184227,0.12458996400386094,0.1665017909295857
1761432108905118500,6.995118408203125,-1.0172399374902248,0.09116612556874752,0.33503413783870634
1761432108925060600,7.015060546875,0.11066051511168479,0.15661650286167858,0.729566028176248
1761432108945002500,7.03500244140625,1.0460697261333465,0.3251408856600523,0.5105578414725139
1761432108964944600,7.054944580078125,1.2559288666218518,0.38377193832695483,0.30035072779655453
1761432108984886500,7.074886474609375,0.9540215570330619,0.36219285146445035,0.42804574514366683
1761432109004828400,7.094828369140625,0.7012690312355756,0.13381430394500493,0.5051770617496222
1761432109024770600,7.1147705078125,0.6516805322021245,-0.15070260264277457,0.17818273024260997
1761432109044712400,7.13471240234375,0.6336930400907993,-0.4355300364844501,-0.034801994920521974
1761432109064654600,7.154654541015625,0.7294412327527999,-0.28096754354313014,-0.10545819722823797
1761432109084596500,7.174596435546875,0.5998059680581093,-0.1435696820229292,0.0755754654660821
1761432109104538400,7.194538330078125,0.8066969063907862,-0.21615385671854018,0.70969082262218
1761432109124480500,7.21448046875,1.4346329903900623,-0.371348802344501,0.7231989042971283
1761432109144421600,7.234421630859375,1.7209674677938223,-0.7293129301980137,0.41098954253308473
1761432109164363300,7.25436328125,1.1341834783941507,-0.8495315472498536,0.2090804112009704
1761432109184305400,7.274305419921875,0.008451602002978325,-0.7410735106185078,0.15606997489482163
1761432109204247600,7.29424755859375,-0.5438093555480241,-0.5452843965366483,0.24976839542016385
1761432109224189400,7.314189453125,-0.5288222142964601,-0.30815000337064263,0.21020276629440485
1761432109244131600,7.334131591796875,-0.19458266090154647,-0.17761691305339336,0.07141315815486013
1761432109264073700,7.35407373046875,-0.23853227726519105,0.15683832891881466,-0.2180281992230564
1761432109284015400,7.374015380859375,-1.046913775742054,0.32721126219332214,-0.3375936861284077
1761432109303957500,7.39395751953125,-1.6417022078990935,-0.17711539327204226,-0.021903788772225378
1761432109323899400,7.4138994140625,-1.2416402290284634,-1.0435293940007686,0.12120317110978066
1761432109343841500,7.433841552734375,0.1358522395133972,-1.5284060835868118,0.13181684651747344
1761432109363782400,7.453782470703125,1.0782733751237392,-0.9847910815671086,-0.7870018066439777
1761432109383724500,7.473724609375,0.369651643037796,0.0686538495093584,-1.609069519841671
1761432109403666400,7.49366650390625,-1.6096096180677413,1.2688105600267647,-1.2453849685147405
1761432109423608600,7.513608642578125,-3.0260569634258747,1.3643687830746174,-0.08004420837797224
1761432109443550500,7.533550537109375,-2.0347890870600938,1.44009213257879,0.0541157671995461
1761432109463492400,7.553492431640625,0.2518552846968174,1.050703231152892,-0.6204973123006522
1761432109483434500,7.5734345703125,1.6432611277788876,0.5146247621178627,-0.5396668489158153
1761432109503376400,7.59337646484375,1.9423375978559254,-0.12669102793633938,-0.17433942575268446
1761432109523318500,7.613318603515625,2.021522778251767,0.17150953608900307,0.32684407284874467
1761432109543260700,7.6332607421875,1.6480705738872288,0.5629942407503724,0.295571311500296
1761432109563202300,7.653202392578125,0.6846428906053305,0.6488958699196576,-0.24294406582545489
1761432109583144400,7.67314453125,-0.7135001517772674,0.5373670475408434,-0.506255175842531
1761432109603086600,7.693086669921875,-1.1059551627755164,0.33259412427544593,-0.288921644352749
1761432109623027500,7.71302734375,0.5202905327945947,-0.12496551931798458,-0.3999349549574777
1761432109642969600,7.732969482421875,1.9491823491841553,-0.29699352632313963,-0.9076720399208367
1761432109662911500,7.752911376953125,2.454095864626765,-0.1266182549610734,-1.037802394656092
1761432109682853400,7.772853271484375,1.206768822133541,0.027127660900354383,-0.3983403792424127
1761432109702795500,7.79279541015625,-0.4367413119703531,0.13640285913348196,-0.022404687499068675
1761432109722737700,7.812737548828125,-1.01952424903512,0.0741477707505226,-0.021793058406747876
1761432109742679600,7.832679443359375,-0.35569618292152877,0.03329261327087879,-0.16503675987832248
1761432109762621400,7.852621337890625,0.6035509998053312,-0.4672022089466452,0.15545967924306167
1761432109782563300,7.872563232421875,0.784468123447895,-0.5056058816209436,0.17440726682450622
1761432109802505500,7.89250537109375,0.4347457542389631,-0.38388533557355403,-0.06526886497987434
1761432109822447600,7.912447509765625,-0.6756243023693561,-0.3200678201794624,-0.20696349211223422
1761432109842388500,7.932388427734375,-2.0575147136092187,-0.1406467803135514,-0.2937888302640058
1761432109862330400,7.952330322265625,-2.718804201155901,-0.5418418548673392,0.43712578124329443
1761432109882272500,7.9722724609375,-1.1531214030981063,-0.963055635099113,1.0353162769287825
1761432109902214400,7.99221435546875,0.7086106261700391,-1.0075412580356,0.8209408280596137
1761432109922155300,8.0121552734375,1.0423474907398222,-1.1958709960222245,0.6798007112711668
1761432109942097400,8.032097412109374,0.12423135982453823,-0.6651753890693187,-0.19606157434768973
1761432109962039600,8.05203955078125,-1.345693308699131,0.34965514919161794,-0.3431445982538163
1761432109981981400,8.0719814453125,-2.0349106676131488,0.6977773897275328,0.5103718173811211
1761432110001923600,8.091923583984375,-0.4265589406520128,0.7227393970265984,1.7759258232973516
1761432110021864400,8.111864501953125,1.1635083570778368,0.131346744787693,1.8284337169088423
1761432110041806300,8.131806396484375,0.7472504456877708,-0.6230924433603883,1.228326573947072
1761432110061748500,8.15174853515625,-0.7401280464619397,-1.1875485733568667,0.8999909108337014
1761432110081690600,8.171690673828126,-1.4338140752226114,-1.0432783418491482,1.0807687721360475
1761432110101632500,8.191632568359376,-0.6999532724618911,-0.38903117402940984,1.4192556807771324
1761432110121574400,8.211574462890624,0.8570745099753141,-0.11059300283342599,0.8627853619027882
1761432110141516500,8.2315166015625,1.7790818031102418,0.2477873046055436,-0.12919029740616678
1761432110161458400,8.25145849609375,1.4127262790083885,0.521431227262318,-0.21178879337683318
1761432110181400600,8.271400634765625,0.05011982943117618,0.7139043486639857,0.49110988488718865
1761432110201342500,8.291342529296875,-0.03839548936784267,0.6450897556349635,1.058373546585068
1761432110221284400,8.311284423828125,1.4043728766828774,-0.00990092402845621,0.830904515125975
1761432110241225500,8.3312255859375,3.314792656752467,-0.39383331361413,-0.5712425022009759
1761432110261167600,8.351167724609375,4.353876177260279,-0.4770733223587274,-1.5405015950500964
1761432110281110500,8.371110595703126,1.87255912823081,0.06541238337010145,-0.12450199345946311
1761432110301052700,8.391052734375,0.10372107123732566,0.42946489122658965,1.1296617631860078
1761432110320994600,8.41099462890625,-0.7405693604886532,0.19321751002818344,1.516454656769335
1761432110340936400,8.4309365234375,0.2395680500537157,-0.2192316567286849,0.851406985732913
1761432110360878600,8.450878662109375,1.0056664040744303,-0.5053805484324694,0.11733261328674852
1761432110380820500,8.470820556640625,0.9644026657938957,-0.4530588250428438,-0.09072941465191542
1761432110400762600,8.4907626953125,0.3235813812583685,-0.4572890099585056,0.09957081969007849
1761432110420704500,8.51070458984375,0.10938391930460929,-0.2877931517794728,0.4254598933689296
1761432110440646400,8.530646484375,-0.009554594808816909,0.2606058696463704,-0.3319135216001421
1761432110460588500,8.550588623046876,-0.6483622014343738,0.6737172997042536,-0.7985902453679591
1761432110480529700,8.57052978515625,-1.98554136428833,0.11402078532502055,0.2476712039452046
1761432110500471600,8.590471435546876,-2.4018378541231153,-0.04706994034126401,0.9829781138610094
1761432110520413400,8.610413330078124,-1.8294325186878442,-0.36585064331963657,0.7259804978396743
1761432110540355300,8.630355224609374,-1.2823013252407311,-0.7741871140606701,-0.6966304847147315
1761432110560297500,8.65029736328125,-1.1015940449565649,-0.3596570493765175,-1.987625330955535
1761432110580239600,8.670239501953125,-0.7298474754661322,0.7516229616835713,-2.3473870097503067
1761432110600181500,8.690181396484375,-1.0505769744247198,1.286335695323348,-1.8289771761357783
1761432110620123400,8.710123291015625,-2.055576439023018,1.1469586426846683,-0.7054401794403791
1761432110640065500,8.7300654296875,-2.4868279214054345,1.0310932524062693,-0.4308842565052211
1761432110660007400,8.75000732421875,-1.4649369432389736,0.8318851236611604,-0.34837453479655084
1761432110679948500,8.769948486328126,-0.019652210453152654,0.6796509275369346,-0.41081491661854086
1761432110699889700,8.7898896484375,0.8856827648222446,0.963307271772623,-0.5888776737432927
1761432110719831800,8.809831787109376,0.8590472713530063,1.3233733403414487,-0.47917705317232756
1761432110739773400,8.8297734375,-0.1272521689504385,1.5181116301961242,-0.1903839671026915
1761432110759715600,8.849715576171874,-0.8373603402018547,1.1537854199647903,-0.1399809368159622
1761432110779657700,8.86965771484375,-0.43686932226419445,0.9185681124664843,0.2824760484099388
1761432110799599600,8.889599609375,0.6574784048259258,0.5946836566083132,0.5180975527949631
1761432110819541800,8.909541748046875,1.5273369930505751,0.17738734208121895,-0.3475252244908362
1761432110839483600,8.929483642578125,1.8527987812280653,-0.021059154641628264,-1.1217491634305565
1761432110859425500,8.949425537109375,0.9329004430711269,-0.3234964794538915,-0.9773186998598277
1761432110879367700,8.96936767578125,-0.119988899949193,-0.3204422064498067,-0.336598099219799
1761432110899308800,8.989308837890626,-0.823877758294344,-0.20049407690241933,0.07304649497773498
1761432110919250700,9.009250732421876,-0.27565467795729637,-0.15612535834386942,0.08605493830116465
1761432110939192600,9.029192626953124,0.6454372538983821,-0.3343601110346615,0.08119679421288892
1761432110959134500,9.049134521484374,0.6212444774061441,-0.7402217160947621,0.26975100687146186
1761432110979076600,9.06907666015625,0.052099020549654956,-1.075471907836944,0.18749014535732567
1761432110999018800,9.089018798828125,-0.4676905769854784,-0.8738955886557698,-0.059877490797732025
1761432111018960600,9.108960693359375,-1.134641743555665,-0.6629714492842554,-0.34229426503479476
1761432111038902500,9.128902587890625,-2.488056001895666,-0.7352716924719512,-0.34930337661188093
1761432111058844700,9.1488447265625,-3.066299541965127,-1.3719165681056678,0.5018306008659303
1761432111078786600,9.16878662109375,-2.110062062448263,-0.9147427089594304,0.16352430948875843
1761432111098727700,9.188727783203126,-0.618089228245616,-1.4582788005240261,0.5498508276693522
1761432111118669600,9.208669677734376,0.3523135547459125,-1.1814381276525556,0.2727379137277603
1761432111138611500,9.228611572265624,-0.04830430444180965,-0.23295476939380166,-0.15958070469582453
1761432111158553600,9.2485537109375,-0.7089531559973955,0.7579271763943135,-0.3355712769227102
1761432111178495700,9.268495849609375,-0.5970657294392585,0.8889496576637029,0.6922714127223938
1761432111198437600,9.288437744140625,0.5398848755806684,1.086334954895824,0.9692138654679059
1761432111218379800,9.3083798828125,1.2205465875953436,0.9378189025118947,0.7408381674926727
1761432111238321700,9.32832177734375,0.6281330678761005,0.5714128172665834,0.5993752484906465
1761432111258263600,9.348263671875,-0.02213116778731346,0.16099749442487954,0.43841655170619487
1761432111278205700,9.368205810546876,0.2233341236114502,-0.06684066260755062,0.26804718036195263
1761432111298146800,9.388146728515625,1.1452958240389823,0.05383446604013443,0.09519287860048935
1761432111318088400,9.40808837890625,1.3221049278408288,0.6177861536458135,-0.10798216274790465
1761432111338030600,9.428030517578126,0.3636398354023695,1.0950666890144347,0.020915782381873575
1761432111357972700,9.44797265625,-0.10075286908149719,1.0604261682659386,0.4282453593689948
1761432111377914600,9.46791455078125,0.5159568875044585,0.6127656951352953,0.6181276605598628
1761432111397856800,9.487856689453125,1.0974275729268788,0.5105941914275288,0.311062383686006
1761432111417798400,9.50779833984375,1.0942220548838377,0.5467249507337808,-0.3552819030322134
1761432111437740500,9.527740478515625,1.1418190878391266,0.25084990704655646,-0.7821781128145754
1761432111457682700,9.5476826171875,1.0706827738642692,0.07325403678119183,-0.3633547348506748
1761432111477623800,9.567623779296875,0.8943120614796877,0.18525836771726606,0.22853289783094077
1761432111497565400,9.5875654296875,0.3557020281404257,0.3502037229850888,0.6600047814983874
1761432111517507600,9.607507568359376,0.08379822714924812,0.4301172176554799,0.48542986648939546
1761432111537449500,9.627449462890626,0.6187625974625348,0.19162907179296015,-0.15300012072911484
1761432111557391600,9.6473916015625,0.7579904508888721,0.053530514657497405,-0.1730576057812199
1761432111577333800,9.667333740234374,0.0879728824853897,0.20188626191318035,-0.11605832816776819
1761432111597275600,9.687275634765625,-0.8808090213060379,0.34082711509168145,-0.00894857347337529
1761432111617217500,9.707217529296875,-0.7692413282215594,0.49661798078417774,0.09849005698235705
1761432111637159700,9.72715966796875,0.3111269733548164,0.8162573464184999,-0.6046783964000642
1761432111657100800,9.747100830078125,0.4901689507752657,0.37906069189608094,-0.21792028186917303
1761432111677043200,9.767043212890625,-0.31819793465435503,-0.16487053646594285,0.41661253351401534
1761432111696985000,9.786985107421875,-0.6649146923065186,-0.6871119110673666,0.6382809524029492
1761432111716927000,9.806927001953126,-0.27620938923060895,-0.17313976763933897,-0.8622623609419912
1761432111736869000,9.826869140625,-0.5682692585438489,0.11391951690763234,-1.7036133051499724
