time,seconds_elapsed,z,y,x
1761432101985260500,0.075260498046875,1.9360235929489136,1.0974857807159424,-0.27867770195007324
1761432102005202200,0.0952021484375,1.9460504055023193,0.9526967406272888,-0.08483391255140305
1761432102025144300,0.115144287109375,1.90535306930542,0.8894287943840027,-0.053624533116817474
1761432102045086500,0.13508642578125,1.7099461555480957,0.9245141744613647,-0.23518618941307068
1761432102065028400,0.1550283203125,1.5540361404418945,0.9563280344009399,-0.4932272434234619
1761432102084970500,0.174970458984375,1.5044970512390137,0.8748946189880371,-0.652341365814209
1761432102104912400,0.194912353515625,1.5981203317642212,0.9096167087554932,-0.5749516487121582
1761432102124854300,0.214854248046875,1.7122372388839722,0.9130221009254456,-0.3628838062286377
1761432102144796400,0.23479638671875,1.7347122430801392,0.8633853197097778,-0.12284993380308151
1761432102164738300,0.25473828125,1.6007399559020996,0.8175823092460632,-0.06856595724821091
1761432102184680400,0.274680419921875,1.4380935430526733,0.8347510099411011,-0.18316836655139923
1761432102204622300,0.294622314453125,1.4138948917388916,0.8960762619972229,-0.39760932326316833
1761432102224564200,0.314564208984375,1.3994797468185425,0.6782379746437073,-0.5035766363143921
1761432102244506400,0.33450634765625,1.3238377571105957,0.30280816555023193,-0.2922637462615967
1761432102264448500,0.354448486328125,1.2305458784103394,-0.020207777619361877,0.029646024107933044
1761432102284390400,0.374390380859375,1.0442670583724976,-0.15306614339351654,0.17134436964988708
1761432102304332300,0.394332275390625,0.8826869130134583,-0.04103236645460129,0.04184836149215698
1761432102324274200,0.414274169921875,0.75258469581604,-0.0117332236841321,-0.1342252790927887
1761432102344216300,0.43421630859375,0.7572720050811768,-0.11796846985816956,-0.12830454111099243
1761432102364158500,0.454158447265625,0.869594395160675,-0.02752276510000229,0.015074554830789566
1761432102384100400,0.474100341796875,0.9441355466842651,0.2212362289428711,0.04855039343237877
1761432102404042500,0.49404248046875,0.8960981369018555,0.339855432510376,-0.02401796542108059
1761432102423984400,0.513984375,0.6744065880775452,0.1415938436985016,-0.039561595767736435
1761432102443926300,0.53392626953125,0.4933261275291443,-0.03279997408390045,0.10516264289617538
1761432102463868400,0.553868408203125,0.47287437319755554,0.018931113183498383,0.1680261343717575
1761432102483810300,0.573810302734375,0.5050988793373108,0.22757379710674286,-0.017832638695836067
1761432102503752400,0.59375244140625,0.4600898027420044,0.3489004373550415,-0.2867215871810913
1761432102523694300,0.6136943359375,0.37337368726730347,0.29665547609329224,-0.36338627338409424
1761432102543636200,0.63363623046875,0.3099721074104309,0.14500713348388672,-0.24728049337863922
1761432102563578400,0.653578369140625,0.23486126959323883,0.02186405286192894,-0.15237610042095184
1761432102583520500,0.6735205078125,0.20138971507549286,0.06309204548597336,-0.24043284356594086
1761432102603462400,0.69346240234375,0.1966191530227661,0.11426302790641785,-0.41088947653770447
1761432102623404300,0.713404296875,0.19125612080097198,0.008414948359131813,-0.50129234790802
1761432102643346400,0.733346435546875,0.19559194147586823,-0.20344357192516327,-0.454865425825119
1761432102663288300,0.753288330078125,0.1985732465982437,-0.3020040690898895,-0.3699577748775482
1761432102683229700,0.773229736328125,0.17695556581020355,-0.21911558508872986,-0.3380480408668518
1761432102703171800,0.793171875,0.1804279237985611,-0.07134995609521866,-0.30482417345046997
1761432102723113500,0.813113525390625,0.18391887843608856,-0.08012927323579788,-0.21819372475147247
1761432102743055600,0.8330556640625,0.12999245524406433,-0.1479179710149765,-0.11073075979948044
1761432102762997500,0.85299755859375,-0.023382266983389854,-0.10956024378538132,-0.004371429327875376
1761432102782939600,0.872939697265625,-0.17823699116706848,-0.08440767973661423,0.033523112535476685
1761432102802881800,0.8928818359375,-0.2297544926404953,-0.014582246541976929,0.06994287669658661
1761432102822823400,0.912823486328125,-0.19963032007217407,0.01011440996080637,0.10080868005752563
1761432102842765600,0.932765625,-0.14624781906604767,-0.07632807642221451,0.21552011370658875
1761432102862707700,0.952707763671875,0.004997706972062588,-0.1470637172460556,0.38044652342796326
1761432102882649600,0.972649658203125,0.26714107394218445,0.08328951150178909,0.5153192281723022
1761432102902591700,0.992591796875,0.38686317205429077,0.18950563669204712,0.49814373254776
1761432102922533600,1.01253369140625,0.4424009621143341,0.12042746692895889,0.2735571265220642
1761432102942475500,1.0324755859375,0.3187001943588257,0.2483820915222168,0.09974300861358643
1761432102962417700,1.052417724609375,0.1811618208885193,0.3663245141506195,-0.01865304447710514
1761432102982359600,1.072359619140625,0.13344576954841614,0.22612884640693665,-0.08352372795343399
1761432103002301700,1.0923017578125,0.1065291240811348,0.03099258616566658,-0.09995109587907791
1761432103022243800,1.112243896484375,0.09616515040397644,-0.02853255532681942,-0.021982375532388687
1761432103042185500,1.132185546875,0.1216525137424469,-0.09020459651947021,0.1881634145975113
1761432103062127600,1.152127685546875,0.13394854962825775,-0.028899749740958214,0.21757833659648895
1761432103082069800,1.17206982421875,0.13818573951721191,0.07395033538341522,0.060208745300769806
1761432103102011600,1.19201171875,0.16062991321086884,0.060619719326496124,-0.08647842705249786
1761432103121953800,1.211953857421875,0.2048984169960022,-0.004775699693709612,-0.0811152309179306
1761432103141895400,1.2318955078125,0.2426968365907669,-0.048586368560791016,0.02055652253329754
1761432103161837600,1.251837646484375,0.2115613967180252,-0.08461777120828629,0.05470307916402817
1761432103181778700,1.27177880859375,0.155050590634346,-0.11585306376218796,0.0463298037648201
1761432103201720800,1.291720947265625,0.14917147159576416,-0.07675617933273315,0.09562604874372482
1761432103221662500,1.311662353515625,0.2259998321533203,0.08824625611305237,0.0922459289431572
1761432103241604600,1.3316044921875,0.29782477021217346,0.26347240805625916,-0.005652670282870531
1761432103261546500,1.35154638671875,0.268418550491333,0.17037856578826904,-0.15602965652942657
1761432103281488600,1.371488525390625,0.13496747612953186,0.030399538576602936,-0.2640669643878937
1761432103301430800,1.3914306640625,-0.0022032144479453564,0.0435648187994957,-0.32249510288238525
1761432103321372400,1.411372314453125,-0.03785030171275139,0.17602790892124176,-0.3617717921733856
1761432103341314600,1.431314453125,-0.07183612883090973,0.23636727035045624,-0.38637682795524597
1761432103361256700,1.451256591796875,-0.12890714406967163,0.0791025310754776,-0.26414161920547485
1761432103381198600,1.471198486328125,-0.23927973210811615,-0.09906745702028275,-0.008828189224004745
1761432103401140700,1.491140625,-0.28765201568603516,-0.08791199326515198,0.13817426562309265
1761432103421082600,1.51108251953125,-0.21549543738365173,0.02231927216053009,0.0501837357878685
1761432103441024500,1.5310244140625,-0.18371368944644928,0.10775094479322433,-0.13967420160770416
1761432103460966700,1.550966552734375,-0.27599620819091797,-0.006596670486032963,-0.2577422559261322
1761432103480908500,1.570908447265625,-0.41338685154914856,-0.2970266342163086,-0.10165171325206757
1761432103500850700,1.5908505859375,-0.4234822690486908,-0.4236007332801819,0.21789637207984924
1761432103520792800,1.610792724609375,-0.25481149554252625,-0.37400683760643005,0.4809698164463043
1761432103540734500,1.630734375,-0.08108313381671906,-0.32448190450668335,0.551077127456665
1761432103560676600,1.650676513671875,0.021331507712602615,-0.4023430347442627,0.37422236800193787
1761432103580618500,1.670618408203125,-0.04682048037648201,-0.5281450152397156,0.06793750822544098
1761432103600560600,1.690560546875,-0.06709331274032593,-0.5987020134925842,-0.28048911690711975
1761432103620502800,1.710502685546875,-0.1755335032939911,-0.5790793299674988,-0.6323554515838623
1761432103640444400,1.7304443359375,-0.35860148072242737,-0.36651134490966797,-0.6820836663246155
1761432103660386600,1.750386474609375,-0.3738557696342468,-0.18561872839927673,-0.3689802885055542
1761432103680329200,1.7703291015625,-0.1264360249042511,-0.037902142852544785,0.11686103790998459
1761432103700271000,1.79027099609375,0.1449454426765442,0.03843022510409355,0.29968491196632385
1761432103720213200,1.810213134765625,0.24862626194953918,0.14682058990001678,0.14442649483680725
1761432103740155100,1.830155029296875,0.2088548243045807,0.22768047451972961,-0.1664562076330185
1761432103760097300,1.85009716796875,0.040270041674375534,0.19995693862438202,-0.4116216003894806
1761432103780039400,1.870039306640625,-0.1068393662571907,0.09046362340450287,-0.3760170042514801
1761432103799981300,1.889981201171875,-0.14989839494228363,-0.0565795861184597,-0.1747538149356842
1761432103819923200,1.909923095703125,-0.16296975314617157,-0.11254594475030899,-0.04667825251817703
1761432103839865000,1.929864990234375,-0.14102306962013245,-0.016406552866101265,-0.07555075734853745
1761432103859807200,1.94980712890625,-0.07723022252321243,0.1855713576078415,-0.10716221481561661
1761432103879749400,1.969749267578125,-0.06890939176082611,0.20010800659656525,-0.09838063269853592
1761432103899690200,1.989690185546875,-0.12675268948078156,0.09780800342559814,-0.11729603260755539
1761432103919632100,2.009632080078125,-0.2806169092655182,-0.17178784310817719,-0.07269531488418579
1761432103939574300,2.02957421875,-0.31758636236190796,-0.3692082166671753,-0.036595024168491364
1761432103959516200,2.04951611328125,-0.15078893303871155,-0.15153270959854126,0.07952438294887543
1761432103979458300,2.069458251953125,-0.013987773098051548,0.04361801594495773,0.16357740759849548
1761432103999400200,2.089400146484375,0.0584334097802639,-0.025503791868686676,0.13671721518039703
1761432104019342000,2.109342041015625,0.008217036724090576,-0.2057546079158783,0.07267238199710846
1761432104039284200,2.1292841796875,-0.012940567918121815,-0.425629585981369,0.046207331120967865
1761432104059226400,2.149226318359375,0.021491684019565582,-0.5262454152107239,0.17644207179546356
1761432104079168300,2.169168212890625,0.18119828402996063,-0.30426931381225586,0.4950486421585083
1761432104099110400,2.1891103515625,0.38862907886505127,-0.07533373683691025,0.7224396467208862
1761432104119052300,2.20905224609375,0.37689781188964844,-0.21231213212013245,0.6700615882873535
1761432104138994200,2.228994140625,0.3274913728237152,-0.49590709805488586,0.485259085893631
1761432104158936300,2.248936279296875,0.21137234568595886,-0.44551602005958557,0.2287551462650299
1761432104178878200,2.268878173828125,0.0013425708748400211,-0.10563524067401886,-0.0729735866189003
1761432104198820400,2.2888203125,-0.11332486569881439,0.21974849700927734,-0.3490632474422455
1761432104218762200,2.30876220703125,0.01973801665008068,0.2417527586221695,-0.43285098671913147
1761432104238704000,2.3287041015625,0.28477025032043457,0.19537460803985596,-0.22743767499923706
1761432104258646300,2.348646240234375,0.3930739760398865,0.1326320469379425,0.02783999964594841
1761432104278588400,2.36858837890625,0.4447173476219177,0.08823306113481522,0.13281644880771637
1761432104298530300,2.3885302734375,0.4740305542945862,0.10459424555301666,0.10039378702640533
1761432104318472200,2.40847216796875,0.532958984375,0.1867675483226776,0.030410023406147957
1761432104338414000,2.4284140625,0.6105948686599731,0.33278700709342957,-0.032357484102249146
1761432104358356200,2.448356201171875,0.6195220947265625,0.3666118085384369,-0.10928315669298172
1761432104378298400,2.46829833984375,0.5717764496803284,0.26380184292793274,-0.12360446155071259
1761432104398240300,2.488240234375,0.5327709317207336,0.15131951868534088,-0.07277213782072067
1761432104418182100,2.50818212890625,0.5128200650215149,0.15804657340049744,-0.014525148086249828
1761432104438124300,2.528124267578125,0.5298198461532593,0.2769373059272766,0.0031330545898526907
1761432104458066200,2.548066162109375,0.4864707291126251,0.3387415111064911,-0.09642385691404343
1761432104478007300,2.56800732421875,0.3617924451828003,0.20711639523506165,-0.19384920597076416
1761432104497949400,2.587949462890625,0.26288333535194397,0.03154204413294792,-0.15573714673519135
1761432104517891000,2.60789111328125,0.2666114866733551,0.04642855376005173,-0.053932592272758484
1761432104537833200,2.627833251953125,0.3217165768146515,0.12373032420873642,0.017928244546055794
1761432104557775400,2.647775390625,0.3412334620952606,0.10711314529180527,0.054404839873313904
1761432104577717200,2.66771728515625,0.24796119332313538,-0.016170300543308258,0.08231275528669357
1761432104597659400,2.687659423828125,0.0753859281539917,-0.0777585506439209,0.15839599072933197
1761432104617601300,2.707601318359375,-0.05042368918657303,-0.10573534667491913,0.1881479173898697
1761432104637543200,2.727543212890625,-0.11203967034816742,-0.15541239082813263,0.20914416015148163
1761432104657485300,2.7474853515625,-0.13260087370872498,-0.23087549209594727,0.31746864318847656
1761432104677429800,2.7674296875,-0.0009734873310662806,-0.2610849142074585,0.5419259667396545
1761432104697371600,2.78737158203125,0.12235108762979507,-0.185861274600029,0.6843607425689697
1761432104717313800,2.807313720703125,0.20229332149028778,-0.1698002815246582,0.6056331992149353
1761432104737256000,2.827255859375,0.2238008975982666,-0.11251209676265717,0.31845590472221375
1761432104757197800,2.84719775390625,0.0054505206644535065,-0.040769416838884354,-0.286109060049057
1761432104777140000,2.867139892578125,-0.30721747875213623,-0.01476718857884407,-0.7740839719772339
1761432104797081600,2.88708154296875,-0.4251917898654938,-0.0002465774305164814,-0.6912702322006226
1761432104817023700,2.907023681640625,-0.27747347950935364,-0.1126655787229538,-0.23183155059814453
1761432104836966000,2.9269658203125,-0.0041046589612960815,-0.03006112203001976,0.2133985161781311
1761432104856907800,2.94690771484375,0.167124941945076,0.1535535454750061,0.2421221286058426
1761432104876850000,2.966849853515625,0.1267920732498169,0.2532193064689636,-0.012605425901710987
1761432104896791800,2.986791748046875,-0.025208130478858948,0.16352321207523346,-0.26679718494415283
1761432104916733700,3.006733642578125,-0.11407921463251114,0.061520885676145554,-0.32211390137672424
1761432104936675800,3.02667578125,-0.11274068057537079,-0.02968776412308216,-0.22128064930438995
1761432104956617000,3.046616943359375,-0.061411552131175995,-0.008005551993846893,-0.12333403527736664
1761432104976558600,3.06655859375,0.0066770995035767555,0.10219434648752213,-0.18124154210090637
1761432104996500700,3.086500732421875,0.006965738721191883,0.22256597876548767,-0.2703801691532135
1761432105016443000,3.10644287109375,-0.04716674983501434,0.26232674717903137,-0.30243393778800964
1761432105036384800,3.126384765625,-0.1223880723118782,0.22942756116390228,-0.2640272378921509
1761432105056327000,3.146326904296875,-0.16320574283599854,0.0021918402053415775,-0.12787677347660065
1761432105076268800,3.166268798828125,-0.1276800036430359,-0.1891733855009079,0.0641544759273529
1761432105096210700,3.186210693359375,0.03964795172214508,-0.11816026270389557,0.21726177632808685
1761432105116152800,3.20615283203125,0.2288813292980194,0.08326452970504761,0.22906750440597534
1761432105136094700,3.2260947265625,0.27876731753349304,0.12332805246114731,0.11288503557443619
1761432105156036900,3.246036865234375,0.16393473744392395,-0.0026376936584711075,-0.025606904178857803
1761432105175979000,3.26597900390625,-0.0633891224861145,-0.18744654953479767,-0.12653391063213348
1761432105195920600,3.285920654296875,-0.24949871003627777,-0.24184708297252655,-0.10362546890974045
1761432105215862800,3.30586279296875,-0.2268318384885788,-0.1401703804731369,0.07973458617925644
1761432105235804700,3.3258046875,-0.0630282610654831,-0.020844263955950737,0.3238127529621124
1761432105255746800,3.345746826171875,0.24343039095401764,0.08214996010065079,0.5139630436897278
1761432105275689000,3.36568896484375,0.42516830563545227,0.1340974122285843,0.5274029970169067
1761432105295630600,3.385630615234375,0.5062215328216553,0.009520292282104492,0.4082598090171814
1761432105315572700,3.40557275390625,0.3937453329563141,-0.06647469103336334,0.3080984354019165
1761432105335515000,3.425514892578125,0.12907004356384277,-0.09867089241743088,0.09792613983154297
1761432105355456800,3.445456787109375,-0.19123753905296326,-0.0015287622809410095,-0.014521953649818897
1761432105375399000,3.46539892578125,-0.1804317831993103,0.11725801974534988,0.1289294809103012
1761432105395339800,3.48533984375,0.010425153188407421,0.09808877855539322,0.2889229655265808
1761432105415281700,3.50528173828125,0.20174767076969147,0.012261750176548958,0.22354881465435028
1761432105435223800,3.525223876953125,0.2765098810195923,-0.014654247090220451,-0.031511399894952774
1761432105455166000,3.545166015625,0.23186561465263367,0.07772035151720047,-0.29041633009910583
1761432105475107600,3.565107666015625,0.1659952700138092,0.25784167647361755,-0.414610356092453
1761432105495049700,3.5850498046875,0.13153232634067535,0.347150981426239,-0.4349307715892792
1761432105514991900,3.604991943359375,0.10967272520065308,0.24393416941165924,-0.38299036026000977
1761432105534933800,3.624933837890625,0.1790163815021515,0.19208911061286926,-0.24690935015678406
1761432105554876000,3.6448759765625,0.33084502816200256,0.1977812945842743,-0.0773216113448143
1761432105574817800,3.66481787109375,0.47974875569343567,0.33969879150390625,-0.03564435988664627
1761432105594759700,3.684759765625,0.5242438316345215,0.40274888277053833,-0.15149468183517456
1761432105614701800,3.704701904296875,0.3744010925292969,0.37728965282440186,-0.3303438127040863
1761432105634643700,3.724643798828125,0.0817745104432106,0.24842533469200134,-0.30218207836151123
1761432105654585900,3.7445859375,0.008163115940988064,0.11706889420747757,0.002771472092717886
1761432105674525200,3.764525146484375,0.18205174803733826,0.08718549460172653,0.2906331717967987
1761432105694467300,3.78446728515625,0.3839438259601593,0.07888895273208618,0.31014007329940796
1761432105714409500,3.804409423828125,0.4055846929550171,0.005944200325757265,0.11264866590499878
1761432105734351000,3.82435107421875,0.223915234208107,-0.13220791518688202,-0.17693902552127838
1761432105754293200,3.844293212890625,-0.08001231402158737,-0.23195300996303558,-0.35707828402519226
1761432105774234400,3.864234375,-0.2629733979701996,-0.27746307849884033,-0.26941561698913574
1761432105794176300,3.88417626953125,-0.39144399762153625,-0.26331713795661926,0.08426054567098618
1761432105814118100,3.9041181640625,-0.36906206607818604,-0.27035510540008545,0.4902753531932831
1761432105834060300,3.924060302734375,-0.08760853856801987,-0.3251616358757019,0.730073094367981
1761432105854002200,3.944002197265625,0.14072607457637787,-0.21977557241916656,0.7027435898780823
1761432105873944300,3.9639443359375,0.2288137823343277,0.005449992138892412,0.5016303658485413
1761432105893886200,3.98388623046875,0.2455209195613861,0.3693492114543915,0.16928869485855103
1761432105913827000,4.0038271484375,0.13391658663749695,0.6110062599182129,-0.20441226661205292
1761432105933769200,4.023769287109375,-0.2080494910478592,0.8631014227867126,-0.37283608317375183
1761432105953711400,4.04371142578125,-0.44406646490097046,0.7484650015830994,-0.1595638245344162
1761432105973653200,4.0636533203125,-0.3923856019973755,0.1511499434709549,0.11531464755535126
1761432105993595400,4.083595458984375,-0.30273500084877014,-0.3602045476436615,0.2655054032802582
1761432106013537300,4.103537353515625,-0.23429429531097412,-0.5332912802696228,0.11135125160217285
1761432106033479200,4.123479248046875,-0.18771500885486603,-0.3640666604042053,-0.23862823843955994
1761432106053421300,4.14342138671875,-0.2557685375213623,-0.09883637726306915,-0.45974063873291016
1761432106073363200,4.16336328125,-0.3085169494152069,-0.011254319921135902,-0.427654892206192
1761432106093305300,4.183305419921875,-0.28963005542755127,-0.09470231086015701,-0.23986490070819855
1761432106113246200,4.20324609375,-0.2099137008190155,-0.06906808912754059,-0.003976026549935341
1761432106133188400,4.223188232421875,-0.10472909361124039,0.02821628376841545,0.12338379770517349
1761432106153130200,4.243130126953125,-0.06398357450962067,0.06297662854194641,0.18742182850837708
1761432106173072400,4.263072265625,-0.02879912033677101,0.18515267968177795,0.14016230404376984
1761432106193014300,4.28301416015625,-0.03759011626243591,0.2768595218658447,0.010523134842514992
1761432106212956200,4.3029560546875,-0.13296088576316833,0.19230735301971436,-0.1548982709646225
1761432106232898300,4.322898193359375,-0.3589802086353302,-0.09824226051568985,-0.20338748395442963
1761432106252840200,4.342840087890625,-0.3875578045845032,-0.22890117764472961,-0.12462460249662399
1761432106272782300,4.3627822265625,-0.25669410824775696,-0.1261492818593979,-0.010528352111577988
1761432106292725200,4.382725341796875,-0.007279758807271719,0.12815839052200317,0.12963689863681793
1761432106312667100,4.402667236328125,0.2668018639087677,0.3136299252510071,0.23048271238803864
1761432106332609300,4.422609375,0.2748219668865204,0.18214672803878784,0.14711707830429077
1761432106352551200,4.44255126953125,0.03424639254808426,-0.1004689633846283,-0.04939745366573334
1761432106372493300,4.462493408203125,-0.14767299592494965,0.003928885795176029,-0.13531669974327087
1761432106392435200,4.482435302734375,-0.011218594387173653,0.1938331574201584,0.07179516553878784
1761432106412377300,4.50237744140625,0.2387453317642212,0.3623110353946686,0.3578491508960724
1761432106432319200,4.5223193359375,0.4427413046360016,0.25728318095207214,0.3170858919620514
1761432106452261000,4.54226123046875,0.3114710748195648,0.08569395542144775,0.007090169005095959
1761432106472203300,4.562203369140625,-0.095636747777462,-0.04282879829406738,-0.39828768372535706
1761432106492145400,4.5821455078125,-0.3611452281475067,-0.04598823934793472,-0.5936219096183777
1761432106512086300,4.602086181640625,-0.22553470730781555,-0.02347254566848278,-0.4064836800098419
1761432106532028200,4.622028076171875,-0.015927616506814957,-0.0799591913819313,-0.14592832326889038
1761432106551970300,4.64197021484375,-0.07532668113708496,-0.250724196434021,-0.1263248771429062
1761432106571912200,4.661912109375,-0.24954020977020264,-0.28997454047203064,-0.2557002604007721
1761432106591854300,4.681854248046875,-0.29078441858291626,-0.12801958620548248,-0.3221084773540497
1761432106611796200,4.701796142578125,-0.153757706284523,0.16427448391914368,-0.22396114468574524
1761432106631738000,4.721738037109375,0.0657217875123024,0.4232899844646454,-0.11158294230699539
1761432106651680300,4.74168017578125,0.11856260895729065,0.4886268079280853,-0.11899011582136154
1761432106671625000,4.761625,0.01688963547348976,0.1985713690519333,-0.23324717581272125
1761432106691566800,4.78156689453125,-0.07725150138139725,-0.06552492082118988,-0.2649398744106293
1761432106711509000,4.801509033203125,0.008958086371421814,-0.02791799046099186,-0.14270450174808502
1761432106731451100,4.821451171875,0.1769993156194687,0.11924672871828079,-0.006857327185571194
1761432106751393000,4.84139306640625,0.2213345319032669,0.2626725435256958,0.08217932283878326
1761432106771335000,4.8613349609375,0.08429655432701111,0.21127355098724365,0.03680450841784477
1761432106791277000,4.881277099609375,-0.1322711706161499,0.007099911570549011,-0.058728672564029694
1761432106811219000,4.901218994140625,-0.1689877212047577,-0.05312647670507431,-0.0011619728757068515
1761432106831161000,4.9211611328125,-0.003523206105455756,0.0227923896163702,0.2032431662082672
1761432106851102200,4.941102294921875,0.18508802354335785,0.12093659490346909,0.4198196530342102
1761432106871043800,4.9610439453125,0.25286751985549927,0.09994813054800034,0.37745025753974915
1761432106890986000,4.980986083984375,0.03774789720773697,-0.13863502442836761,0.1391851156949997
1761432106910928100,5.00092822265625,-0.2448815405368805,-0.20697525143623352,0.001782155828550458
1761432106930870000,5.0208701171875,-0.24621827900409698,-0.1282888650894165,0.06433656811714172
1761432106950812200,5.040812255859375,0.02600834146142006,-0.03749222308397293,0.3827323615550995
1761432106970753800,5.06075390625,0.3051156997680664,-0.05678220093250275,0.6639209389686584
1761432106990696000,5.080696044921875,0.2738170027732849,-0.24644148349761963,0.49900004267692566
1761432107010638000,5.10063818359375,0.04088537395000458,-0.30562475323677063,-0.03523780032992363
1761432107030580000,5.120580078125,-0.06808382272720337,-0.06672924011945724,-0.49572476744651794
1761432107050522000,5.140522216796875,-0.08413079380989075,0.1228264793753624,-0.5764880776405334
1761432107070464000,5.160464111328125,-0.13420714437961578,-0.01393360085785389,-0.4789218306541443
1761432107090406000,5.180406005859375,-0.2703617215156555,-0.2412591278553009,-0.3680730164051056
1761432107110348000,5.20034814453125,-0.3587262034416199,-0.3132967948913574,-0.25329211354255676
1761432107130290000,5.2202900390625,-0.2976391017436981,-0.2255740910768509,-0.11536531895399094
1761432107150232000,5.240232177734375,-0.1267070323228836,-0.06592263281345367,0.04462860897183418
1761432107170174000,5.260174072265625,-0.01997438445687294,0.0299400445073843,0.13490116596221924
1761432107190115000,5.280114990234375,-0.034970588982105255,0.03370659053325653,0.08383273333311081
1761432107210057000,5.300056884765625,-0.19476373493671417,-0.029598912224173546,-0.11571724712848663
1761432107229999000,5.3199990234375,-0.334359347820282,-0.08685009181499481,-0.32780081033706665
1761432107249941000,5.33994091796875,-0.27502456307411194,0.03495081886649132,-0.35215702652931213
1761432107269883000,5.3598828125,-0.051604826003313065,0.2835770547389984,-0.17580708861351013
1761432107289825000,5.379824951171875,0.10706374049186707,0.38943779468536377,0.062112294137477875
1761432107309767000,5.399766845703125,0.008901170454919338,0.21290375292301178,0.03940638154745102
1761432107329709000,5.419708984375,-0.2727448046207428,-0.02358992211520672,-0.14579857885837555
1761432107349651200,5.439651123046875,-0.3752404749393463,-0.15716663002967834,-0.24805180728435516
1761432107369592800,5.4595927734375,-0.18621432781219482,-0.09921538084745407,-0.26924553513526917
1761432107389535000,5.479534912109375,0.1283678561449051,-0.024416431784629822,-0.20899471640586853
1761432107409477000,5.49947705078125,0.35335686802864075,0.1032998189330101,-0.15382835268974304
1761432107429419000,5.5194189453125,0.3494768738746643,0.13302382826805115,-0.18118196725845337
1761432107449361200,5.539361083984375,0.2459973692893982,0.04473577067255974,-0.10654287785291672
1761432107469302800,5.559302734375,0.045452751219272614,-0.19378864765167236,0.012783069163560867
1761432107489245000,5.579244873046875,-0.1828719675540924,-0.28152140974998474,0.17278000712394714
1761432107509186000,5.59918603515625,-0.3005126118659973,-0.017153127118945122,0.339155912399292
1761432107529128200,5.619128173828125,-0.2470453828573227,0.17794735729694366,0.5434938073158264
1761432107549069800,5.63906982421875,0.0937001183629036,0.06057056039571762,0.7149014472961426
1761432107569012000,5.659011962890625,0.3513565957546234,-0.1063397005200386,0.5559093356132507
1761432107588953900,5.678953857421875,0.42877957224845886,-0.08745436370372772,0.1342264860868454
1761432107608896000,5.69889599609375,0.36830103397369385,-0.04784725606441498,-0.22113417088985443
1761432107628838100,5.718838134765625,0.30905795097351074,0.0588751956820488,-0.39178207516670227
1761432107648780000,5.738780029296875,0.23747289180755615,0.1616368591785431,-0.3050931394100189
1761432107668722000,5.758721923828125,0.20251068472862244,-0.02425997331738472,-0.099613256752491
1761432107688661000,5.778660888671875,0.2195487767457962,-0.2904965281486511,0.027467994019389153
1761432107708603000,5.798602783203125,0.29036056995391846,-0.30437299609184265,0.016646848991513252
1761432107728545000,5.818544921875,0.29105499386787415,-0.09728807955980301,-0.04044497385621071
1761432107748487000,5.83848681640625,0.27424731850624084,0.05764004960656166,-0.1304103136062622
1761432107768429000,5.858428955078125,0.22314776480197906,0.032862935215234756,-0.17333872616291046
1761432107788371200,5.87837109375,0.1704336404800415,-0.03238584101200104,-0.17345266044139862
1761432107808312000,5.89831201171875,0.2182186096906662,-0.06368241459131241,-0.10373377054929733
1761432107828254000,5.91825390625,0.346996009349823,-0.08641329407691956,0.01704084873199463
1761432107848196000,5.938196044921875,0.4060119390487671,0.006493743974715471,0.025128869339823723
1761432107868138000,5.958137939453125,0.35520607233047485,0.08732954412698746,-0.08430631458759308
1761432107888080000,5.978079833984375,0.193934828042984,-0.015729304403066635,-0.24568888545036316
1761432107908022000,5.99802197265625,0.05884002149105072,-0.1373269408941269,-0.3244101107120514
1761432107927964000,6.0179638671875,0.062544085085392,-0.17069511115550995,-0.29977214336395264
1761432107947906000,6.037906005859375,0.11260642856359482,-0.09535006433725357,-0.17831720411777496
1761432107967848000,6.057847900390625,0.1328655183315277,-0.020563233643770218,-0.042982153594493866
1761432107987790000,6.0777900390625,0.05938977375626564,0.09322723746299744,0.1278688609600067
1761432108007732000,6.09773193359375,-0.030227096751332283,-0.02641616389155388,0.35586532950401306
1761432108027673900,6.117673828125,-0.04432522505521774,-0.23608456552028656,0.5315026044845581
1761432108047616000,6.137615966796875,-0.12433421611785889,-0.39073193073272705,0.4533473253250122
1761432108067558100,6.15755810546875,-0.3505444824695587,-0.46230918169021606,0.17468738555908203
1761432108087499000,6.1774990234375,-0.49318304657936096,-0.4550221264362335,0.08094629645347595
1761432108107441000,6.19744091796875,-0.36160680651664734,-0.4077104330062866,0.35002851486206055
1761432108127383000,6.217383056640625,-0.07628848403692245,-0.3963411748409271,0.70457524061203
1761432108147325000,6.237324951171875,0.07022051513195038,-0.2914929986000061,0.796800971031189
1761432108167267000,6.25726708984375,0.09255338460206985,-0.1319170892238617,0.5893737077713013
1761432108187209000,6.277208984375,-0.08627478778362274,0.03983458876609802,0.15235215425491333
1761432108207150800,6.29715087890625,-0.3984460234642029,0.03197401016950607,-0.4702623784542084
1761432108227093000,6.317093017578125,-0.598151683807373,0.20777322351932526,-0.8221011757850647
1761432108247035100,6.33703515625,-0.5320799946784973,0.3941551148891449,-0.648681104183197
1761432108266977000,6.35697705078125,-0.3636930286884308,0.28609827160835266,-0.21997900307178497
1761432108286919000,6.3769189453125,-0.18360111117362976,0.1090829148888588,0.02203413099050522
1761432108306860800,6.39686083984375,-0.13551068305969238,0.19035841524600983,-0.09689812362194061
1761432108326803000,6.416802978515625,-0.21169479191303253,0.2979319095611572,-0.3196544945240021
1761432108346745000,6.4367451171875,-0.305706262588501,0.2016465961933136,-0.358994722366333
1761432108366686200,6.456686279296875,-0.3197201192378998,-0.013487551361322403,-0.25804516673088074
1761432108386627800,6.4766279296875,-0.3173503279685974,-0.07727602124214172,-0.13390666246414185
1761432108406570000,6.496570068359375,-0.23775511980056763,0.005961921066045761,0.0022470783442258835
1761432108426512100,6.51651220703125,-0.07306677848100662,0.1487547904253006,0.12370247393846512
1761432108446454000,6.5364541015625,-0.0036647848319262266,0.21473969519138336,0.11965937912464142
1761432108466396200,6.556396240234375,-0.06664785742759705,0.2897498905658722,0.051447946578264236
1761432108486337800,6.576337890625,-0.21250814199447632,0.22167226672172546,-0.11368067562580109
1761432108506280000,6.596280029296875,-0.36366474628448486,-0.02046673186123371,-0.23095951974391937
1761432108526222000,6.61622216796875,-0.4262041449546814,-0.07698839157819748,-0.20277249813079834
1761432108546164000,6.6361640625,-0.31582143902778625,0.04415138438344002,-0.049614787101745605
1761432108566106000,6.656106201171875,-0.08309668302536011,0.10241003334522247,0.11446426808834076
1761432108586048000,6.676048095703125,0.15093545615673065,0.059293948113918304,0.18121713399887085
1761432108605990000,6.695989990234375,0.17092187702655792,0.005391697399318218,0.09336670488119125
1761432108625931000,6.715930908203125,0.022988779470324516,-0.1308424025774002,0.03925469517707825
1761432108645873200,6.735873046875,-0.05777697265148163,-0.11173444986343384,0.20610754191875458
1761432108665815000,6.75581494140625,0.03730667382478714,-0.0032370758708566427,0.48249438405036926
1761432108685757400,6.77575732421875,0.20593197643756866,0.07063036412000656,0.6487229466438293
1761432108705699300,6.79569921875,0.3550652861595154,-0.052256520837545395,0.4917592704296112
1761432108725641500,6.815641357421875,0.23276320099830627,-0.4258129298686981,0.0431816391646862
1761432108745583600,6.83558349609375,-0.1246924102306366,-0.7875210046768188,-0.39604607224464417
1761432108765525500,6.855525390625,-0.5421179533004761,-0.9842677712440491,-0.4691642224788666
1761432108785467400,6.87546728515625,-0.6408518552780151,-0.7396191954612732,-0.14932848513126373
1761432108805409500,6.895409423828125,-0.18851569294929504,-0.2300184965133667,0.18215759098529816
1761432108825351400,6.915351318359375,0.34464582800865173,-0.0031718218233436346,0.17183908820152283
1761432108845293600,6.93529345703125,0.597582995891571,-0.04894634336233139,-0.1434396505355835
1761432108865235500,6.9552353515625,0.6386900544166565,0.01390918530523777,-0.44190847873687744
1761432108885176300,6.97517626953125,0.5153031349182129,0.20445416867733002,-0.35684096813201904
1761432108905118500,6.995118408203125,0.4113181531429291,0.25050580501556396,-0.026497673243284225
1761432108925060600,7.015060546875,0.41361573338508606,0.14212250709533691,0.2037477195262909
1761432108945002500,7.03500244140625,0.37768808007240295,-0.039532627910375595,0.1667051464319229
1761432108964944600,7.054944580078125,0.30718928575515747,-0.09018798172473907,-0.019945699721574783
1761432108984886500,7.074886474609375,0.3497573733329773,0.05054936185479164,-0.17597804963588715
1761432109004828400,7.094828369140625,0.4563698172569275,0.17422698438167572,-0.19199949502944946
1761432109024770600,7.1147705078125,0.4858253002166748,0.19378386437892914,-0.12565411627292633
1761432109044712400,7.13471240234375,0.42028966546058655,0.16469940543174744,-0.041310980916023254
1761432109064654600,7.154654541015625,0.29831451177597046,-0.0075612799264490604,0.03651415929198265
1761432109084596500,7.174596435546875,0.23453675210475922,-0.06264331191778183,0.15164245665073395
1761432109104538400,7.194538330078125,0.3102551996707916,0.0074822125025093555,0.2702411413192749
1761432109124480500,7.21448046875,0.40906259417533875,0.10322782397270203,0.25451013445854187
1761432109144421600,7.234421630859375,0.3931259512901306,0.24014435708522797,0.00883660838007927
1761432109164363300,7.25436328125,0.29056936502456665,0.21099622547626495,-0.20867466926574707
1761432109184305400,7.274305419921875,0.15336479246616364,0.06949199736118317,-0.11633678525686264
1761432109204247600,7.29424755859375,0.06723995506763458,-0.11676689237356186,0.14852824807167053
1761432109224189400,7.314189453125,0.018605347722768784,-0.2183598279953003,0.3724398612976074
1761432109244131600,7.334131591796875,-0.02979661524295807,-0.21580246090888977,0.3697008788585663
1761432109264073700,7.35407373046875,-0.08692410588264465,-0.26184797286987305,0.262830525636673
1761432109284015400,7.374015380859375,-0.10265187919139862,-0.38235434889793396,0.3631933927536011
1761432109303957500,7.39395751953125,-0.044242970645427704,-0.4262329339981079,0.6844956278800964
1761432109323899400,7.4138994140625,0.02752164751291275,-0.3060661852359772,0.9318615794181824
1761432109343841500,7.433841552734375,-0.020392784848809242,-0.17994169890880585,0.7136523127555847
1761432109363782400,7.453782470703125,-0.23752570152282715,-0.18702949583530426,0.06524350494146347
1761432109383724500,7.473724609375,-0.5547802448272705,-0.17798690497875214,-0.7022829651832581
1761432109403666400,7.49366650390625,-0.6281877160072327,-0.030292581766843796,-0.8477631211280823
1761432109423608600,7.513608642578125,-0.37641608715057373,0.25471657514572144,-0.28925812244415283
1761432109443550500,7.533550537109375,-0.05459561198949814,0.4298320412635803,0.34944888949394226
1761432109463492400,7.553492431640625,-0.023571914061903954,0.3047971725463867,0.47940847277641296
1761432109483434500,7.5734345703125,-0.14860595762729645,0.22190473973751068,0.18686901032924652
1761432109503376400,7.59337646484375,-0.25753721594810486,0.3842305541038513,-0.24946263432502747
1761432109523318500,7.613318603515625,-0.27129101753234863,0.3672330379486084,-0.5588473677635193
1761432109543260700,7.6332607421875,-0.21815724670886993,0.1613597422838211,-0.7534441351890564
1761432109563202300,7.653202392578125,-0.20746074616909027,0.013508124276995659,-0.7728138566017151
1761432109583144400,7.67314453125,-0.22254671156406403,-0.04605112224817276,-0.454170823097229
1761432109603086600,7.693086669921875,-0.1408967822790146,0.0586235448718071,0.08930133283138275
1761432109623027500,7.71302734375,-0.09141919761896133,0.12694403529167175,0.2998881936073303
1761432109642969600,7.732969482421875,-0.1880180537700653,0.21505597233772278,0.08508456498384476
1761432109662911500,7.752911376953125,-0.37760332226753235,0.19120074808597565,-0.34213852882385254
1761432109682853400,7.772853271484375,-0.4397890567779541,0.0177037063986063,-0.49290886521339417
1761432109702795500,7.79279541015625,-0.3470037579536438,-0.05359188839793205,-0.19858650863170624
1761432109722737700,7.812737548828125,-0.20567630231380463,0.048233792185783386,0.2280808985233307
1761432109742679600,7.832679443359375,-0.12466762959957123,0.07190055400133133,0.5158613920211792
1761432109762621400,7.852621337890625,-0.11658316105604172,-0.03778334707021713,0.4897454082965851
1761432109782563300,7.872563232421875,-0.12171009182929993,-0.02964727021753788,0.2639344334602356
1761432109802505500,7.89250537109375,-0.13278576731681824,0.08417404443025589,-0.05390600115060806
1761432109822447600,7.912447509765625,-0.1355838030576706,0.15346480906009674,-0.1769123673439026
1761432109842388500,7.932388427734375,-0.10845987498760223,0.14855435490608215,0.09360404312610626
1761432109862330400,7.952330322265625,0.006057386286556721,0.21630464494228363,0.618346631526947
1761432109882272500,7.9722724609375,0.15888257324695587,0.15432623028755188,0.8928906321525574
1761432109902214400,7.99221435546875,0.2125876396894455,-0.08424555510282516,0.5895130038261414
1761432109922155300,8.0121552734375,0.04685986414551735,-0.5457538962364197,0.15741212666034698
1761432109942097400,8.032097412109374,-0.23610442876815796,-0.8203754425048828,0.07952158898115158
1761432109962039600,8.05203955078125,-0.3438948094844818,-0.7521685361862183,0.32871541380882263
1761432109981981400,8.0719814453125,-0.11956196278333664,-0.3538897633552551,0.6880261898040771
1761432110001923600,8.091923583984375,0.22080585360527039,-0.2460922747850418,0.529870331287384
1761432110021864400,8.111864501953125,0.3196977972984314,-0.40172693133354187,0.0573451854288578
1761432110041806300,8.131806396484375,0.2569548189640045,-0.3910563886165619,-0.2826249301433563
1761432110061748500,8.15174853515625,0.13680043816566467,-0.09068671613931656,-0.3804614841938019
1761432110081690600,8.171690673828126,0.1827559620141983,0.22056175768375397,-0.26617181301116943
1761432110101632500,8.191632568359376,0.2887977659702301,0.22285106778144836,-0.20621322095394135
1761432110121574400,8.211574462890624,0.2636454403400421,0.1734142005443573,-0.38100898265838623
1761432110141516500,8.2315166015625,0.11210549622774124,0.05552499368786812,-0.6905112266540527
1761432110161458400,8.25145849609375,0.08085481822490692,-0.04403774067759514,-0.6428657174110413
1761432110181400600,8.271400634765625,0.3007318377494812,0.019369181245565414,-0.16839568316936493
1761432110201342500,8.291342529296875,0.6075432300567627,0.1607474982738495,0.37532535195350647
1761432110221284400,8.311284423828125,0.7620084881782532,0.36326196789741516,0.5488424301147461
1761432110241225500,8.3312255859375,0.5337809324264526,0.46160995960235596,0.17697954177856445
1761432110261167600,8.351167724609375,-0.02469637058675289,-0.11304397881031036,-0.46487098932266235
1761432110281110500,8.371110595703126,-0.3147411346435547,-0.6078317761421204,-0.6300258040428162
1761432110301052700,8.391052734375,-0.15087890625,-0.654550313949585,-0.4003344774246216
1761432110320994600,8.41099462890625,0.1509556621313095,-0.1534719616174698,-0.05175654590129852
1761432110340936400,8.4309365234375,0.2507163882255554,0.12812530994415283,0.051309484988451004
1761432110360878600,8.450878662109375,0.14708665013313293,0.23968051373958588,-0.1742541491985321
1761432110380820500,8.470820556640625,0.027210548520088196,0.20087267458438873,-0.43138203024864197
1761432110400762600,8.4907626953125,-0.032851692289114,0.2341689169406891,-0.49113568663597107
1761432110420704500,8.51070458984375,-0.02244184911251068,0.219121053814888,-0.3855257034301758
1761432110440646400,8.530646484375,-0.05625644326210022,0.11521126329898834,-0.30345287919044495
1761432110460588500,8.550588623046876,-0.24146363139152527,-0.1931135654449463,-0.25761571526527405
1761432110480529700,8.57052978515625,-0.29372724890708923,-0.4427185654640198,-0.08705714344978333
1761432110500471600,8.590471435546876,-0.11105457693338394,-0.379401832818985,0.06950201839208603
1761432110520413400,8.610413330078124,0.13803207874298096,-0.05381264537572861,-0.01627439074218273
1761432110540355300,8.630355224609374,0.12869498133659363,0.39814111590385437,-0.30390626192092896
1761432110560297500,8.65029736328125,-0.11289189010858536,0.5917033553123474,-0.39926332235336304
1761432110580239600,8.670239501953125,-0.3216124475002289,0.21010909974575043,-0.3862474262714386
1761432110600181500,8.690181396484375,-0.48439913988113403,-0.2984188199043274,-0.3020881414413452
1761432110620123400,8.710123291015625,-0.4381960332393646,-0.37575778365135193,-0.1315295249223709
1761432110640065500,8.7300654296875,-0.31373509764671326,0.024117115885019302,0.11293309926986694
1761432110660007400,8.75000732421875,-0.19048909842967987,0.5104405283927917,0.21205346286296844
1761432110679948500,8.769948486328126,-0.21400068700313568,0.5587078928947449,0.1525222510099411
1761432110699889700,8.7898896484375,-0.33570653200149536,0.15509815514087677,-0.008521318435668945
1761432110719831800,8.809831787109376,-0.49219638109207153,-0.4570966958999634,-0.14860759675502777
1761432110739773400,8.8297734375,-0.4622075855731964,-0.7377575635910034,-0.11629389971494675
1761432110759715600,8.849715576171874,-0.43322062492370605,-0.49974650144577026,0.09061144292354584
1761432110779657700,8.86965771484375,-0.24142608046531677,0.14131930470466614,0.24465018510818481
1761432110799599600,8.889599609375,0.06120583042502403,0.5969353914260864,0.21303074061870575
1761432110819541800,8.909541748046875,0.027149971574544907,0.6394310593605042,0.025766465812921524
1761432110839483600,8.929483642578125,-0.28495848178863525,0.21456119418144226,-0.29185882210731506
1761432110859425500,8.949425537109375,-0.5670360922813416,-0.08287149667739868,-0.5188819766044617
1761432110879367700,8.96936767578125,-0.6128104329109192,0.04840296506881714,-0.5560901761054993
1761432110899308800,8.989308837890626,-0.5045284628868103,0.3866364657878876,-0.31089159846305847
1761432110919250700,9.009250732421876,-0.32199352979660034,0.6013966202735901,-0.04629119485616684
1761432110939192600,9.029192626953124,-0.17831659317016602,0.47716671228408813,-0.019642462953925133
1761432110959134500,9.049134521484374,-0.09418737888336182,0.17695929110050201,-0.05623093247413635
1761432110979076600,9.06907666015625,-0.02210279554128647,-0.1370236724615097,-0.07684433460235596
1761432110999018800,9.089018798828125,0.03149602934718132,-0.41217175126075745,-0.04135202616453171
1761432111018960600,9.108960693359375,0.11380480229854584,-0.6146335005760193,-0.005827639251947403
1761432111038902500,9.128902587890625,0.1482621133327484,-0.28796783089637756,0.23738421499729156
1761432111058844700,9.1488447265625,0.2942714989185333,0.16338206827640533,0.6126633286476135
1761432111078786600,9.16878662109375,0.3857911229133606,0.39539268612861633,0.8208903074264526
1761432111098727700,9.188727783203126,0.35463887453079224,0.4564897119998932,0.5467419028282166
1761432111118669600,9.208669677734376,0.2100212574005127,0.3162040114402771,0.049959953874349594
1761432111138611500,9.228611572265624,0.05085860565304756,0.011153684929013252,-0.14742831885814667
1761432111158553600,9.2485537109375,-0.0996844694018364,-0.10989593714475632,0.00839299988001585
1761432111178495700,9.268495849609375,0.012218926101922989,0.15706633031368256,0.2013522982597351
1761432111198437600,9.288437744140625,0.2847040295600891,0.4026142954826355,0.16203680634498596
1761432111218379800,9.3083798828125,0.3958585560321808,0.23916178941726685,-0.041205551475286484
1761432111238321700,9.32832177734375,0.37390151619911194,-0.08371744304895401,-0.02227788418531418
1761432111258263600,9.348263671875,0.3372907042503357,-0.18912316858768463,0.17552967369556427
1761432111278205700,9.368205810546876,0.27808883786201477,-0.06216473877429962,0.2546232342720032
1761432111298146800,9.388146728515625,0.18256862461566925,0.03543446213006973,0.0626663938164711
1761432111318088400,9.40808837890625,0.06711726635694504,-0.0738699734210968,-0.19668540358543396
1761432111338030600,9.428030517578126,0.04722295328974724,-0.16161373257637024,-0.14517471194267273
1761432111357972700,9.44797265625,0.2048262655735016,-0.10503526777029037,0.16748294234275818
1761432111377914600,9.46791455078125,0.408608078956604,0.11270898580551147,0.3470354676246643
1761432111397856800,9.487856689453125,0.5556113123893738,0.3168952465057373,0.26665812730789185
1761432111417798400,9.50779833984375,0.5284967422485352,0.3935944736003876,0.1127825602889061
1761432111437740500,9.527740478515625,0.24147962033748627,0.26581525802612305,-0.03722252696752548
1761432111457682700,9.5476826171875,-0.004909072536975145,0.1838696300983429,-0.19030199944972992
1761432111477623800,9.567623779296875,-0.06563017517328262,0.19352540373802185,-0.26064690947532654
1761432111497565400,9.5875654296875,-0.009568127803504467,0.13969026505947113,-0.12456747889518738
1761432111517507600,9.607507568359376,0.08002234995365143,0.03730272874236107,0.18642102181911469
1761432111537449500,9.627449462890626,-0.034854937344789505,-0.16483324766159058,0.2950933873653412
1761432111557391600,9.6473916015625,-0.16951094567775726,-0.28725311160087585,0.14962294697761536
1761432111577333800,9.667333740234374,-0.1734645813703537,-0.18958529829978943,0.027843821793794632
1761432111597275600,9.687275634765625,-0.18313200771808624,-0.05064604803919792,0.20201697945594788
1761432111617217500,9.707217529296875,-0.16256603598594666,-0.10176990181207657,0.5014424920082092
1761432111637159700,9.72715966796875,-0.22872532904148102,-0.2353806048631668,0.45358169078826904
1761432111657100800,9.747100830078125,-0.2559731602668762,-0.21018584072589874,0.1253352165222168
1761432111677043200,9.767043212890625,-0.0747133120894432,0.14530101418495178,0.024282988160848618
1761432111696985000,9.786985107421875,0.006558159366250038,0.03331800922751427,-0.023031314834952354
1761432111716927000,9.806927001953126,-0.07654085010290146,-0.15866504609584808,-0.23566168546676636
1761432111736869000,9.826869140625,-0.36152130365371704,-0.36942851543426514,-0.46998822689056396
