time,seconds_elapsed,z,y,x
1761506008629265700,0.085265625,0.21426702005863188,-0.21116116299778223,0.07594473716989159
1761506008649421600,0.105421630859375,0.15977555141448974,-0.17330869446545838,0.10444405174963176
1761506008669577700,0.12557763671875,0.15830138720870018,-0.08725158247351646,0.11411109395697712
1761506008689733600,0.145733642578125,0.020338439151644707,-0.03342003904283047,-0.009260105374269186
1761506008709888800,0.165888671875,-0.10459025528728962,-0.008555939160287379,-0.05110745222903788
1761506008730045000,0.186044921875,0.19339666598737237,0.12850889101326465,-0.26853074436150487
1761506008750200800,0.206200927734375,0.31184768884479996,0.2055754718199372,-0.07035597725212574
1761506008770356700,0.226356689453125,0.26368250061273574,0.12689970225095748,-0.08353373099416495
1761506008790513000,0.246512939453125,0.3512058857649564,0.1283797116756439,-0.08851802221275866
1761506008810667800,0.266667724609375,0.25168811143636705,-0.02781009020656347,0.021828750774636863
1761506008830823700,0.28682373046875,0.18428806138038634,-0.1416208860427141,0.15239830064475535
1761506008850979800,0.306979736328125,0.22128420534431933,-0.226810859811306,0.069114306627959
1761506008871135700,0.3271357421875,0.03975625632703304,-0.4453495658397674,0.04401186794489622
1761506008891290600,0.34729052734375,-0.0063601826816797255,-0.5421247634619474,-0.016834741879627108
1761506008911446800,0.36744677734375,-0.09876374109089374,-0.6000166881993413,-0.022849106798321007
1761506008931602700,0.387602783203125,-0.12848200300633908,-0.5819438558921217,-0.10655044944435357
1761506008951758800,0.4077587890625,-0.15848843421339986,-0.5601634012386203,-0.19250848497599363
1761506008971914800,0.427914794921875,-0.14808394457697868,-0.571564792957902,-0.30486016804501415
1761506008992069600,0.448069580078125,-0.1741080281496048,-0.5666090702466666,-0.33505357319153845
1761506009012225800,0.468225830078125,-0.12353811686336993,-0.5600238466374575,-0.23695903659909962
1761506009032381700,0.488381591796875,-0.06070084467828273,-0.5718671369053423,-0.23164587875232098
1761506009052537600,0.50853759765625,-0.04414075502157211,-0.5779411961220204,-0.19769012539759276
1761506009072693000,0.52869287109375,-0.008093290084600448,-0.5166019074097276,-0.1321844377208501
1761506009092849000,0.548848876953125,0.04739420385956764,-0.47932022450268263,-0.09952259663417935
1761506009113005000,0.569005126953125,0.07796177608072757,-0.41802769754156466,-0.1530164325430989
1761506009133161000,0.589160888671875,0.07979542124867439,-0.39081265061870213,-0.2004088097717613
1761506009153316900,0.60931689453125,0.10266542470455169,-0.388280209531635,-0.16964622643515467
1761506009173472300,0.62947216796875,0.0735597417294979,-0.42059535607248544,-0.2159075538072735
1761506009193628200,0.649628173828125,0.0522451510220766,-0.47813320667520165,-0.2271140074763447
1761506009213784000,0.6697841796875,0.06506663867235184,-0.49053544600009913,-0.22716661444641648
1761506009233940200,0.689940185546875,-0.07895604781508446,-0.5647111276708543,-0.14231244850344954
1761506009254095000,0.71009521484375,-0.19481062443852423,-0.5764822294853628,-0.11062982771247624
1761506009274251000,0.7302509765625,-0.32868308831155296,-0.5753305752322078,-0.021713526897132397
1761506009294407200,0.7504072265625,-0.16845803956389427,-0.6984346845924854,-0.08046411429047584
1761506009314563000,0.77056298828125,-0.2241314114689827,-0.7206302959181368,0.010362988582253456
1761506009334719000,0.790718994140625,-0.19962533124387263,-0.7368988552823662,0.031039208320900798
1761506009354874000,0.8108740234375,-0.21691256613135337,-0.6956335095666348,0.14847615876495837
1761506009375030000,0.831030029296875,-0.23882044655680654,-0.7033126658923924,0.16018340156301855
1761506009395186000,0.85118603515625,-0.177058110126853,-0.7708971326045692,0.18975107602663338
1761506009415342000,0.871342041015625,-0.31490766093730926,-0.5701052417993545,0.12140497729219496
1761506009435497000,0.8914970703125,-0.291060336881876,-0.41033904273509975,0.026776070983707902
1761506009455652900,0.91165283203125,-0.14622750305533408,-0.3404454222977161,-0.016705635607242583
1761506009475809000,0.93180908203125,-0.07826923459470271,-0.30643472388535736,-0.056112567039951676
1761506009495965000,0.95196484375,-0.09761047940254211,-0.3051394233778119,0.007014920263364911
1761506009516121000,0.97212109375,-0.15046470223367214,-0.2778814140960574,0.023764979534223674
1761506009536276200,0.992276123046875,-0.22274317198097704,-0.2545551913052797,0.04629194170609116
1761506009556432100,1.01243212890625,-0.2887590742021799,-0.15715017134696244,-0.024874767407029867
1761506009576588000,1.032588134765625,-0.5409960516929626,0.05536006817221641,0.047575040319189424
1761506009596744000,1.052743896484375,-0.1666881072819233,-0.03788783210664987,-0.2873837672609836
1761506009616899000,1.072899169921875,-0.32614977044165133,0.13831044632047415,-0.21940241018570958
1761506009637055200,1.09305517578125,-0.3415355556219816,0.13221592883765695,-0.27059885587245225
1761506009657211100,1.113211181640625,-0.37295594528019427,0.16794629064947367,-0.3450541582021862
1761506009677367000,1.133366943359375,-0.30223464184701443,0.197899530364573,-0.39391127422116695
1761506009697523200,1.153523193359375,-0.16923253106772898,0.20078473041206596,-0.41433753778673704
1761506009717678000,1.173677978515625,-0.14520400522649288,0.22755583295971155,-0.3434428505480289
1761506009737834000,1.193833984375,0.06074409929811954,0.04404167856127023,-0.3152721103355288
1761506009757990100,1.213990234375,0.12398644515275954,0.03199702050238847,-0.22925503809303044
1761506009778146000,1.23414599609375,0.13259002284705637,-0.04150602260380983,-0.14083075857833027
1761506009798302000,1.254302001953125,0.2856143464356661,-0.08274082705080509,-0.10829678165502846
1761506009818457000,1.27445703125,0.23539514828324318,-0.13232523443102837,-0.029788112281262873
1761506009838613000,1.294613037109375,0.24009470427632332,-0.16176438714414834,-0.00915156696587801
1761506009858769000,1.314768798828125,0.18598668199181556,-0.13205284723043442,0.005233078347891569
1761506009878925000,1.334925048828125,0.08645312557220458,-0.0650225072696805,0.009181377582252025
1761506009899080000,1.355079833984375,0.1319049631923437,0.027518413783609866,-0.01368701843842864
1761506009919235800,1.37523583984375,0.11973404840528964,0.10845482176095246,-0.07394391874149442
1761506009939392000,1.39539208984375,0.11710779155492781,0.1838043695166707,-0.06319120018929243
1761506009959548000,1.4155478515625,0.07501578575670718,0.18958821361511943,0.027971125987172125
1761506009979704000,1.4357041015625,0.11096329745054244,0.20290566808879373,0.010488368527591227
1761506009999859200,1.455859130859375,0.07069675351381302,0.22577771737128494,0.035938013213127847
1761506010020015000,1.47601513671875,0.12757307146787641,0.2887698878571391,0.04333718355372548
1761506010040171300,1.496171142578125,0.1127075107693672,0.28056524635255337,0.08747998440191149
1761506010060327200,1.5163271484375,0.14984510903060436,0.336333310803771,0.1659158077351749
1761506010080482000,1.53648193359375,0.21253099004626272,0.3234939952358603,0.137218705561012
1761506010100638200,1.55663818359375,0.24915596261024472,0.37546383644789455,0.17863573470711708
1761506010120795100,1.576795166015625,0.15700257956981659,0.4015127622008323,0.21008856533020734
1761506010140951000,1.596950927734375,0.12527590044140816,0.42760231222510336,0.14081556100919843
1761506010161107000,1.61710693359375,0.10121756398379803,0.40186522890031334,0.08438640230074525
1761506010181262000,1.637261962890625,-0.014300912553071974,0.3479319786608219,0.13625599800869823
1761506010201418000,1.65741796875,-0.08918167375326157,0.2691267374932766,0.16889555419832467
1761506010221574000,1.677573974609375,-0.120624859765172,0.19434563727527857,0.16182137802839278
1761506010241730000,1.69772998046875,-0.17939795125126837,0.18271598975807427,0.2255512151390314
1761506010261885000,1.717885009765625,-0.19507599737644193,0.17447715372294187,0.22656945227086542
1761506010282040800,1.738040771484375,-0.14375205285251139,0.16290449708998203,0.1911418727979064
1761506010302197000,1.758197021484375,-0.06264204187393188,0.1560150298371911,0.18093173668980597
1761506010322353000,1.778352783203125,-0.06323650063574314,0.1271779346704483,0.2195538744203746
1761506010342509000,1.798509033203125,-0.07056172895729541,0.12395458870977162,0.2451585635371506
1761506010362664000,1.818663818359375,-0.14030746535658836,0.12113894676715135,0.264201409920305
1761506010382819800,1.83881982421875,-0.26149931135475635,0.22974545195847748,0.2313616549834609
1761506010402976000,1.85897607421875,-0.35521921305954457,0.4247840399339795,0.15344883261099457
1761506010423132000,1.8791318359375,-0.3876519946306944,0.47238779489099975,0.11011121066585182
1761506010443287800,1.899287841796875,-0.4138847525179386,0.4977297414183616,0.037118455169349904
1761506010463443000,1.91944287109375,-0.2717880656570196,0.3920855931639671,0.11732654887214303
1761506010483598800,1.939598876953125,-0.3650502867221832,0.429895099337399,0.15963701972663402
1761506010503754800,1.959754638671875,-0.39006665455698963,0.3776020175203681,0.08015373316705227
1761506010523911000,1.979910888671875,-0.5394254413753747,0.3861804607734084,0.03973185253813863
1761506010544066800,2.00006689453125,-0.6928004780977964,0.44071635308116675,-0.06576068535111844
1761506010564222000,2.020221923828125,-0.607613426938653,0.4654486432775855,-0.1595922307368368
1761506010584378000,2.040378173828125,-0.48053252290189263,0.41124096001088617,-0.3048181555341929
1761506010604534000,2.060533935546875,-0.22932722654640672,0.3011886399254203,-0.4695451918762177
1761506010624690000,2.08068994140625,0.06351356401145458,0.26751579516530033,-0.28741796179153023
1761506010644845000,2.100844970703125,0.1841810938745737,0.18332272347956896,-0.11201850559189915
1761506010665001000,2.1210009765625,0.26006547915935513,0.19706424858421087,0.045629678405076264
1761506010685156900,2.141156982421875,0.1846516339957714,0.2123357597351074,0.18595351037457583
1761506010705313000,2.16131298828125,0.29517361741960046,0.1215679858341813,0.01269727674871683
1761506010725469000,2.181468994140625,0.3600362579524517,0.05926964283138513,0.1439795779980719
1761506010745623800,2.201623779296875,0.15667700087726116,0.12526391774266957,0.26880451980158687
1761506010765780000,2.221780029296875,0.16931377961039543,0.2080988528177142,0.33329087436795235
1761506010785936000,2.241935791015625,0.2369312718093395,0.18973960478454827,0.17432649320587515
1761506010806092000,2.262092041015625,0.0934843393832445,0.17876520630568266,0.27850758317038415
1761506010826248000,2.282248046875,-0.028812837508320806,0.17630232332348822,0.3711078331954777
1761506010846402800,2.30240283203125,-0.14657178644835947,0.16480711584091184,0.4365995654121041
1761506010866559000,2.32255908203125,-0.14733166490495203,0.1450739491060376,0.4247553983613848
1761506010886715000,2.34271484375,-0.18297580973803995,0.15550094283521174,0.5089266966067254
1761506010906870800,2.362870849609375,-0.24349954428374765,0.1604085886210203,0.484558417417109
1761506010927027000,2.38302685546875,-0.37232875329256054,0.19642770424634218,0.49201603994667525
1761506010947181800,2.403181884765625,-0.23781156177520751,0.22691256662011144,0.49929348360374565
1761506010967337700,2.423337646484375,-0.3557230709284544,0.2853855061158538,0.4193788198895752
1761506010987494000,2.443493896484375,-0.270920050650835,0.25373802970349785,0.3486417343653738
1761506011007649800,2.46364990234375,-0.3052928603738546,0.28202538203299043,0.3554148817621171
1761506011027806000,2.483805908203125,-0.29059447293579577,0.26782822211533786,0.3370259692430496
1761506011047961000,2.503961181640625,-0.18599194268882274,0.29219635517448184,0.295927942918241
1761506011068117000,2.524116943359375,-0.09484919799566269,0.2825914914831519,0.25821312929093837
1761506011088273000,2.54427294921875,-0.06941255892217159,0.25545944666862486,0.1939785575285554
1761506011108432100,2.56443212890625,0.008826865056157112,0.20068682299554347,0.14869491608217358
1761506011128587000,2.5845869140625,0.022910919988155365,0.1545683381602168,0.12013079263791442
1761506011148743000,2.604742919921875,0.05557049605250358,0.19510259312242267,0.1168795357570052
1761506011168899000,2.624899169921875,0.18283377091884612,0.17103870370686053,0.024900340239703653
1761506011189055000,2.645054931640625,0.21319968308806417,0.05361293224394321,-0.017744184874743222
1761506011209211100,2.665211181640625,0.3677876027315855,-0.14546937816441058,0.10700243099555373
1761506011229367000,2.685366943359375,0.1549579219996929,-0.4311822165384888,0.23923238835856317
1761506011249522000,2.70552197265625,0.037620997864007945,-0.5311641012474895,0.242313695500046
1761506011269678000,2.725677978515625,-0.10989128430485724,-0.5531298493400216,0.19146788988187907
1761506011289834000,2.745833984375,-0.22316578130722045,-0.44441871473044153,0.004520253903418779
1761506011309990000,2.765989990234375,-0.1761596999824047,-0.17039485284537076,-0.2549723938040435
1761506011330145000,2.78614501953125,-0.03904372414350509,0.07819324674904346,-0.524869531147927
1761506011350301000,2.806301025390625,0.1256055707871914,0.21990794855505227,-0.6022989539176226
1761506011370456800,2.826456787109375,0.1412643276900053,0.2887503063738346,-0.5784050142414867
1761506011390613000,2.846613037109375,0.26662673737108705,0.24481384175270796,-0.5074732829280197
1761506011410769000,2.866768798828125,0.22531915994882581,0.12480506805926561,-0.39409488715976476
1761506011430924000,2.886924072265625,0.4026093252658844,-0.007761573912203311,-0.3097394645191729
1761506011451080200,2.907080078125,0.3817945007741451,-0.1654804850578308,-0.14324278815612196
1761506011471236000,2.927236083984375,0.40637364623546596,-0.34515111577063795,-0.030599136403203008
1761506011491392000,2.94739208984375,0.3286129456847906,-0.5374976881831884,0.21810805952623485
1761506011511548200,2.967548095703125,0.2950724951326847,-0.7119470771163702,0.35247999735400076
1761506011531703000,2.987703125,0.15735446174740791,-0.7513757089242339,0.4780376373462379
1761506011551859000,3.00785888671875,0.0008943184912204742,-0.6965332348853349,0.45259544531479473
1761506011572015000,3.02801513671875,0.04582242449820041,-0.5981424187600612,0.3683925828874111
1761506011592171000,3.0481708984375,0.029748072531819342,-0.45907969276756044,0.2964404224850237
1761506011612327200,3.0683271484375,0.11332418136298655,-0.33836043271720406,0.265172154648602
1761506011632483000,3.088483154296875,0.16284779846668243,-0.2866387210473418,0.42405674857273695
1761506011652638000,3.108637939453125,0.14942834492325782,-0.34134149435460565,0.560053803384304
1761506011672794000,3.128794189453125,0.09211071294248104,-0.37711657209098337,0.6415712261199951
1761506011692950000,3.148949951171875,-0.04919803841114044,-0.4277995883628726,0.6278066124007106
1761506011713106000,3.16910595703125,0.0460147321999073,-0.48549189887493843,0.5826803534731269
1761506011733262000,3.189261962890625,-0.04055763583779335,-0.5123755218863487,0.510310406050086
1761506011753417000,3.2094169921875,-0.03259294056892395,-0.5301268671542406,0.5001115219883621
1761506011773572900,3.22957275390625,-0.05715922654867172,-0.5998056757971644,0.39649581082165236
1761506011793729000,3.24972900390625,0.007173252630233764,-0.5886398463994265,0.3604847323723137
1761506011813885000,3.269885009765625,0.02555880414843559,-0.5691092164993286,0.28821123106107116
1761506011834041000,3.290041015625,0.09845043735802173,-0.5546864311322569,0.21150515412986276
1761506011854196000,3.310196044921875,0.13252104926407338,-0.6235957167074084,0.20399185589030383
1761506011874351900,3.330351806640625,0.26701369086205956,-0.6952209832429885,0.18431626456156372
1761506011894508000,3.350508056640625,0.36636078479886053,-0.8082157865211367,0.24589170011729
1761506011914664000,3.370663818359375,0.42503918373882765,-0.9292930662289262,0.2867356055505574
1761506011934819800,3.39081982421875,0.45028000797927376,-0.9769817229904234,0.3087809947505593
1761506011954975200,3.410975341796875,0.5073556478977203,-1.0643887882865966,0.26023499050736426
1761506011975131100,3.431131103515625,0.5242226115465164,-1.1104869609862564,0.3245981570854783
1761506011995287000,3.451287109375,0.4795318214267492,-1.089032231155783,0.36400355414822694
1761506012015443200,3.471443115234375,0.4890799864947796,-1.0808823885783552,0.41747225561589
1761506012035599000,3.49159912109375,0.4638508526921272,-1.0823201662965118,0.44042409213632344
1761506012055755000,3.511755126953125,0.3757645729601383,-1.0190509324349462,0.5363743832416832
1761506012075910100,3.53191015625,0.25982290257513524,-0.9971410061828792,0.5431685734264552
1761506012096066000,3.552066162109375,-0.011647767695784569,-0.9396145537570119,0.5482651659131049
1761506012116217300,3.57221728515625,-0.22620880226492882,-0.8657249955512583,0.45298269106671213
1761506012136373500,3.59237353515625,-0.451842434990406,-0.7811274347178637,0.4372217158984393
1761506012156529400,3.612529296875,-0.6494166789233684,-0.7611245111308992,0.5157568348877132
1761506012176684300,3.632684326171875,-0.7400134801715612,-0.6791131673984229,0.33365883089751003
1761506012196840400,3.65284033203125,-0.7133791557461023,-0.39999870437607166,0.15887838337905705
1761506012216996400,3.672996337890625,-0.5808908397078514,-0.24305662282183765,0.018818463042750953
1761506012237152300,3.69315234375,-0.41691023781895636,-0.08851239618957042,-0.14353884849324822
1761506012257308400,3.713308349609375,-0.40826165193915365,-0.06921294469684362,-0.17144699224680662
1761506012277464300,3.73346435546875,-0.36706922532916064,-0.06882745251059531,-0.10396525525674223
1761506012297619500,3.753619384765625,-0.37485564142167566,-0.025044132624566555,-0.04998195533044636
1761506012317775400,3.773775390625,-0.4035989208251238,0.062092883558571337,-0.10679777526892721
1761506012337931500,3.793931640625,-0.4746124852031469,0.29039456644952294,-0.18182948924712836
1761506012358087400,3.81408740234375,-0.5542109225749969,0.5651946734040976,-0.3293726049456745
1761506012378243300,3.834243408203125,-0.49599371140599247,0.8124886415347456,-0.4995204242274165
1761506012398399200,3.854399169921875,-0.40748131521642206,0.9662231592193246,-0.6137842245280742
1761506012418554600,3.8745546875,-0.2610311093211174,1.0619973631054163,-0.6773682964924722
1761506012438710500,3.89471044921875,-0.09332125777602195,1.061809439317882,-0.6827963859558105
1761506012458866400,3.914866455078125,0.09056640610992908,1.0524763783052562,-0.6451317681457847
1761506012479022600,3.935022705078125,0.26609131532013414,1.0260650489807128,-0.5919844075869769
1761506012499178500,3.955178466796875,0.36731823165416716,0.9667194183036685,-0.5333056433208286
1761506012519333400,3.97533349609375,0.45690848620831964,0.8710288010478019,-0.5301712908178567
1761506012539489500,3.995489501953125,0.4472428322404623,0.7361629422232508,-0.5355302605677396
1761506012559645400,4.0156455078125,0.2792255221813917,0.5827089950457215,-0.44814270368963477
1761506012579801300,4.03580126953125,0.167236973336339,0.3686126553788781,-0.41380562286712225
1761506012599957500,4.05595751953125,-0.008534019589424133,0.28508564638644457,-0.38279016074799
1761506012620113400,4.076113525390625,-0.14880816719830034,0.2321414071843028,-0.3407113797575235
1761506012640268300,4.096268310546875,-0.2552361593067646,0.137303607365489,-0.39082200296893715
1761506012660424400,4.116424560546875,-0.26617840908169743,0.20125790088176726,-0.5285534803576767
1761506012680580400,4.136580322265625,-0.2500514501452446,0.27725919054448606,-0.5817302862066775
1761506012700736500,4.156736572265625,-0.1159369942098856,0.24800182413905858,-0.6603092443376779
1761506012720892400,4.176892333984375,0.11107611017525196,0.14580577051192523,-0.764154526476562
1761506012741048300,4.19704833984375,0.16908172442018984,-0.04552314929068088,-0.6277296747069806
1761506012761203500,4.217203369140625,0.2563496735066175,-0.27122663238197564,-0.5024617383763194
1761506012781359400,4.237359375,0.39599136843085286,-0.4490186097413301,-0.4242290363997221
1761506012801515300,4.257515380859375,0.4322627052515745,-0.5869567156180739,-0.332652722594887
1761506012821671400,4.27767138671875,0.45718613410592074,-0.6626546384200453,-0.28976752059236166
1761506012841827300,4.297827392578125,0.3961749083042145,-0.7131430089026689,-0.24355975003838537
1761506012861982500,4.317982421875,0.3716910399109125,-0.748290894651413,-0.2785409739833325
1761506012882138400,4.338138427734375,0.2984013472944498,-0.7792521423652767,-0.23675291956774888
1761506012902294300,4.358294189453125,0.28568565810620783,-0.7807002953469753,-0.21502229540534315
1761506012922450400,4.378450439453125,0.27525311141908165,-0.7619418188631534,-0.25601978396512565
1761506012942606300,4.3986064453125,0.3200590523511171,-0.6939493558719754,-0.3119892892725766
1761506012962762200,4.41876220703125,0.30582302172780035,-0.7290431733459234,-0.3073374448787421
1761506012982917600,4.438917724609375,0.2833329575002193,-0.720830348534882,-0.3030741614110768
1761506013003073500,4.459073486328125,0.20612989083230493,-0.8038628520086407,-0.20920484129823744
1761506013023229400,4.4792294921875,0.07313947049081325,-0.8746925842523574,-0.051335269635543225
1761506013043385600,4.499385498046875,-0.11006839443743228,-0.912981982897222,0.030107626559212803
1761506013063541500,4.51954150390625,-0.28962884277403356,-0.7997706142589449,-0.0033152620278298853
1761506013083697400,4.539697509765625,-0.3851373814612627,-0.6493570576906204,-0.08729768663756549
1761506013103853000,4.55985302734375,-0.4903215109884739,-0.5782771500781179,-0.18765256937742233
1761506013124009000,4.580009033203125,-0.6144120010375976,-0.7513640184864402,-0.05663987884968519
1761506013144165000,4.6001650390625,-0.8160603625416755,-0.686236589537561,-0.053308688600361344
1761506013164321000,4.620321044921875,-1.0253846655011176,-0.7247539517194033,0.03571326454654336
1761506013184477000,4.640476806640625,-1.4006290139794348,-0.7099076802432537,-0.04255231678634882
1761506013204632000,4.660632080078125,-1.4331418750494718,-0.4047337700739503,-0.20204430201910434
1761506013224788000,4.6807880859375,-1.3301976334035395,-0.04800181436389685,-0.3802323660239577
1761506013244944000,4.70094384765625,-0.9424252272635698,0.3202937378898263,-0.4522190862830728
1761506013265100000,4.72110009765625,-0.708968938088417,0.5229229271247983,-0.341291371602565
1761506013285256000,4.741255859375,-0.4877689038962125,0.6219482417613268,-0.20691198112070558
1761506013305411800,4.761411865234375,-0.22099954318404197,0.6208177764266729,-0.15415332761853934
1761506013325567000,4.78156689453125,0.06332067178785801,0.6600640374049543,-0.14753712434917687
1761506013345723000,4.801722900390625,0.27610242172479627,0.7032604973137379,-0.1312709030725062
1761506013365878800,4.821878662109375,0.4141419421494007,0.7656672691270708,-0.04576514135301113
1761506013386035000,4.842034912109375,0.5071633401960134,0.830919785760343,0.062135553656518454
1761506013406190800,4.86219091796875,0.50519291690588,0.8668909705907106,0.10506912484541535
1761506013426345700,4.882345703125,0.45683542097210883,0.8239101992592215,0.21168109521865844
1761506013446502000,4.902501953125,0.3830062146514654,0.7900123135715723,0.2667404268786311
1761506013466657800,4.92265771484375,0.3053898910075426,0.8052072523549199,0.3254623726993799
1761506013486814000,4.94281396484375,0.21792729613184927,0.8277975620865822,0.3867671746201813
1761506013506969900,4.962969970703125,0.1364449447095394,0.7847004708990454,0.35536782774999737
1761506013527125800,4.983125732421875,0.08387772212624549,0.7101505490884185,0.4322149205870926
1761506013547281200,5.00328125,-0.008314239358901977,0.6227464064016938,0.5775894600749015
1761506013567437000,5.02343701171875,-0.06547521947324275,0.4918465285986662,0.6783468592010438
1761506013587593000,5.043593017578125,-0.15675591133236885,0.38244419685453174,0.6636439417183398
1761506013607748900,5.063748779296875,-0.28733225626945497,0.2939993129432201,0.6850241450078784
1761506013627904800,5.08390478515625,-0.3731079209715128,0.3055883361890912,0.519058214520663
1761506013648061000,5.10406103515625,-0.3630155660241842,0.3976064024120569,0.2874544213443994
1761506013668216000,5.124216064453125,-0.2831201915323734,0.4927382167413831,0.13841785221770406
1761506013688372000,5.1443720703125,-0.0924438904196024,0.46343993380367754,-0.01098652730807662
1761506013708528000,5.164528076171875,0.03605214111208915,0.3379486370459199,0.01657820983529091
1761506013728684000,5.18468408203125,0.22928689453601836,0.1973161775186658,0.0867300428174436
1761506013748840000,5.20483984375,0.2730471258074045,-0.015124211634695529,0.24037980482801793
1761506013768995000,5.2249951171875,0.22097265517711637,-0.17390110740065573,0.35846871637478467
1761506013789151000,5.24515087890625,0.18129297121763227,-0.2761842547893524,0.34325594967380163
1761506013809307000,5.265306884765625,0.14045301130712032,-0.3007482026815414,0.3262685745157301
1761506013829463000,5.285463134765625,0.05154430927634239,-0.33274902257621286,0.2416344810642302
1761506013849619000,5.305618896484375,0.011850596791505814,-0.35414866121858357,0.17898104101344942
1761506013869774800,5.32577490234375,0.015533669218420981,-0.41602585619986054,0.1566940981425345
1761506013889930000,5.345929931640625,0.051097734552621836,-0.4633946333572268,0.16090382479205725
1761506013910086000,5.3660859375,0.09273790493011475,-0.47535950417816636,0.22263094377815723
1761506013930241800,5.38624169921875,0.15120821407735346,-0.4848638301044702,0.20091040261834858
1761506013950398000,5.40639794921875,0.14525193602144718,-0.4976882403641939,0.2163248293712735
1761506013970553900,5.426553955078125,0.1660515629440546,-0.45673985164314507,0.15786124222576617
1761506013990710000,5.4467099609375,0.22456395766735077,-0.4424631967484951,0.15726561442017553
1761506014010865000,5.466864990234375,0.3137777801245451,-0.4445174989297986,0.151211867339164
1761506014031020800,5.487020751953125,0.3583277004688978,-0.4943383454144001,0.16135259147286415
1761506014051177000,5.507177001953125,0.43090018472671504,-0.5145268547013402,0.1846557256489992
1761506014071332900,5.527332763671875,0.46958793503940105,-0.5847141973882913,0.237943079200387
1761506014091488800,5.54748876953125,0.4759937104284763,-0.6005871815636754,0.2898385400019586
1761506014111644400,5.56764453125,0.4622907637685537,-0.6224173205778002,0.3581825929097831
1761506014131799600,5.587799560546875,0.44975043114721774,-0.6424535619124769,0.43604500026926396
1761506014151955500,5.60795556640625,0.3705810328423977,-0.6573392886161804,0.46810690270140765
1761506014172111400,5.628111328125,0.22203999214768408,-0.674876698872447,0.5189718514114618
1761506014192267500,5.648267578125,0.06872925283312797,-0.6785901664376258,0.5408743250094353
1761506014212423400,5.66842333984375,-0.08242869236171245,-0.6162181736767292,0.4352241854056716
1761506014232578300,5.688578369140625,-0.20909341681301594,-0.5466439944520592,0.3326530148558318
1761506014252734500,5.708734375,-0.22793489540517328,-0.5444005994394421,0.3772670864775777
1761506014272890400,5.728890380859375,-0.37242812201380726,-0.7923965783596039,0.5098825360268354
1761506014293046500,5.749046630859375,-0.45848377270102497,-0.6400660822540521,0.5530009622633457
1761506014313202400,5.769202392578125,-0.6062859777271747,-0.7580813440427183,0.5275424766842276
1761506014333358300,5.7893583984375,-0.5883195284038781,-0.47461073163747786,0.39598990712612864
1761506014353513500,5.809513427734375,-0.624245412787795,-0.28401918619871136,0.29615766002088784
1761506014373669400,5.82966943359375,-0.5742489174753427,0.06292115107625723,0.16632994149401784
1761506014393825300,5.8498251953125,-0.3726888187766075,0.33473025952130553,0.06868921308368445
1761506014413981400,5.8699814453125,-0.0959726490676403,0.5614776987075806,0.029741204399615525
1761506014434137300,5.890137451171875,0.1324988374322653,0.6431517733097076,0.0951700274478644
1761506014454293500,5.91029345703125,0.3087877167522907,0.6180024267449975,0.2578875505983829
1761506014474448400,5.930448486328125,0.4084019371926784,0.5333849921673536,0.32748854476474226
1761506014494604300,5.950604248046875,0.5161345821589232,0.4460886937692761,0.4212089579261839
1761506014514760400,5.970760498046875,0.5168646499991416,0.3354226256996393,0.42500506227351725
1761506014534916400,5.990916259765625,0.42822132090628146,0.26233722348362204,0.3483770920798182
1761506014555072300,6.011072265625,0.20922025806307792,0.2971902179390192,0.2745991044897586
1761506014575228400,6.031228515625,0.08813713313639164,0.4994581726461649,0.06582987812981009
1761506014595383300,6.05138330078125,0.022034137153625486,0.6779305334851146,-0.1172912583630532
1761506014615539200,6.071539306640625,-0.034787820264697074,0.8171332524701952,-0.25978461639136075
1761506014635695400,6.0916953125,-0.1907815150529146,0.9958791695535182,-0.34714981530718503
1761506014655851300,6.111851318359375,-0.26489479901194574,1.1092156258761883,-0.4467967689733952
1761506014676007200,6.132007080078125,-0.2309147879987955,1.098664128984511,-0.527617149355635
1761506014696163300,6.152163330078125,-0.2567331198662519,0.9821934662893413,-0.5437484191410243
1761506014716318500,6.172318359375,-0.3166530432999134,0.7648261421278119,-0.45820466349869965
1761506014736474400,6.192474365234375,-0.3705494686603546,0.4900830260574817,-0.41557628580145534
1761506014756630500,6.212630615234375,-0.44596682095527646,0.30433190638720986,-0.37465515041351316
1761506014776786400,6.232786376953125,-0.5623971516400575,0.20125234792381524,-0.3106812023486942
1761506014796942600,6.252942626953125,-0.5862146650791168,0.17045009016394613,-0.3530161500573158
1761506014817098500,6.273098388671875,-0.5813087728589773,0.29697336031794547,-0.4328921622615307
1761506014837253400,6.29325341796875,-0.4488952756226062,0.43035774841308594,-0.5212349009726196
1761506014857409500,6.313409423828125,-0.26538053670227524,0.48169689050614833,-0.5859200660467148
1761506014877565400,6.3335654296875,-0.10707271975278854,0.44679099681973455,-0.5408153613638133
1761506014897721300,6.353721435546875,0.05534487060308456,0.26119506771117446,-0.3418387032870203
1761506014917877500,6.37387744140625,0.1771709228515625,0.07426935130357742,-0.1762367107413709
1761506014938033400,6.394033447265625,0.22283085026443003,-0.1352013743892312,-0.05952997426800429
1761506014958188300,6.414188232421875,0.30825463278889653,-0.2739139717698097,-0.05116049759052693
1761506014978344400,6.434344482421875,0.2893435960918665,-0.34361762259304524,-0.07298566816858947
1761506014998500400,6.454500244140625,0.27314474096298214,-0.3658925827652216,-0.10080182278975844
1761506015018656500,6.474656494140625,0.272581846383214,-0.40161593031436205,-0.12784575092941522
1761506015038812400,6.4948125,0.22752689912617205,-0.36963030798882246,-0.10578348365984856
1761506015058968300,6.51496826171875,0.19650106174349782,-0.34074411298334595,-0.1079035445537418
1761506015079123500,6.53512353515625,0.12710662299990652,-0.3433791376620531,-0.14887560641132294
1761506015099279400,6.555279296875,0.04420037625432014,-0.3486220067515969,-0.17148220969066022
1761506015119435500,6.575435546875,-0.01941547908782959,-0.40073856295794247,-0.20023286868296564
1761506015139591400,6.59559130859375,0.019267010527849196,-0.4923766899526119,-0.23860161617435513
1761506015159747600,6.61574755859375,0.02581424021422863,-0.5985296645119786,-0.13732041236981748
1761506015179903500,6.635903564453125,0.05011515325605869,-0.7079018933787942,-0.03805244808383286
1761506015200058400,6.656058349609375,-0.015438976672291755,-0.7897317430645227,0.044942426793277264
1761506015220214500,6.676214599609375,-0.013628712379932403,-0.8043149796903133,-0.014471227618679403
1761506015240370400,6.696370361328125,-0.09589490765631198,-0.762354783578217,-0.042427156036719677
1761506015260526300,6.7165263671875,-0.09040040189325808,-0.7423103589370846,-0.1088142296578735
1761506015280682500,6.7366826171875,-0.12665712566673754,-0.6900640388712287,-0.17431429131142795
1761506015300838400,6.75683837890625,-0.140345459279418,-0.5953685701325535,-0.19986096663065253
1761506015320993500,6.77699365234375,-0.13354279352724552,-0.5354498157426715,-0.2837128236632794
1761506015341149700,6.797149658203125,-0.20883038196265696,-0.40946196763962506,-0.3087073449924588
1761506015361305600,6.8173056640625,-0.2089806040883064,-0.28314181884229184,-0.3872530584409833
1761506015381461500,6.83746142578125,-0.28527590826153754,-0.4565881682127714,-0.22614684294462203
1761506015401617400,6.857617431640625,-0.5194575891017914,-0.4008446536809206,-0.10308028911575674
1761506015421773300,6.877773193359375,-0.5732511386096477,-0.19119360298514365,-0.02656798119097948
1761506015441928700,6.8979287109375,-0.6115256319463253,-0.1429696703031659,-0.15937208518013357
1761506015462084600,6.918084716796875,-0.5535948365032672,-0.0062032385542988774,-0.20062121041342615
1761506015482240500,6.938240478515625,-0.5389022942841053,0.008402209903299807,-0.2218174354381859
1761506015502396700,6.958396728515625,-0.5067582665264606,0.010812778176367282,-0.13764905980229378
1761506015522552600,6.978552490234375,-0.46262803289890286,0.05449263768792152,-0.110375706820935
1761506015542708500,6.99870849609375,-0.3168739925742149,0.1826771190524101,-0.10066102607958018
1761506015562863600,7.018863525390625,-0.11814414886534214,0.3600418109104037,-0.18956841293610632
1761506015583019500,7.03901953125,0.09403262091577053,0.484642296308279,-0.2739327495355159
1761506015603175400,7.059175537109375,0.146391753706336,0.631300591996312,-0.22115926379039882
1761506015623331600,7.07933154296875,0.35492636759281154,0.7057979068368673,-0.23372400020062922
1761506015643487500,7.099487548828125,0.4029688062280416,0.6971165877312422,-0.11669438844844698
1761506015663643600,7.1196435546875,0.33854046545922756,0.6334001946240663,0.039158144303411246
1761506015683799600,7.139799560546875,0.3127443454235792,0.5753630161970853,0.08422858139052987
1761506015703954400,7.159954345703125,0.24263445188701152,0.5071770764604211,0.17821356377229094
1761506015724110600,7.180110595703125,0.19644553216397762,0.5820517001807689,0.2266131452821195
1761506015744266500,7.2002666015625,0.12994564581811427,0.5687725318908691,0.24289675608500838
1761506015764422400,7.22042236328125,0.12206161457002163,0.5800470823600888,0.271779882350564
1761506015784578600,7.24057861328125,0.02705167305469513,0.6125225340291858,0.3863772985197603
1761506015804734500,7.260734375,0.06985153486132621,0.6173351950079202,0.46737917294874787
1761506015824889300,7.280889404296875,0.0219943896651268,0.6006134850487113,0.3398943642862141
1761506015845045500,7.30104541015625,0.12463058827519416,0.5472556966096163,0.3488765660345554
1761506015865201400,7.321201416015625,0.16964403447806833,0.5023369429528713,0.4636139751963317
1761506015885357600,7.341357666015625,0.12030103463828563,0.4283329645872116,0.7467699686944484
1761506015905512400,7.361512451171875,0.04406652074158191,0.19432517900913954,0.8304225037626921
1761506015925668400,7.38166845703125,-0.18253098857998848,0.04686579607129097,1.0291006172843278
1761506015945824500,7.401824462890625,-0.3673883742809295,0.004767068271338939,0.9433739062905311
1761506015965980400,7.42198046875,-0.4684773434489965,0.06946779624074698,0.6709186088964343
1761506015986135600,7.442135498046875,-0.3581546819895506,0.05696954919546842,0.43973917861208317
1761506016006291700,7.462291748046875,-0.15474398698806763,0.13694295735955236,0.2951879382058978
1761506016026447600,7.482447509765625,0.041780455631017684,0.16548779158145188,0.16157397913858293
1761506016046603500,7.502603515625,0.1697767209470272,0.020564649122953412,0.13150105856657027
1761506016066759700,7.522759765625,0.16582243036329744,0.00002075052708387375,0.36054449973553415
1761506016086915600,7.54291552734375,0.1352647950142622,-0.14437427640408276,0.4177950578294694
1761506016107070500,7.563070556640625,0.11136895564198493,-0.26476825002282856,0.5317791644059121
1761506016127231000,7.58323095703125,0.10465513721704482,-0.3352992915809154,0.5252260895006359
1761506016147387000,7.603386962890625,0.0624713614821434,-0.32598113587647676,0.41660380221828813
1761506016167543000,7.62354296875,0.10514613560438156,-0.3844847627714276,0.4090490029245615
1761506016187699000,7.643698974609375,0.15855857684016228,-0.44402971541285513,0.39690877553671594
1761506016207855000,7.663855224609375,0.21503917347490786,-0.6090639180079103,0.36142654326707124
1761506016228011000,7.684010986328125,0.22269348762035368,-0.6642039136886596,0.37264205702543257
1761506016248166000,7.704165771484375,0.14778817650079726,-0.687023356001079,0.4066489560455084
1761506016268322000,7.724322021484375,0.10773089140057564,-0.7245981766358017,0.4998490716598928
1761506016288478000,7.74447802734375,0.10840133800804615,-0.6422174150690436,0.5179004227876662
1761506016308635000,7.764634765625,0.029213235002756115,-0.5250257446229457,0.4406519095428288
1761506016328790800,7.784790771484375,-0.11260405039489269,-0.39937896504253145,0.4055319347143173
1761506016348946000,7.80494580078125,-0.1660591617286205,-0.31695641016066073,0.35830694994181395
1761506016369102000,7.82510205078125,-0.2079740573942661,-0.3839472948938608,0.4542504459802061
1761506016389258000,7.845258056640625,-0.36553719345629215,-0.6046168754711747,0.524636964501068
1761506016409414000,7.865413818359375,-0.5462590867877006,-0.47471185392439363,0.5037370190091431
1761506016429570000,7.885570068359375,-0.5742658686101436,-0.38093350003063675,0.3077168726503849
1761506016449726000,7.905725830078125,-0.31203298228383064,-0.13706541469544173,0.1694856290459633
1761506016469881900,7.9258818359375,-0.03345978653132915,0.08245148871541023,0.19704335192665456
1761506016490037000,7.946037109375,0.07378887431025505,0.286550750502944,0.3024850364115089
1761506016510193000,7.96619287109375,0.16520459072589874,0.34526889693140983,0.4749212588913738
1761506016530348800,7.986348876953125,0.10443126533329486,0.34990269421190023,0.5557993608102202
1761506016550505000,8.0065048828125,0.008896423161029815,0.353868090711534,0.7079120494466274
1761506016570660900,8.026660888671875,-0.07674713959395885,0.33068127639144657,0.7298362964849918
1761506016590817000,8.046817138671875,-0.2005383544355631,0.3613987784773111,0.7213447277978062
1761506016610972000,8.066971923828126,-0.26166063939630985,0.4054278898179531,0.6230307763010263
1761506016631127800,8.0871279296875,-0.41026188584566115,0.45372547225803134,0.5490745825998484
1761506016651284000,8.107283935546874,-0.5256453378260135,0.5659989755243062,0.4878183690611273
1761506016671440000,8.12743994140625,-0.5614987414956093,0.6570572568044066,0.4021970912031829
1761506016691595800,8.147595703125,-0.42658173700571056,0.8020283300578593,0.21144436385333537
1761506016711752000,8.167751953125,-0.2138040787220001,0.9517392913147806,0.092878701640293
1761506016731907800,8.187907958984376,-0.06941022083461285,1.0825234337836502,0.19008768756985664
1761506016752062700,8.208062744140625,0.11925415593385695,1.0287629097625612,0.25121844809800387
1761506016772219000,8.228218994140626,0.2177688906997442,0.9405728773951529,0.2790380367852747
1761506016792374800,8.248374755859375,0.2499292850703001,0.8703867037519812,0.20903832562491295
1761506016812531000,8.268531005859375,0.2545879245311022,0.7932458886653184,0.15713738493062554
1761506016832686800,8.288686767578126,0.23704350001215935,0.7402265384003519,0.23481259915493427
1761506016852842800,8.3088427734375,0.17639292421638963,0.6065314769208431,0.34102636399082836
1761506016872999000,8.3289990234375,0.058503626894950866,0.46351299903988835,0.4122388119418174
1761506016893153800,8.34915380859375,-0.12897884661257267,0.3682601886793971,0.49646403233148156
1761506016913309700,8.369309814453125,-0.3453782025247812,0.35143121895343066,0.41481947608478364
1761506016933465900,8.3894658203125,-0.5159960504710674,0.4252560413599014,0.32539785609580574
1761506016953621800,8.409621826171875,-0.5309948821604251,0.5678361278235912,0.19915084559991955
1761506016973777700,8.429777587890625,-0.6047644672483206,0.7164186695724726,0.05554221980609
1761506016993933800,8.449933837890624,-0.5741758522391319,0.7746484479621052,-0.09291085034422576
1761506017014089700,8.47008984375,-0.49423313147425646,0.7650351087033748,-0.14737579630762337
1761506017034244900,8.490244873046874,-0.35060908891558645,0.7225795302897692,-0.16371895527802408
1761506017054401000,8.510401123046876,-0.25022329958081246,0.6416857924103736,-0.08106777927204967
1761506017074557000,8.530556884765625,-0.19795242959558962,0.42159138137251134,0.057963309473171826
1761506017094713000,8.550713134765624,-0.19124737899899483,0.26214023960679766,0.1399601132236421
1761506017114865400,8.570865478515625,-0.13002046461999417,0.2232154656678438,0.12858334448896347
1761506017135021300,8.591021240234374,-0.1646311747521162,0.21554887656271457,0.14419614335820077
1761506017155176200,8.61117626953125,-0.1357522862702608,0.27540274902284145,0.12034918462894856
1761506017175332400,8.631332275390625,-0.11435118632316589,0.3550087851792574,0.08920987693443894
1761506017195488300,8.65148828125,-0.18370061688125133,0.34230420190691946,0.1163327155292034
1761506017215644400,8.67164453125,-0.26782442272305484,0.3877542859613895,0.17994279871769248
1761506017235800300,8.69180029296875,-0.3222118464708328,0.4064791524365544,0.20329905132055281
1761506017255956200,8.711956298828126,-0.38224282906353474,0.4394873958081007,0.1723885839458555
1761506017276112400,8.7321123046875,-0.3562625846326351,0.5602028564661741,0.16389555395394562
1761506017296267300,8.752267333984374,-0.31832009972929953,0.6402741720467805,0.10795761282853782
1761506017316423200,8.772423095703125,-0.3159194683283567,0.6825672533750534,0.03469159334860742
1761506017336579300,8.792579345703125,-0.29980186174213885,0.6784133485659957,0.010102072623744606
1761506017356735200,8.8127353515625,-0.3679354867696762,0.6191679633930325,0.05802402668446302
1761506017376891400,8.832891357421875,-0.41291093904972076,0.5530269734874368,0.11708221872225404
1761506017397047300,8.85304736328125,-0.45503918520510195,0.55800973033607,0.13988251794278622
1761506017417203200,8.873203125,-0.45556876203715796,0.6712097007974982,0.1373772571235895
1761506017437358300,8.8933583984375,-0.33731589210033414,0.9503960600122808,-0.0001372165136039257
1761506017457514200,8.91351416015625,-0.2592021403282881,1.2906535585224628,-0.20530366914123296
1761506017477670100,8.933670166015625,-0.2495487613201141,1.51936411447525,-0.3977482951007783
1761506017497826300,8.953826416015625,-0.08839315372407436,1.6114833029851316,-0.5613469119347632
1761506017517982200,8.973982177734374,0.09812602770924568,1.5967834542423487,-0.7077402730762958
1761506017538138000,8.99413818359375,0.2621411163896322,1.3733420708641408,-0.560576073692739
1761506017558294300,9.014294189453125,0.38183950895965096,1.139744327391684,-0.3264062294207513
1761506017578449200,9.03444921875,0.30557986062169074,0.8096613091543317,-0.09471212761253119
1761506017598605000,9.05460498046875,0.27150749514997,0.56901335490942,0.04968260705769062
1761506017618761200,9.07476123046875,0.2472229487210512,0.3785770000323653,0.13309358845502137
1761506017638917000,9.094917236328126,0.09496259524226187,0.18032412618547677,0.15676146429032087
1761506017659073300,9.1150732421875,-0.009818214181065559,0.2487149408444762,0.19334449740871787
1761506017679229200,9.135229248046874,-0.19973054518401623,0.25747721623182296,0.11730769804120063
1761506017699385000,9.155385009765626,-0.21643384270370006,0.20473054542839525,0.06854352100268006
1761506017719541200,9.175541259765625,-0.25782909840941426,0.10874503687918186,0.031765549834072586
1761506017739696400,9.1956962890625,-0.28608605560064315,0.060201955245435236,0.06929507002234458
1761506017759852300,9.215852294921875,-0.29629531492590905,0.019981588537991046,0.08457315704450011
1761506017780008200,9.23600830078125,-0.33016602034568787,0.021545769114792345,0.007896160077303647
1761506017800164000,9.2561640625,-0.29861119065284725,-0.05650397751033306,-0.028956483762711285
1761506017820320300,9.2763203125,-0.2834574606627226,-0.10454378579705953,0.03180266697406769
1761506017840476200,9.29647607421875,-0.23836393496096134,-0.21188713918477295,0.0701734602920711
1761506017860632000,9.316632080078126,-0.28777649290561674,-0.2989665799617767,0.11436594550088047
1761506017880787500,9.336787353515625,-0.2744242593795061,-0.3288102218225598,0.07994520498290658
1761506017900943400,9.356943359375,-0.33902386506199833,-0.38051264427006243,0.1313217564769089
1761506017921099300,9.377099365234375,-0.3928209217011928,-0.3822717628970742,0.14490195353999732
1761506017941255400,9.39725537109375,-0.46565293367803096,-0.3022033699259162,-0.00789630620777607
1761506017961411300,9.417411376953124,-0.5191203199714421,-0.1387158122509718,-0.021058423989266155
1761506017981567200,9.437567138671875,-0.39248891326785085,-0.13132657878249882,-0.23050883754640816
1761506018001723400,9.457723388671875,-0.23744272846281528,-0.16556290264427662,-0.3412386185020208
1761506018021878300,9.477878173828126,-0.12288111425936221,-0.22638006717860698,-0.43035774841308594
1761506018042034200,9.4980341796875,-0.11036766964495182,-0.2328232519686222,-0.38170696862116454
1761506018062190300,9.5181904296875,-0.024700726014375684,-0.30988340303450823,-0.31591756863221526
1761506018082346200,9.53834619140625,0.021114099699258804,-0.37497020771205425,-0.2625844762429595
1761506018102502400,9.55850244140625,0.09685878425240516,-0.453265453530848,-0.24347587114721536
1761506018122657800,9.57865771484375,0.06933247942328452,-0.5449094257444143,-0.1680924211218953
1761506018142813700,9.598813720703125,0.11078677183985709,-0.5671101516366005,-0.12989756889268755
1761506018162969900,9.618969970703125,0.1541255628287792,-0.5758218658804893,-0.09575389175042509
1761506018183124700,9.639124755859376,0.19365560918450356,-0.6208145615562797,-0.08289031852409243
1761506018203280600,9.65928076171875,0.190088856613636,-0.6381520653262734,0.006834083803743124
1761506018223436800,9.679436767578125,0.16936404849290848,-0.615916268120706,0.03232771376147866
1761506018243592700,9.6995927734375,0.2187888813972473,-0.550827709877491,0.050328942137211556
1761506018263748600,9.71974853515625,0.17336159369647502,-0.5118459450542926,0.004976911629736423
1761506018283904800,9.73990478515625,0.0963864905655384,-0.5132566886350513,-0.0035071313381195065
1761506018304060700,9.760060791015626,0.12137597039341926,-0.47768356321156025,-0.02562339381724596
1761506018324215600,9.780215576171875,0.08421206864714623,-0.48201165554374453,-0.030110476103425023
1761506018344371700,9.800371826171874,0.10675064819157123,-0.42829847779572006,-0.017445348058640956
1761506018364527600,9.820527587890625,0.059442369049787516,-0.45129999867677684,-0.00870879163444042
1761506018384683800,9.840683837890625,0.04886836806535721,-0.43475686015486714,-0.03337780733630061
1761506018404839700,9.860839599609376,-0.008823357924818993,-0.3936547421768307,-0.0645573739759624
1761506018424995600,9.88099560546875,0.025535423272848128,-0.35991906131356954,-0.06573357814848423
1761506018445151700,9.90115185546875,0.029562779092788694,-0.39974078409224745,-0.09852817876935005
1761506018465307600,9.9213076171875,-0.06934826151430606,-0.41514848884344097,0.012889438319951296
1761506018485462800,9.941462890625,-0.09262100055217742,-0.4573188205748796,0.0662586980011314
1761506018505618700,9.96161865234375,-0.13023732224106788,-0.4941717566758394,0.07024784070253372
1761506018525774600,9.981774658203125,-0.09732523272037505,-0.43418022931069133,0.06155563487671315
1761506018545930800,10.0019306640625,-0.07575052977204322,-0.3270718537226319,0.13717442802786825
1761506018566086700,10.022086669921874,0.008685995280742645,-0.37304713069498535,0.12484540006965399
1761506018586242600,10.04224267578125,0.061599254822731014,-0.39706805775165555,0.16297500504292547
1761506018606398700,10.062398681640625,0.11884674417674541,-0.32127515014261004,0.24144787245094776
1761506018626553900,10.082553955078126,0.077925535723567,-0.33702743054777384,0.3258257261190563
1761506018646709800,10.102709716796875,0.09202011204957962,-0.36127076818346976,0.40456155531220134
1761506018666866000,10.122865966796875,0.05671908156573772,-0.3888584478110075,0.5008636555299163
1761506018687021800,10.143021728515626,0.08688099559545516,-0.38537469734847546,0.5489969142537564
1761506018707178000,10.163177978515625,0.0890495718061924,-0.3846653800353408,0.6409484911117702
1761506018727334000,10.183333984375,0.07831073564887046,-0.4032949694424867,0.713073012406379
1761506018747489800,10.20348974609375,0.044051323172450065,-0.36425942860543725,0.6856205034658313
1761506018767646000,10.22364599609375,-0.054476855596899985,-0.3103004594027996,0.674616805827245
1761506018787800800,10.24380078125,-0.03274491626024246,-0.24342647904753684,0.6571869475986808
1761506018807956700,10.263956787109375,-0.03180792767107486,-0.15218787276446819,0.6024369010835886
1761506018828113000,10.28411279296875,-0.01813303806185722,-0.08259469657838345,0.5832333111807704
1761506018848268800,10.304268798828126,-0.10301029261946677,-0.04653407989889383,0.5967467996831983
1761506018868424700,10.3244248046875,-0.057901569348573684,0.04874620299041271,0.5099005831401795
1761506018888580900,10.344580810546875,-0.1684609621733427,0.08794540995657443,0.531762797793001
1761506018908736800,10.36473681640625,-0.13622165734767913,0.08864128326624632,0.4569621891569346
1761506018928893000,10.384892822265625,-0.13828618866205214,0.10780687924623489,0.4040421345479786
1761506018949047800,10.4050478515625,-0.05087503171265125,0.18673574679344893,0.41040962375327944
1761506018969203700,10.42520361328125,-0.054067105752229686,0.1947968881741166,0.4054689524807036
1761506018989359900,10.44535986328125,-0.06131108553111553,0.1553784854993224,0.27285584101900456
1761506019009515800,10.465515869140624,0.0791068544626236,0.22473609936386346,0.32129202821217473
1761506019029671700,10.485671630859375,0.028590719190239904,0.33314649746119973,0.32059527811966837
1761506019049827800,10.505827880859375,0.0846615659803152,0.4282394410848617,0.1507432269141078
1761506019069983700,10.525983642578124,0.08262567623853682,0.4732309677168727,0.06157375505529344
1761506019090140000,10.546139892578125,0.1702776562064886,0.4571911025419831,-0.06420658777691424
1761506019110294800,10.566294677734374,0.18195523451864717,0.4710924943834543,-0.08564173612408339
1761506019130451000,10.586450927734376,0.344423678278923,0.4862637600302696,-0.24076281279623507
1761506019150606800,10.60660693359375,0.19606968458890914,0.5906754438802599,-0.2825798010453582
1761506019170762800,10.6267626953125,0.26259295181035996,0.4681298451855778,-0.43711686728447674
1761506019190919000,10.6469189453125,0.23852877013385296,0.4004705596715212,-0.3895536635335535
1761506019211074800,10.66707470703125,0.22426000628471374,0.24756197141706943,-0.31319859199710187
1761506019231231000,10.68723095703125,0.13184943361282347,0.059738137125968926,-0.20779797017499804
1761506019251387000,10.707386962890626,0.030534838995337484,-0.014501695822179316,-0.21428762445524333
1761506019271542800,10.727542724609375,0.06339724415540694,0.09545563945621252,-0.27478067160174247
1761506019291698000,10.747697998046876,-0.21407763496637344,0.2640036953911185,-0.23933614099398254
1761506019311853800,10.767853759765625,0.847016641819477,0.3566939617872238,-0.26387057053074237
1761506019332009700,10.788009765625,-0.6042255380660295,0.4295373719409108,-0.1461385095976293
1761506019352166000,10.808165771484376,-0.20124504140019417,0.18881869054734707,-0.39970520132221277
1761506019372321800,10.82832177734375,-0.5054086054831743,-0.1753185729831457,-0.39558359134756027
1761506019392478000,10.84847802734375,0.11012509306073189,-0.15626608198881148,-0.5168181074436754
