time,seconds_elapsed,z,y,x
1761506008629265700,0.085265625,-0.010041698813438416,-0.15382853150367737,0.07118547707796097
1761506008649421600,0.105421630859375,-0.005318867042660713,-0.17843201756477356,0.07182249426841736
1761506008669577700,0.12557763671875,-0.013629196211695671,-0.14133082330226898,0.024669423699378967
1761506008689733600,0.145733642578125,-0.025384174659848213,-0.1316426396369934,-0.08468721807003021
1761506008709888800,0.165888671875,-0.059286873787641525,-0.06555112451314926,-0.13357657194137573
1761506008730045000,0.186044921875,-0.062086403369903564,0.0922994464635849,-0.043337248265743256
1761506008750200800,0.206200927734375,-0.0636066347360611,0.17082834243774414,0.05830805003643036
1761506008770356700,0.226356689453125,-0.02017812430858612,0.17411169409751892,0.05518796667456627
1761506008790513000,0.246512939453125,0.036245301365852356,0.18822813034057617,-0.02482128143310547
1761506008810667800,0.266667724609375,0.07572425901889801,0.14626646041870117,-0.1405116766691208
1761506008830823700,0.28682373046875,0.06409349292516708,0.10272835195064545,-0.19628699123859406
1761506008850979800,0.306979736328125,0.06933560967445374,0.09331732988357544,-0.22097347676753998
1761506008871135700,0.3271357421875,0.10328458249568939,0.06029491126537323,-0.2991984486579895
1761506008891290600,0.34729052734375,0.12654010951519012,0.025246575474739075,-0.37940725684165955
1761506008911446800,0.36744677734375,0.11916191875934601,-0.03908839076757431,-0.4354230463504791
1761506008931602700,0.387602783203125,0.08497323840856552,-0.09143207222223282,-0.4276331067085266
1761506008951758800,0.4077587890625,0.05084790661931038,-0.09555016458034515,-0.3774541914463043
1761506008971914800,0.427914794921875,0.05110989138484001,-0.029893403872847557,-0.33241382241249084
1761506008992069600,0.448069580078125,0.05791359394788742,0.0165695883333683,-0.30017560720443726
1761506009012225800,0.468225830078125,0.056132446974515915,0.0286727137863636,-0.24944214522838593
1761506009032381700,0.488381591796875,0.051068924367427826,0.04109736159443855,-0.1730600893497467
1761506009052537600,0.50853759765625,0.028596021234989166,0.03451531007885933,-0.11120958626270294
1761506009072693000,0.52869287109375,0.01401323452591896,-0.018507737666368484,-0.05589424446225166
1761506009092849000,0.548848876953125,-0.007475228980183601,-0.07297057658433914,0.004644517321139574
1761506009113005000,0.569005126953125,-0.016540439799427986,-0.07092361152172089,0.0370204895734787
1761506009133161000,0.589160888671875,-0.013681381940841675,-0.02304408699274063,0.02050638198852539
1761506009153316900,0.60931689453125,0.006803854368627071,0.0655955895781517,-0.010723773390054703
1761506009173472300,0.62947216796875,0.07138032466173172,0.15437351167201996,-0.06813579052686691
1761506009193628200,0.649628173828125,0.15808524191379547,0.24247607588768005,-0.09884032607078552
1761506009213784000,0.6697841796875,0.22172315418720245,0.3481258451938629,-0.09545829892158508
1761506009233940200,0.689940185546875,0.24082380533218384,0.38606494665145874,-0.10780345648527145
1761506009254095000,0.71009521484375,0.23095841705799103,0.3203775882720947,-0.10382600873708725
1761506009274251000,0.7302509765625,0.196821928024292,0.2059396654367447,-0.08182224631309509
1761506009294407200,0.7504072265625,0.19010086357593536,0.19198064506053925,-0.006375481374561787
1761506009314563000,0.77056298828125,0.17414560914039612,0.19728988409042358,0.0526505745947361
1761506009334719000,0.790718994140625,0.15142077207565308,0.1610981971025467,0.11163338273763657
1761506009354874000,0.8108740234375,0.10112025588750839,0.09277355670928955,0.15650171041488647
1761506009375030000,0.831030029296875,0.08264128118753433,0.03932037204504013,0.15184934437274933
1761506009395186000,0.85118603515625,0.117507703602314,-0.005521262064576149,0.19165167212486267
1761506009415342000,0.871342041015625,0.12723027169704437,-0.10205614566802979,0.2186427116394043
1761506009435497000,0.8914970703125,0.10742641985416412,-0.1250115931034088,0.24900083243846893
1761506009455652900,0.91165283203125,0.11560644954442978,-0.04868052154779434,0.3036354184150696
1761506009475809000,0.93180908203125,0.1637098789215088,0.02516465075314045,0.34071817994117737
1761506009495965000,0.95196484375,0.1894439160823822,0.06766526401042938,0.3264232873916626
1761506009516121000,0.97212109375,0.18018613755702972,0.06684606522321701,0.2631009519100189
1761506009536276200,0.992276123046875,0.1639469414949417,0.044472746551036835,0.23781128227710724
1761506009556432100,1.01243212890625,0.13844339549541473,0.019908566027879715,0.25106337666511536
1761506009576588000,1.032588134765625,0.07737375050783157,-0.024316299706697464,0.22379033267498016
1761506009596744000,1.052743896484375,0.090031199157238,0.034722182899713516,0.2587756812572479
1761506009616899000,1.072899169921875,0.06078954413533211,0.045901380479335785,0.2679482698440552
1761506009637055200,1.09305517578125,0.04530571773648262,0.07315101474523544,0.2501267194747925
1761506009657211100,1.113211181640625,0.052833374589681625,0.09741603583097458,0.19356994330883026
1761506009677367000,1.133366943359375,0.0845608040690422,0.1396024525165558,0.16014021635055542
1761506009697523200,1.153523193359375,0.13201069831848145,0.17483723163604736,0.20326834917068481
1761506009717678000,1.173677978515625,0.16027116775512695,0.19765107333660126,0.23677974939346313
1761506009737834000,1.193833984375,0.20740348100662231,0.25429797172546387,0.28563618659973145
1761506009757990100,1.213990234375,0.20696742832660675,0.2603396475315094,0.29037413001060486
1761506009778146000,1.23414599609375,0.199792742729187,0.219004288315773,0.28473636507987976
1761506009798302000,1.254302001953125,0.19928312301635742,0.19032858312129974,0.2989708185195923
1761506009818457000,1.27445703125,0.19111964106559753,0.14836888015270233,0.28408893942832947
1761506009838613000,1.294613037109375,0.16643810272216797,0.12911343574523926,0.24383193254470825
1761506009858769000,1.314768798828125,0.12097543478012085,0.11242328584194183,0.20569054782390594
1761506009878925000,1.334925048828125,0.06797675043344498,0.06725558638572693,0.17540383338928223
1761506009899080000,1.355079833984375,0.03570261597633362,0.0451531708240509,0.20305907726287842
1761506009919235800,1.37523583984375,0.03243754059076309,0.03411319851875305,0.23286941647529602
1761506009939392000,1.39539208984375,0.024507535621523857,0.038343604654073715,0.23236696422100067
1761506009959548000,1.4155478515625,0.00319728534668684,0.029814381152391434,0.1863582879304886
1761506009979704000,1.4357041015625,-0.011350836604833603,0.03534335643053055,0.13516399264335632
1761506009999859200,1.455859130859375,-0.04988245666027069,0.04894676432013512,0.08448037505149841
1761506010020015000,1.47601513671875,-0.07586035132408142,0.08109346777200699,0.053362052887678146
1761506010040171300,1.496171142578125,-0.08569186925888062,0.07350080460309982,0.017548734322190285
1761506010060327200,1.5163271484375,-0.09056923538446426,0.0732942745089531,-0.01637786068022251
1761506010080482000,1.53648193359375,-0.05860729143023491,0.07662858068943024,-0.02608134038746357
1761506010100638200,1.55663818359375,-0.027819953858852386,0.0602390393614769,-0.022238003090023994
1761506010120795100,1.576795166015625,-0.012832151725888252,0.03077453002333641,-0.022851794958114624
1761506010140951000,1.596950927734375,0.014086684212088585,0.004608628340065479,0.0024973724503070116
1761506010161107000,1.61710693359375,0.04699762910604477,-0.012722770683467388,0.03014351800084114
1761506010181262000,1.637261962890625,0.057655978947877884,-0.04540035501122475,0.04696015641093254
1761506010201418000,1.65741796875,0.057054415345191956,-0.061587098985910416,0.040793921798467636
1761506010221574000,1.677573974609375,0.06205669790506363,-0.04275891184806824,0.022229889407753944
1761506010241730000,1.69772998046875,0.0560222752392292,-0.03968917578458786,-0.014512380585074425
1761506010261885000,1.717885009765625,0.043696079403162,-0.060230813920497894,-0.055706705898046494
1761506010282040800,1.738040771484375,0.02818615362048149,-0.050946786999702454,-0.09131550788879395
1761506010302197000,1.758197021484375,0.009352752938866615,-0.03903178125619888,-0.13203850388526917
1761506010322353000,1.778352783203125,-0.01153964176774025,-0.07683295011520386,-0.18012842535972595
1761506010342509000,1.798509033203125,-0.04540294036269188,-0.09837324172258377,-0.19722925126552582
1761506010362664000,1.818663818359375,-0.08550440520048141,-0.0873563215136528,-0.19732125103473663
1761506010382819800,1.83881982421875,-0.1391611248254776,-0.09064361453056335,-0.2138489931821823
1761506010402976000,1.85897607421875,-0.2069450169801712,-0.10411611944437027,-0.24651110172271729
1761506010423132000,1.8791318359375,-0.2365611046552658,-0.10645336657762527,-0.26247984170913696
1761506010443287800,1.899287841796875,-0.22441603243350983,-0.0729118064045906,-0.2893194258213043
1761506010463443000,1.91944287109375,-0.17567378282546997,-0.05797417461872101,-0.24463129043579102
1761506010483598800,1.939598876953125,-0.1456252485513687,-0.11986573040485382,-0.16855135560035706
1761506010503754800,1.959754638671875,-0.11776984483003616,-0.16910047829151154,-0.0674385279417038
1761506010523911000,1.979910888671875,-0.1297214776277542,-0.22836191952228546,0.012020447291433811
1761506010544066800,2.00006689453125,-0.18150313198566437,-0.2794550657272339,0.05610140413045883
1761506010564222000,2.020221923828125,-0.23904722929000854,-0.23104310035705566,0.0899127796292305
1761506010584378000,2.040378173828125,-0.24704024195671082,-0.05912094563245773,0.061405446380376816
1761506010604534000,2.060533935546875,-0.17637145519256592,0.15372902154922485,0.007238026242703199
1761506010624690000,2.08068994140625,-0.13487769663333893,0.2864204943180084,-0.022226817905902863
1761506010644845000,2.100844970703125,-0.14794830977916718,0.32728955149650574,-0.047333043068647385
1761506010665001000,2.1210009765625,-0.17983342707157135,0.26261523365974426,-0.07328144460916519
1761506010685156900,2.141156982421875,-0.21942925453186035,0.16271325945854187,-0.11124155670404434
1761506010705313000,2.16131298828125,-0.1860613226890564,0.10971810668706894,-0.10124819725751877
1761506010725469000,2.181468994140625,-0.1655043363571167,0.06607991456985474,-0.050752490758895874
1761506010745623800,2.201623779296875,-0.2030009627342224,-0.032631322741508484,-0.04487074166536331
1761506010765780000,2.221780029296875,-0.2453116774559021,-0.1052643209695816,-0.010023836977779865
1761506010785936000,2.241935791015625,-0.22800128161907196,-0.08301249891519547,0.020220469683408737
1761506010806092000,2.262092041015625,-0.21263602375984192,-0.07874562591314316,0.009969046339392662
1761506010826248000,2.282248046875,-0.21843677759170532,-0.08902467787265778,-0.02661065384745598
1761506010846402800,2.30240283203125,-0.21234050393104553,-0.048856221139431,-0.02105446718633175
1761506010866559000,2.32255908203125,-0.18904820084571838,0.05241081491112709,0.006886112969368696
1761506010886715000,2.34271484375,-0.17395663261413574,0.10104150325059891,0.026773514226078987
1761506010906870800,2.362870849609375,-0.16387031972408295,0.09882081300020218,-0.004668988287448883
1761506010927027000,2.38302685546875,-0.17722690105438232,0.03672290965914726,-0.014993561431765556
1761506010947181800,2.403181884765625,-0.1929781287908554,0.03575179725885391,0.05047071725130081
1761506010967337700,2.423337646484375,-0.18014280498027802,0.04428469017148018,0.08095294237136841
1761506010987494000,2.443493896484375,-0.12654288113117218,0.08477596938610077,0.061700232326984406
1761506011007649800,2.46364990234375,-0.08755084872245789,0.07409534603357315,-0.0011379553470760584
1761506011027806000,2.483805908203125,-0.06445115804672241,0.06419964134693146,-0.024946657940745354
1761506011047961000,2.503961181640625,-0.029468979686498642,0.07773105800151825,0.013223856687545776
1761506011068117000,2.524116943359375,0.02053123153746128,0.10409713536500931,0.05769001692533493
1761506011088273000,2.54427294921875,0.07229730486869812,0.11588209122419357,0.04839566349983215
1761506011108432100,2.56443212890625,0.10855837166309357,0.11678571254014969,0.01782390847802162
1761506011128587000,2.5845869140625,0.12250915169715881,0.06422683596611023,-0.01020738109946251
1761506011148743000,2.604742919921875,0.11119146645069122,0.000862637534737587,0.011606252752244473
1761506011168899000,2.624899169921875,0.12830930948257446,0.0028981026262044907,0.06876152008771896
1761506011189055000,2.645054931640625,0.18865419924259186,0.0478694811463356,0.12862838804721832
1761506011209211100,2.665211181640625,0.2423587143421173,0.09637080878019333,0.15107378363609314
1761506011229367000,2.685366943359375,0.2689240872859955,0.03457506000995636,0.0754249095916748
1761506011249522000,2.70552197265625,0.2330556958913803,-0.059160638600587845,-0.038211528211832047
1761506011269678000,2.725677978515625,0.12264681607484818,-0.18020348250865936,-0.1447303295135498
1761506011289834000,2.745833984375,-0.01766294613480568,-0.2381867617368698,-0.23105275630950928
1761506011309990000,2.765989990234375,-0.10795074701309204,-0.18526828289031982,-0.28419533371925354
1761506011330145000,2.78614501953125,-0.09341190755367279,-0.06462395191192627,-0.2820713222026825
1761506011350301000,2.806301025390625,-0.012507878243923187,0.02926035225391388,-0.24043776094913483
1761506011370456800,2.826456787109375,0.058114826679229736,0.05480575188994408,-0.17458076775074005
1761506011390613000,2.846613037109375,0.10190752148628235,0.06753674894571304,-0.09349476546049118
1761506011410769000,2.866768798828125,0.11496645957231522,0.06842160224914551,-0.0218028761446476
1761506011430924000,2.886924072265625,0.1251647174358368,0.0702364444732666,0.04898310452699661
1761506011451080200,2.907080078125,0.14170131087303162,0.055523671209812164,0.08612989634275436
1761506011471236000,2.927236083984375,0.15713796019554138,0.06246964633464813,0.09028458595275879
1761506011491392000,2.94739208984375,0.13465385138988495,0.053124766796827316,0.06272183358669281
1761506011511548200,2.967548095703125,0.11015874147415161,0.024828564375638962,0.04574829339981079
1761506011531703000,2.987703125,0.046500567346811295,-0.028682079166173935,-0.015256306156516075
1761506011551859000,3.00785888671875,-0.0326751172542572,-0.054184261709451675,-0.11736659705638885
1761506011572015000,3.02801513671875,-0.059529755264520645,0.0050489166751503944,-0.18101786077022552
1761506011592171000,3.0481708984375,-0.040541619062423706,0.08780612051486969,-0.22383156418800354
1761506011612327200,3.0683271484375,0.022518709301948547,0.14974334836006165,-0.20669427514076233
1761506011632483000,3.088483154296875,0.09241603314876556,0.14347068965435028,-0.14582054316997528
1761506011652638000,3.108637939453125,0.15757600963115692,0.07420290261507034,-0.09633992612361908
1761506011672794000,3.128794189453125,0.17736589908599854,-0.00919822882860899,-0.09000272303819656
1761506011692950000,3.148949951171875,0.18509899079799652,-0.05873101204633713,-0.11980020254850388
1761506011713106000,3.16910595703125,0.21347951889038086,-0.016508791595697403,-0.120623379945755
1761506011733262000,3.189261962890625,0.231353759765625,0.01702854409813881,-0.14844074845314026
1761506011753417000,3.2094169921875,0.2168271243572235,0.04321476072072983,-0.20451666414737701
1761506011773572900,3.22957275390625,0.20369797945022583,0.07077867537736893,-0.2531747817993164
1761506011793729000,3.24972900390625,0.18507415056228638,0.1029471829533577,-0.27120447158813477
1761506011813885000,3.269885009765625,0.18848192691802979,0.10393957793712616,-0.25899308919906616
1761506011834041000,3.290041015625,0.2009035050868988,0.10672232508659363,-0.22725903987884521
1761506011854196000,3.310196044921875,0.21751482784748077,0.10816474258899689,-0.20780348777770996
1761506011874351900,3.330351806640625,0.2521728277206421,0.11579248309135437,-0.1770283430814743
1761506011894508000,3.350508056640625,0.26970380544662476,0.0707232728600502,-0.1598883420228958
1761506011914664000,3.370663818359375,0.27088502049446106,-0.0002947365865111351,-0.1713624894618988
1761506011934819800,3.39081982421875,0.23272457718849182,-0.06681374460458755,-0.19271224737167358
1761506011954975200,3.410975341796875,0.16809456050395966,-0.0961633250117302,-0.1902732104063034
1761506011975131100,3.431131103515625,0.13632306456565857,-0.11549931019544601,-0.17458130419254303
1761506011995287000,3.451287109375,0.08782398700714111,-0.16278302669525146,-0.14602981507778168
1761506012015443200,3.471443115234375,0.050349581986665726,-0.1765608936548233,-0.11016716063022614
1761506012035599000,3.49159912109375,0.03242151439189911,-0.18837210536003113,-0.07929066568613052
1761506012055755000,3.511755126953125,0.003925768658518791,-0.24106457829475403,-0.049312181770801544
1761506012075910100,3.53191015625,-0.020215146243572235,-0.2999507784843445,-0.03379383683204651
1761506012096066000,3.552066162109375,-0.05278467386960983,-0.35323789715766907,-0.014558758586645126
1761506012116217300,3.57221728515625,-0.06165789067745209,-0.3651577830314636,0.043656256049871445
1761506012136373500,3.59237353515625,-0.0607457309961319,-0.38341236114501953,0.11550118029117584
1761506012156529400,3.612529296875,-0.05955645442008972,-0.41009679436683655,0.19392850995063782
1761506012176684300,3.632684326171875,-0.0494738444685936,-0.40081503987312317,0.23577436804771423
1761506012196840400,3.65284033203125,-0.055385664105415344,-0.32638031244277954,0.23898866772651672
1761506012216996400,3.672996337890625,-0.030602525919675827,-0.1777406632900238,0.22830089926719666
1761506012237152300,3.69315234375,0.05332278460264206,-0.019948676228523254,0.19142231345176697
1761506012257308400,3.713308349609375,0.13628537952899933,0.01484449952840805,0.1495441496372223
1761506012277464300,3.73346435546875,0.15582475066184998,-0.01744106411933899,0.13735038042068481
1761506012297619500,3.753619384765625,0.11454128473997116,-0.07262145727872849,0.1565890908241272
1761506012317775400,3.773775390625,0.054932307451963425,-0.13593794405460358,0.20211505889892578
1761506012337931500,3.793931640625,0.004874318838119507,-0.20806019008159637,0.2578924298286438
1761506012358087400,3.81408740234375,0.0013170805759727955,-0.2857798933982849,0.29520273208618164
1761506012378243300,3.834243408203125,0.01310213003307581,-0.2934122681617737,0.3174864947795868
1761506012398399200,3.854399169921875,0.04603556543588638,-0.22024407982826233,0.3416866064071655
1761506012418554600,3.8745546875,0.0702289417386055,-0.1021512821316719,0.3737344741821289
1761506012438710500,3.89471044921875,0.08710962533950806,0.01740034483373165,0.391964852809906
1761506012458866400,3.914866455078125,0.06989363580942154,0.08743911981582642,0.40955954790115356
1761506012479022600,3.935022705078125,0.030531641095876694,0.09945064783096313,0.42131054401397705
1761506012499178500,3.955178466796875,-0.019746284931898117,0.07569283992052078,0.426347553730011
1761506012519333400,3.97533349609375,-0.058347418904304504,0.04817293584346771,0.4195336103439331
1761506012539489500,3.995489501953125,-0.08698476105928421,0.05820691958069801,0.38353079557418823
1761506012559645400,4.0156455078125,-0.1403304636478424,0.06321430206298828,0.28496912121772766
1761506012579801300,4.03580126953125,-0.1772851049900055,0.0989665612578392,0.1487124115228653
1761506012599957500,4.05595751953125,-0.2410755753517151,0.09997040033340454,-0.024854883551597595
1761506012620113400,4.076113525390625,-0.33064258098602295,0.05582579970359802,-0.19630637764930725
1761506012640268300,4.096268310546875,-0.4032019078731537,-0.01592967100441456,-0.3190506100654602
1761506012660424400,4.116424560546875,-0.43303942680358887,-0.04669014364480972,-0.3739151358604431
1761506012680580400,4.136580322265625,-0.4259927570819855,-0.058376800268888474,-0.33756279945373535
1761506012700736500,4.156736572265625,-0.3518650531768799,-0.001416853629052639,-0.22742703557014465
1761506012720892400,4.176892333984375,-0.2139214724302292,0.10835716128349304,-0.10289192199707031
1761506012741048300,4.19704833984375,-0.12220771610736847,0.15355052053928375,-0.04267510399222374
1761506012761203500,4.217203369140625,-0.09147138893604279,0.1127728596329689,-0.02383139170706272
1761506012781359400,4.237359375,-0.09979080408811569,0.052205950021743774,-0.009676112793385983
1761506012801515300,4.257515380859375,-0.1220184788107872,-0.010724993422627449,0.00241610174998641
1761506012821671400,4.27767138671875,-0.13097894191741943,-0.054326362907886505,-0.006957429461181164
1761506012841827300,4.297827392578125,-0.14204072952270508,-0.083605095744133,-0.04049123078584671
1761506012861982500,4.317982421875,-0.1423955112695694,-0.06438760459423065,-0.09883608669042587
1761506012882138400,4.338138427734375,-0.1372973769903183,-0.035283107310533524,-0.19049298763275146
1761506012902294300,4.358294189453125,-0.11882607638835907,-0.02003772370517254,-0.259682297706604
1761506012922450400,4.378450439453125,-0.08712395280599594,0.01041221059858799,-0.2534905970096588
1761506012942606300,4.3986064453125,-0.045547615736722946,0.06195014715194702,-0.1813235878944397
1761506012962762200,4.41876220703125,0.012890379875898361,0.12632617354393005,-0.09282409399747849
1761506012982917600,4.438917724609375,0.06626040488481522,0.18272867798805237,-0.045976947993040085
1761506013003073500,4.459073486328125,0.10950709879398346,0.22519421577453613,-0.02422650158405304
1761506013023229400,4.4792294921875,0.13828647136688232,0.22399035096168518,0.00021085701882839203
1761506013043385600,4.499385498046875,0.15277674794197083,0.20070558786392212,0.04757439345121384
1761506013063541500,4.51954150390625,0.1677059382200241,0.1553685963153839,0.11918924003839493
1761506013083697400,4.539697509765625,0.18794885277748108,0.15007169544696808,0.2053549587726593
1761506013103853000,4.55985302734375,0.249289408326149,0.20030979812145233,0.26854297518730164
1761506013124009000,4.580009033203125,0.35149937868118286,0.26308196783065796,0.2849234938621521
1761506013144165000,4.6001650390625,0.4165821075439453,0.15358708798885345,0.260638028383255
1761506013164321000,4.620321044921875,0.3947168290615082,-0.01674589514732361,0.2204432636499405
1761506013184477000,4.640476806640625,0.3161579370498657,-0.20593594014644623,0.19989600777626038
1761506013204632000,4.660632080078125,0.18548201024532318,-0.22586770355701447,0.2275010645389557
1761506013224788000,4.6807880859375,0.09753374755382538,-0.08164402097463608,0.2749476432800293
1761506013244944000,4.70094384765625,0.12116904556751251,0.10929330438375473,0.3413333594799042
1761506013265100000,4.72110009765625,0.22088143229484558,0.17860838770866394,0.37133827805519104
1761506013285256000,4.741255859375,0.2759184241294861,0.18131810426712036,0.3591533303260803
1761506013305411800,4.761411865234375,0.25727465748786926,0.23502999544143677,0.33768555521965027
1761506013325567000,4.78156689453125,0.19804136455059052,0.33780530095100403,0.32783371210098267
1761506013345723000,4.801722900390625,0.16712194681167603,0.40368595719337463,0.3009859621524811
1761506013365878800,4.821878662109375,0.16663947701454163,0.37818509340286255,0.27514517307281494
1761506013386035000,4.842034912109375,0.17470000684261322,0.2711355686187744,0.279801607131958
1761506013406190800,4.86219091796875,0.178807333111763,0.14899782836437225,0.2976101040840149
1761506013426345700,4.882345703125,0.17195306718349457,0.07094778120517731,0.3008345663547516
1761506013446502000,4.902501953125,0.16381344199180603,0.009939291514456272,0.2966125011444092
1761506013466657800,4.92265771484375,0.15531224012374878,-0.058994684368371964,0.29091769456863403
1761506013486814000,4.94281396484375,0.1406155377626419,-0.09449538588523865,0.2522837221622467
1761506013506969900,4.962969970703125,0.14908431470394135,-0.05849042534828186,0.1678933948278427
1761506013527125800,4.983125732421875,0.14293576776981354,0.00930714886635542,0.05846107006072998
1761506013547281200,5.00328125,0.11968754231929779,0.014435714110732079,-0.030472155660390854
1761506013567437000,5.02343701171875,0.11320991814136505,-0.02519805356860161,-0.06459873169660568
1761506013587593000,5.043593017578125,0.10123597830533981,-0.06691299378871918,-0.08226010203361511
1761506013607748900,5.063748779296875,0.0529690757393837,-0.09472368657588959,-0.12908118963241577
1761506013627904800,5.08390478515625,0.00849644374102354,-0.06333799660205841,-0.20175482332706451
1761506013648061000,5.10406103515625,-0.009638351388275623,0.024227803573012352,-0.2769638001918793
1761506013668216000,5.124216064453125,0.003148525720462203,0.12301093339920044,-0.3089335262775421
1761506013688372000,5.1443720703125,0.05670452117919922,0.22745272517204285,-0.2898350656032562
1761506013708528000,5.164528076171875,0.10229577124118805,0.2905178964138031,-0.21888014674186707
1761506013728684000,5.18468408203125,0.11665068566799164,0.2883303165435791,-0.13125421106815338
1761506013748840000,5.20483984375,0.10042504966259003,0.18660981953144073,-0.07544933259487152
1761506013768995000,5.2249951171875,0.05700300633907318,0.06281065195798874,-0.06594584137201309
1761506013789151000,5.24515087890625,0.012060366570949554,-0.050017185509204865,-0.05095937103033066
1761506013809307000,5.265306884765625,-0.03093586303293705,-0.11071016639471054,-0.022742675617337227
1761506013829463000,5.285463134765625,-0.042823467403650284,-0.10983466356992722,-0.007900398224592209
1761506013849619000,5.305618896484375,-0.05058116093277931,-0.05733924359083176,-0.01718568429350853
1761506013869774800,5.32577490234375,-0.05564843490719795,0.012692218646407127,-0.04480752348899841
1761506013889930000,5.345929931640625,-0.07826312631368637,0.04601723700761795,-0.07401540875434875
1761506013910086000,5.3660859375,-0.13666792213916779,0.03454013168811798,-0.07831276953220367
1761506013930241800,5.38624169921875,-0.17722481489181519,0.01034509763121605,-0.05409865453839302
1761506013950398000,5.40639794921875,-0.20281431078910828,0.006198893301188946,-0.030601024627685547
1761506013970553900,5.426553955078125,-0.21323560178279877,0.013421707786619663,-0.016399798914790154
1761506013990710000,5.4467099609375,-0.19503997266292572,0.009375677444040775,0.004440344404429197
1761506014010865000,5.466864990234375,-0.17861579358577728,0.014928760007023811,0.026659045368433
1761506014031020800,5.487020751953125,-0.16484250128269196,-0.0031743133440613747,0.039862677454948425
1761506014051177000,5.507177001953125,-0.1695677787065506,-0.018289292231202126,0.05100852623581886
1761506014071332900,5.527332763671875,-0.18467681109905243,-0.04423661530017853,0.06864438951015472
1761506014091488800,5.54748876953125,-0.19479432702064514,-0.08800482749938965,0.08812922239303589
1761506014111644400,5.56764453125,-0.20087365806102753,-0.14188368618488312,0.10862770676612854
1761506014131799600,5.587799560546875,-0.19694016873836517,-0.17303520441055298,0.1358976811170578
1761506014151955500,5.60795556640625,-0.17385171353816986,-0.19041667878627777,0.16483762860298157
1761506014172111400,5.628111328125,-0.1579248160123825,-0.23550404608249664,0.1784324198961258
1761506014192267500,5.648267578125,-0.16409072279930115,-0.3053438067436218,0.17510730028152466
1761506014212423400,5.66842333984375,-0.19119082391262054,-0.3395010232925415,0.1828376054763794
1761506014232578300,5.688578369140625,-0.20488253235816956,-0.3399403393268585,0.20229825377464294
1761506014252734500,5.708734375,-0.1755984127521515,-0.28495991230010986,0.2416379451751709
1761506014272890400,5.728890380859375,-0.10368221253156662,-0.2998461127281189,0.28778165578842163
1761506014293046500,5.749046630859375,-0.11940355598926544,-0.3148583471775055,0.27867212891578674
1761506014313202400,5.769202392578125,-0.13780342042446136,-0.29091179370880127,0.19454146921634674
1761506014333358300,5.7893583984375,-0.1750592738389969,-0.23113444447517395,0.05453474819660187
1761506014353513500,5.809513427734375,-0.1775577813386917,-0.19717377424240112,-0.09401283413171768
1761506014373669400,5.82966943359375,-0.15937195718288422,-0.16861779987812042,-0.18135662376880646
1761506014393825300,5.8498251953125,-0.1046745553612709,-0.09812560677528381,-0.1430691033601761
1761506014413981400,5.8699814453125,-0.015541366301476955,-0.0022183768451213837,-0.008089321665465832
1761506014434137300,5.890137451171875,0.07425979524850845,0.05608663335442543,0.1389266550540924
1761506014454293500,5.91029345703125,0.15143923461437225,0.043688978999853134,0.22039669752120972
1761506014474448400,5.930448486328125,0.20290601253509521,-0.011226911097764969,0.2638665735721588
1761506014494604300,5.950604248046875,0.22716732323169708,-0.07787112891674042,0.3096123933792114
1761506014514760400,5.970760498046875,0.21774274110794067,-0.134567528963089,0.33046552538871765
1761506014534916400,5.990916259765625,0.17130137979984283,-0.15450255572795868,0.2886783182621002
1761506014555072300,6.011072265625,0.08086077123880386,-0.1693550944328308,0.17681044340133667
1761506014575228400,6.031228515625,-0.014682427980005741,-0.146244615316391,0.04743179678916931
1761506014595383300,6.05138330078125,-0.07057841867208481,-0.09005699306726456,-0.03789186477661133
1761506014615539200,6.071539306640625,-0.07256663590669632,-0.03502705320715904,-0.0939108356833458
1761506014635695400,6.0916953125,-0.06175820529460907,-0.03635480999946594,-0.12471961230039597
1761506014655851300,6.111851318359375,-0.05034426972270012,-0.052054695785045624,-0.09526941925287247
1761506014676007200,6.132007080078125,-0.00040062505286186934,-0.05952472239732742,0.017537344247102737
1761506014696163300,6.152163330078125,0.060837022960186005,-0.04974740371108055,0.1403113156557083
1761506014716318500,6.172318359375,0.08831291645765305,-0.02794703282415867,0.17816343903541565
1761506014736474400,6.192474365234375,0.09562202543020248,-0.031453706324100494,0.11408118158578873
1761506014756630500,6.212630615234375,0.06712926179170609,-0.05939047783613205,-0.013631120324134827
1761506014776786400,6.232786376953125,-0.017429549247026443,-0.12183718383312225,-0.15290696918964386
1761506014796942600,6.252942626953125,-0.10193251073360443,-0.16707444190979004,-0.2412952035665512
1761506014817098500,6.273098388671875,-0.15551719069480896,-0.16521477699279785,-0.27127817273139954
1761506014837253400,6.29325341796875,-0.15019427239894867,-0.08265013992786407,-0.2766251862049103
1761506014857409500,6.313409423828125,-0.08519897609949112,0.06021755188703537,-0.27664831280708313
1761506014877565400,6.3335654296875,0.008392981253564358,0.17638413608074188,-0.2646889090538025
1761506014897721300,6.353721435546875,0.07146859914064407,0.20674636960029602,-0.21100039780139923
1761506014917877500,6.37387744140625,0.07267756015062332,0.17161047458648682,-0.14549259841442108
1761506014938033400,6.394033447265625,0.0452008955180645,0.11586559563875198,-0.10557851195335388
1761506014958188300,6.414188232421875,0.02562643401324749,0.1034761443734169,-0.10122314095497131
1761506014978344400,6.434344482421875,0.021129373461008072,0.113338403403759,-0.14740347862243652
1761506014998500400,6.454500244140625,0.02479805238544941,0.1270514279603958,-0.2180873155593872
1761506015018656500,6.474656494140625,0.032961830496788025,0.1411702185869217,-0.28819355368614197
1761506015038812400,6.4948125,0.03477827087044716,0.12129441648721695,-0.2988271415233612
1761506015058968300,6.51496826171875,0.053491465747356415,0.09173721820116043,-0.26358821988105774
1761506015079123500,6.53512353515625,0.10292907804250717,0.08360780775547028,-0.21676479279994965
1761506015099279400,6.555279296875,0.15128043293952942,0.10457372665405273,-0.17893850803375244
1761506015119435500,6.575435546875,0.2025420367717743,0.14541777968406677,-0.15090899169445038
1761506015139591400,6.59559130859375,0.2447429895401001,0.23533636331558228,-0.11139464378356934
1761506015159747600,6.61574755859375,0.26187536120414734,0.26855799555778503,-0.07531440258026123
1761506015179903500,6.635903564453125,0.26105567812919617,0.25293195247650146,-0.027984414249658585
1761506015200058400,6.656058349609375,0.23552758991718292,0.2059226781129837,0.005025920458137989
1761506015220214500,6.676214599609375,0.21412932872772217,0.19788554310798645,0.044010311365127563
1761506015240370400,6.696370361328125,0.20512546598911285,0.2160903364419937,0.06509297341108322
1761506015260526300,6.7165263671875,0.23140570521354675,0.2632213234901428,0.07833462953567505
1761506015280682500,6.7366826171875,0.2618043124675751,0.2950540781021118,0.06487737596035004
1761506015300838400,6.75683837890625,0.26913002133369446,0.28699734807014465,0.05122988671064377
1761506015320993500,6.77699365234375,0.27908557653427124,0.25878074765205383,0.062401194125413895
1761506015341149700,6.797149658203125,0.27528253197669983,0.21570637822151184,0.10214775800704956
1761506015361305600,6.8173056640625,0.29395633935928345,0.22818784415721893,0.13984562456607819
1761506015381461500,6.83746142578125,0.38093581795692444,0.26941874623298645,0.14185264706611633
1761506015401617400,6.857617431640625,0.41578468680381775,0.13591329753398895,0.08966489136219025
1761506015421773300,6.877773193359375,0.34798598289489746,0.050725143402814865,0.07328780740499496
1761506015441928700,6.8979287109375,0.34236064553260803,0.043738074600696564,0.119151771068573
1761506015462084600,6.918084716796875,0.379246324300766,0.07884430140256882,0.19472895562648773
1761506015482240500,6.938240478515625,0.41386157274246216,0.11321467161178589,0.2262306809425354
1761506015502396700,6.958396728515625,0.38263848423957825,0.11665728688240051,0.20051872730255127
1761506015522552600,6.978552490234375,0.3097105622291565,0.0836772695183754,0.1461205631494522
1761506015542708500,6.99870849609375,0.22698070108890533,0.07174662500619888,0.11040029674768448
1761506015562863600,7.018863525390625,0.18283766508102417,0.12252585589885712,0.08572175353765488
1761506015583019500,7.03901953125,0.1784481555223465,0.21529920399188995,0.05237169191241264
1761506015603175400,7.059175537109375,0.14358626306056976,0.27638524770736694,0.006765536963939667
1761506015623331600,7.07933154296875,0.14827218651771545,0.32698217034339905,0.010814168490469456
1761506015643487500,7.099487548828125,0.17000795900821686,0.2869523763656616,0.007235012948513031
1761506015663643600,7.1196435546875,0.1682000607252121,0.19229431450366974,-0.004602364730089903
1761506015683799600,7.139799560546875,0.1520121991634369,0.1437758505344391,-0.029056653380393982
1761506015703954400,7.159954345703125,0.1310727596282959,0.09342342615127563,-0.04872710630297661
1761506015724110600,7.180110595703125,0.10894707590341568,0.055560339242219925,-0.047641754150390625
1761506015744266500,7.2002666015625,0.11472147703170776,0.05727403238415718,-0.06843876093626022
1761506015764422400,7.22042236328125,0.12110569328069687,0.0873824805021286,-0.10911635309457779
1761506015784578600,7.24057861328125,0.10885201394557953,0.08765759319067001,-0.18477535247802734
1761506015804734500,7.260734375,0.08770159631967545,0.09391477704048157,-0.2751317620277405
1761506015824889300,7.280889404296875,0.09084722399711609,0.13412560522556305,-0.3608022928237915
1761506015845045500,7.30104541015625,0.11221639811992645,0.24582861363887787,-0.41150596737861633
1761506015865201400,7.321201416015625,0.1564541608095169,0.2710128128528595,-0.41709327697753906
1761506015885357600,7.341357666015625,0.18312335014343262,0.185810849070549,-0.40592795610427856
1761506015905512400,7.361512451171875,0.22944341599941254,0.06834612041711807,-0.3942718505859375
1761506015925668400,7.38166845703125,0.22022870182991028,-0.06374925374984741,-0.3887225389480591
1761506015945824500,7.401824462890625,0.17550347745418549,-0.1275300830602646,-0.43241578340530396
1761506015965980400,7.42198046875,0.11594141274690628,-0.11017727851867676,-0.54108065366745
1761506015986135600,7.442135498046875,0.10893403738737106,-0.014642679132521152,-0.6261849999427795
1761506016006291700,7.462291748046875,0.12325314432382584,0.10294435173273087,-0.6181370615959167
1761506016026447600,7.482447509765625,0.17369313538074493,0.19291523098945618,-0.5310479998588562
1761506016046603500,7.502603515625,0.2509547472000122,0.22238989174365997,-0.4115031361579895
1761506016066759700,7.522759765625,0.2579253613948822,0.1852477341890335,-0.3180828392505646
1761506016086915600,7.54291552734375,0.2581966519355774,0.10054567456245422,-0.2565002739429474
1761506016107070500,7.563070556640625,0.2429039031267166,0.021687433123588562,-0.1945623904466629
1761506016127231000,7.58323095703125,0.2391282320022583,-0.018345076590776443,-0.15628647804260254
1761506016147387000,7.603386962890625,0.25162526965141296,-0.0497841015458107,-0.12891463935375214
1761506016167543000,7.62354296875,0.2631469964981079,-0.043226033449172974,-0.10723082721233368
1761506016187699000,7.643698974609375,0.2603290379047394,-0.016716502606868744,-0.11341260373592377
1761506016207855000,7.663855224609375,0.26688021421432495,0.03572870045900345,-0.12794862687587738
1761506016228011000,7.684010986328125,0.2420843541622162,0.06768651306629181,-0.13213692605495453
1761506016248166000,7.704165771484375,0.17875590920448303,0.06539975106716156,-0.14730903506278992
1761506016268322000,7.724322021484375,0.12142360210418701,0.01858578994870186,-0.1327919065952301
1761506016288478000,7.74447802734375,0.07964777201414108,-0.05289384722709656,-0.05766987428069115
1761506016308635000,7.764634765625,0.06849999725818634,-0.11437797546386719,0.0002101399004459381
1761506016328790800,7.784790771484375,0.07218162715435028,-0.1829158067703247,0.03955975919961929
1761506016348946000,7.80494580078125,0.10572454333305359,-0.20874571800231934,0.0984405130147934
1761506016369102000,7.82510205078125,0.16305725276470184,-0.21072696149349213,0.18625763058662415
1761506016389258000,7.845258056640625,0.23191344738006592,-0.22829276323318481,0.22531944513320923
1761506016409414000,7.865413818359375,0.22187434136867523,-0.24132706224918365,0.14729301631450653
1761506016429570000,7.885570068359375,0.2163800597190857,-0.14802540838718414,0.011100669391453266
1761506016449726000,7.905725830078125,0.23486876487731934,0.061678770929574966,-0.06436426937580109
1761506016469881900,7.9258818359375,0.3086168169975281,0.20846344530582428,-0.03233785554766655
1761506016490037000,7.946037109375,0.41614922881126404,0.14512638747692108,0.07283154875040054
1761506016510193000,7.96619287109375,0.5153064131736755,0.03682921081781387,0.20805801451206207
1761506016530348800,7.986348876953125,0.5819159150123596,-0.026899486780166626,0.28860172629356384
1761506016550505000,8.0065048828125,0.6276437640190125,-0.022667689248919487,0.30991771817207336
1761506016570660900,8.026660888671875,0.7213351130485535,0.0369199700653553,0.26243430376052856
1761506016590817000,8.046817138671875,0.8469403982162476,0.09210682660341263,0.18633370101451874
1761506016610972000,8.066971923828126,0.9348291754722595,0.09032772481441498,0.12333472073078156
1761506016631127800,8.0871279296875,0.9169248938560486,0.01638474315404892,0.09107040613889694
1761506016651284000,8.107283935546874,0.7959924340248108,-0.057452816516160965,0.12190215289592743
1761506016671440000,8.12743994140625,0.6665830612182617,-0.01311038713902235,0.17078128457069397
1761506016691595800,8.147595703125,0.6473560333251953,0.19024814665317535,0.18678493797779083
1761506016711752000,8.167751953125,0.7358479499816895,0.40639054775238037,0.14901849627494812
1761506016731907800,8.187907958984376,0.8190557956695557,0.4745412766933441,0.09673943370580673
1761506016752062700,8.208062744140625,0.8693938255310059,0.46628496050834656,0.10450654476881027
1761506016772219000,8.228218994140626,0.8867475390434265,0.48948949575424194,0.157369464635849
1761506016792374800,8.248374755859375,0.9045506119728088,0.5473092198371887,0.1759483516216278
1761506016812531000,8.268531005859375,0.9442576169967651,0.6114410161972046,0.10991640388965607
1761506016832686800,8.288686767578126,0.9892458915710449,0.6347323060035706,0.003278365358710289
1761506016852842800,8.3088427734375,1.0505086183547974,0.6186860203742981,-0.06715269386768341
1761506016872999000,8.3289990234375,1.0966532230377197,0.6170637607574463,-0.11621047556400299
1761506016893153800,8.34915380859375,1.1327970027923584,0.6081342101097107,-0.20865055918693542
1761506016913309700,8.369309814453125,1.154725432395935,0.5673999190330505,-0.3366500437259674
1761506016933465900,8.3894658203125,1.1618571281433105,0.4953862428665161,-0.4344370365142822
1761506016953621800,8.409621826171875,1.175370216369629,0.44585075974464417,-0.42590707540512085
1761506016973777700,8.429777587890625,1.2013843059539795,0.4159161448478699,-0.3740161061286926
1761506016993933800,8.449933837890624,1.2740966081619263,0.46061772108078003,-0.2946822941303253
1761506017014089700,8.47008984375,1.3779677152633667,0.5535801649093628,-0.2023181915283203
1761506017034244900,8.490244873046874,1.4801967144012451,0.6443272829055786,-0.11174003034830093
1761506017054401000,8.510401123046876,1.5401222705841064,0.6547699570655823,-0.05324939638376236
1761506017074557000,8.530556884765625,1.561558485031128,0.6397337913513184,-0.04035612940788269
1761506017094713000,8.550713134765624,1.5696957111358643,0.6416272521018982,-0.05363840237259865
1761506017114865400,8.570865478515625,1.578922152519226,0.6768718957901001,-0.09068810194730759
1761506017135021300,8.591021240234374,1.590461254119873,0.6908910870552063,-0.15173234045505524
1761506017155176200,8.61117626953125,1.618151307106018,0.7254031896591187,-0.2098674178123474
1761506017175332400,8.631332275390625,1.6692216396331787,0.775085985660553,-0.2197486311197281
1761506017195488300,8.65148828125,1.7350397109985352,0.8051049113273621,-0.21251557767391205
1761506017215644400,8.67164453125,1.7826169729232788,0.8272095918655396,-0.21440869569778442
1761506017235800300,8.69180029296875,1.824790120124817,0.8627052903175354,-0.20324644446372986
1761506017255956200,8.711956298828126,1.8844960927963257,0.8997737765312195,-0.2076108604669571
1761506017276112400,8.7321123046875,1.926389455795288,0.9076481461524963,-0.20389997959136963
1761506017296267300,8.752267333984374,1.9661309719085693,0.925390899181366,-0.19120892882347107
1761506017316423200,8.772423095703125,2.017552375793457,0.9348461627960205,-0.18513216078281403
1761506017336579300,8.792579345703125,2.052081346511841,0.9532374739646912,-0.19179847836494446
1761506017356735200,8.8127353515625,2.069763660430908,0.9538515210151672,-0.22670826315879822
1761506017376891400,8.832891357421875,2.0608620643615723,0.9349958896636963,-0.2696611285209656
1761506017397047300,8.85304736328125,2.0060529708862305,0.9090877771377563,-0.3078785836696625
1761506017417203200,8.873203125,1.903690218925476,0.8806784749031067,-0.3312574028968811
1761506017437358300,8.8933583984375,1.7890682220458984,0.8421229720115662,-0.35043445229530334
1761506017457514200,8.91351416015625,1.7063244581222534,0.7991722822189331,-0.39632245898246765
1761506017477670100,8.933670166015625,1.6533598899841309,0.7616444230079651,-0.4944247007369995
1761506017497826300,8.953826416015625,1.603463053703308,0.7866212725639343,-0.5795646905899048
1761506017517982200,8.973982177734374,1.5910937786102295,0.8242085576057434,-0.6038678288459778
1761506017538138000,8.99413818359375,1.5844842195510864,0.8275851011276245,-0.5833624601364136
1761506017558294300,9.014294189453125,1.5441441535949707,0.7891428470611572,-0.5597423911094666
1761506017578449200,9.03444921875,1.46333646774292,0.6616228222846985,-0.5608944892883301
1761506017598605000,9.05460498046875,1.364689588546753,0.5433725714683533,-0.5605986714363098
1761506017618761200,9.07476123046875,1.2744481563568115,0.4779645800590515,-0.5514403581619263
1761506017638917000,9.094917236328126,1.227404236793518,0.42987751960754395,-0.5502918362617493
1761506017659073300,9.1150732421875,1.1772072315216064,0.3951825499534607,-0.5677265524864197
1761506017679229200,9.135229248046874,1.136256217956543,0.3216896951198578,-0.5826188921928406
1761506017699385000,9.155385009765626,1.1055824756622314,0.30045658349990845,-0.5389750003814697
1761506017719541200,9.175541259765625,1.0841346979141235,0.2990403473377228,-0.4618074595928192
1761506017739696400,9.1956962890625,1.0620582103729248,0.3123917877674103,-0.39351698756217957
1761506017759852300,9.215852294921875,1.0346070528030396,0.3489225506782532,-0.3474310636520386
1761506017780008200,9.23600830078125,1.0260887145996094,0.3898276388645172,-0.31272682547569275
1761506017800164000,9.2561640625,1.0466722249984741,0.43129029870033264,-0.3006267547607422
1761506017820320300,9.2763203125,1.0446370840072632,0.41367509961128235,-0.2944239675998688
1761506017840476200,9.29647607421875,1.0245697498321533,0.37334826588630676,-0.27237629890441895
1761506017860632000,9.316632080078126,0.9801535606384277,0.3190583884716034,-0.25007936358451843
1761506017880787500,9.336787353515625,0.9430374503135681,0.29108333587646484,-0.2251509726047516
1761506017900943400,9.356943359375,0.9172093272209167,0.25391772389411926,-0.2245783507823944
1761506017921099300,9.377099365234375,0.8914194703102112,0.2008494883775711,-0.24610555171966553
1761506017941255400,9.39725537109375,0.866533637046814,0.14201092720031738,-0.2740044891834259
1761506017961411300,9.417411376953124,0.8057112693786621,0.07235895097255707,-0.292290598154068
1761506017981567200,9.437567138671875,0.7928182482719421,0.041480645537376404,-0.25216779112815857
1761506018001723400,9.457723388671875,0.828108549118042,0.07004716247320175,-0.18062043190002441
1761506018021878300,9.477878173828126,0.9024438858032227,0.11956661194562912,-0.1231740415096283
1761506018042034200,9.4980341796875,0.934150755405426,0.13040071725845337,-0.09721803665161133
1761506018062190300,9.5181904296875,0.9125814437866211,0.10805974155664444,-0.05156249925494194
1761506018082346200,9.53834619140625,0.8667255640029907,0.06374023854732513,0.014265025965869427
1761506018102502400,9.55850244140625,0.807881772518158,0.04477830231189728,0.061716508120298386
1761506018122657800,9.57865771484375,0.7548368573188782,0.02507004328072071,0.07866853475570679
1761506018142813700,9.598813720703125,0.6915334463119507,0.027535269036889076,0.08740947395563126
1761506018162969900,9.618969970703125,0.6309220790863037,0.061996109783649445,0.09144765138626099
1761506018183124700,9.639124755859376,0.5652810335159302,0.11409822106361389,0.06729259341955185
1761506018203280600,9.65928076171875,0.4934455454349518,0.12568259239196777,0.016353031620383263
1761506018223436800,9.679436767578125,0.4282280504703522,0.10091909021139145,-0.02114923670887947
1761506018243592700,9.6995927734375,0.372814416885376,0.07778746634721756,-0.01844017766416073
1761506018263748600,9.71974853515625,0.3245459794998169,0.06053292006254196,-0.019451087340712547
1761506018283904800,9.73990478515625,0.2894606292247772,0.05705536901950836,-0.03802427276968956
1761506018304060700,9.760060791015626,0.26965782046318054,0.07272398471832275,-0.04338478296995163
1761506018324215600,9.780215576171875,0.26326698064804077,0.07319920510053635,-0.04869518429040909
1761506018344371700,9.800371826171874,0.2502615749835968,0.07638702541589737,-0.05522537976503372
1761506018364527600,9.820527587890625,0.23286382853984833,0.05360895022749901,-0.05780423805117607
1761506018384683800,9.840683837890625,0.19937989115715027,0.014066719450056553,-0.04447457566857338
1761506018404839700,9.860839599609376,0.1552262306213379,-0.02304202690720558,-0.025782180950045586
1761506018424995600,9.88099560546875,0.1199193075299263,-0.030766136944293976,-0.002734438981860876
1761506018445151700,9.90115185546875,0.11762024462223053,-0.02759169228374958,0.02744641713798046
1761506018465307600,9.9213076171875,0.09638317674398422,-0.05806891247630119,0.041565459221601486
1761506018485462800,9.941462890625,0.07687604427337646,-0.08246883004903793,0.041529230773448944
1761506018505618700,9.96161865234375,0.04435684159398079,-0.07220989465713501,0.01421278528869152
1761506018525774600,9.981774658203125,0.009748080745339394,-0.05483388528227806,-0.022849280387163162
1761506018545930800,10.0019306640625,-0.03330819308757782,-0.06901013851165771,-0.03966487571597099
1761506018566086700,10.022086669921874,-0.02361777052283287,-0.051893386989831924,-0.04598991572856903
1761506018586242600,10.04224267578125,0.007167011499404907,-0.008961972780525684,-0.04787493124604225
1761506018606398700,10.062398681640625,0.029083695262670517,0.027561921626329422,-0.0528215616941452
1761506018626553900,10.082553955078126,0.04601254686713219,0.031601905822753906,-0.04310400038957596
1761506018646709800,10.102709716796875,0.06482710689306259,0.0678841769695282,-0.043907344341278076
1761506018666866000,10.122865966796875,0.09260144084692001,0.08003836870193481,-0.0311692263931036
1761506018687021800,10.143021728515626,0.1288052350282669,0.072868712246418,0.02071341872215271
1761506018707178000,10.163177978515625,0.14301681518554688,0.034201428294181824,0.09003987908363342
1761506018727334000,10.183333984375,0.1403525173664093,-0.006713811308145523,0.1294758915901184
1761506018747489800,10.20348974609375,0.13662481307983398,-0.0145909758284688,0.12466882169246674
1761506018767646000,10.22364599609375,0.1479441225528717,0.00574244000017643,0.10145944356918335
1761506018787800800,10.24380078125,0.15833787620067596,0.012397874146699905,0.08046358823776245
1761506018807956700,10.263956787109375,0.17258284986019135,0.029770322144031525,0.06803938746452332
1761506018828113000,10.28411279296875,0.2158486545085907,0.07353030145168304,0.056974876672029495
1761506018848268800,10.304268798828126,0.2531801462173462,0.10173305124044418,0.022044410929083824
1761506018868424700,10.3244248046875,0.2862527072429657,0.09246557950973511,0.032151464372873306
1761506018888580900,10.344580810546875,0.30887162685394287,0.04899504780769348,0.060089245438575745
1761506018908736800,10.36473681640625,0.3338099718093872,0.061425164341926575,0.08450533449649811
1761506018928893000,10.384892822265625,0.34952816367149353,0.0772450715303421,0.10428806394338608
1761506018949047800,10.4050478515625,0.36622485518455505,0.06541036069393158,0.14211775362491608
1761506018969203700,10.42520361328125,0.4031949043273926,0.06544490903615952,0.15632198750972748
1761506018989359900,10.44535986328125,0.45020750164985657,0.15157562494277954,0.12652930617332458
1761506019009515800,10.465515869140624,0.47405949234962463,0.21851354837417603,0.13912808895111084
1761506019029671700,10.485671630859375,0.4924768805503845,0.16003303229808807,0.13621143996715546
1761506019049827800,10.505827880859375,0.5247962474822998,0.13309542834758759,0.13600696623325348
1761506019069983700,10.525983642578124,0.5498903393745422,0.1407802850008011,0.14825370907783508
1761506019090140000,10.546139892578125,0.5809204578399658,0.18759584426879883,0.16643433272838593
1761506019110294800,10.566294677734374,0.590198278427124,0.2233712375164032,0.18473918735980988
1761506019130451000,10.586450927734376,0.5900369882583618,0.23534102737903595,0.21114856004714966
1761506019150606800,10.60660693359375,0.5642918944358826,0.16542047262191772,0.19049832224845886
1761506019170762800,10.6267626953125,0.5856415033340454,0.20122787356376648,0.16346068680286407
1761506019190919000,10.6469189453125,0.6063304543495178,0.2509378492832184,0.1403353065252304
1761506019211074800,10.66707470703125,0.6281505227088928,0.2690829634666443,0.0729096531867981
1761506019231231000,10.68723095703125,0.6150385737419128,0.2562789022922516,-0.06111431121826172
1761506019251387000,10.707386962890626,0.5451955199241638,0.24741409718990326,-0.22734272480010986
1761506019271542800,10.727542724609375,0.45707327127456665,0.18122057616710663,-0.33990561962127686
1761506019291698000,10.747697998046876,0.3791339099407196,0.054512184113264084,-0.41510406136512756
1761506019311853800,10.767853759765625,0.28652945160865784,0.2290666401386261,-0.22750058770179749
1761506019332009700,10.788009765625,0.15933945775032043,-0.11239606142044067,-0.24550975859165192
1761506019352166000,10.808165771484376,0.14716999232769012,-0.11196152865886688,-0.4822215139865875
1761506019372321800,10.82832177734375,0.20940221846103668,0.020328983664512634,-0.7957501411437988
1761506019392478000,10.84847802734375,0.3215276002883911,0.5050731301307678,-0.9064173698425293
