time,seconds_elapsed,z,y,x
1761507218030280400,0.096280517578125,0.8460936817556619,-0.12054770287573337,-1.0671221587732433
1761507218050436400,0.116436279296875,0.7222504444658756,0.15419541319459676,-1.3237249302580951
1761507218070592300,0.13659228515625,0.5894838960081339,0.7301239543199539,-1.2188253898259251
1761507218090748400,0.15674853515625,1.281958210891485,0.7865048899725079,-0.7798138679012656
1761507218110905000,0.176905029296875,0.8199579545021056,0.506505753070116,0.17957988368943334
1761507218131061200,0.197061279296875,-0.4790478373020887,0.15021160425543784,0.7746169568452984
1761507218151217200,0.217217041015625,0.45339083347618575,0.11083850202709436,0.4474759103439748
1761507218171373000,0.237373046875,0.9716448920071125,-0.14441460841447115,0.3944611631888896
1761507218191529200,0.257529296875,1.3762871844053268,-0.8514575468763709,-0.08922215189412236
1761507218211685000,0.27768505859375,1.5847539937525987,-1.156952944085002,-0.1996169287417084
1761507218231842300,0.29784228515625,1.4090449601471424,-0.9295182532869278,0.41248686841875315
1761507218251998200,0.317998291015625,1.9424106630921363,-0.5114285964250564,0.5475426237922162
1761507218272154400,0.338154296875,2.1950416083365676,-0.3948395680472255,0.3954779390159994
1761507218292310300,0.358310302734375,0.7599380778253078,-0.5771672891400754,0.8688874781701713
1761507218312466200,0.378466064453125,-0.11068389598727225,-1.3576309992522,2.0511329036176202
1761507218332622300,0.398622314453125,1.6417501386940478,-1.6554991164527832,1.797686842598021
1761507218352779300,0.418779296875,2.223816451922059,-1.752403201151639,1.575373732597381
1761507218372935200,0.43893505859375,2.334322068732977,-1.2576352321483195,0.7773386368941515
1761507218393091300,0.45909130859375,2.5370196470290423,-0.6072850717671215,-0.1616635571181774
1761507218413247200,0.479247314453125,1.9649165094107388,-1.0557438556686043,-0.15905651642493904
1761507218433403100,0.499403076171875,0.3280360225796699,-2.5770380614235995,0.05493979693353176
1761507218453560000,0.51956005859375,-2.8546225383996964,-1.296565120653808,-0.09181121853925288
1761507218473716200,0.53971630859375,-6.479089047089219,-2.2754034312963483,-0.04515621567443013
1761507218493872000,0.5598720703125,-11.447436846619844,-1.7452923462331293,-0.16360073572583494
1761507218514028300,0.5800283203125,-15.54301572343707,-1.2915785644128919,-0.5035430308070034
1761507218534184200,0.60018408203125,-15.599231531655787,2.6973645227640866,-2.376392447221279
1761507218554340000,0.620340087890625,-16.10512938196063,0.9830527134671807,-2.252850530965626
1761507218574497300,0.640497314453125,-14.340732522284984,-0.25000381161123514,-0.604005611705035
1761507218594653200,0.660653076171875,-10.293163935399054,-0.9362482921943068,0.1016575628362596
1761507218614809300,0.680809326171875,-6.477747569352388,-0.13148206160515546,-0.3993421401634812
1761507218634965200,0.70096533203125,-2.0203397059470416,0.09950374580323695,1.7314122894406319
1761507218655121400,0.721121337890625,1.2552940758496522,1.3413213772252202,1.8701529438719153
1761507218675277300,0.74127734375,3.929707346615195,1.8297955067813396,1.7482945967890322
1761507218695434200,0.761434326171875,6.860666105720401,2.078789264567196,0.5531687200456857
1761507218715590100,0.781590087890625,9.146400961416958,1.9617659364253281,0.2775364000506699
1761507218735746000,0.80174609375,10.774922200703621,1.6427845963083207,0.20160006538294253
1761507218755902200,0.821902099609375,12.206186006921529,0.5141035147227346,-0.3078101769570261
1761507218776058000,0.84205810546875,12.31683483159542,-0.286676568839699,0.11892211096789687
1761507218796214300,0.86221435546875,12.32466625587344,-0.6470648551002145,0.10134422257076948
1761507218816371200,0.88237109375,11.745997768390177,-0.38188305584043264,-0.06855448078811169
1761507218836527400,0.90252734375,11.21873798110485,-0.31777488693669437,-0.09452544593401253
1761507218856683300,0.922683349609375,10.513675987327098,-0.4215507571011781,0.16804229836985468
1761507218876839200,0.942839111328125,9.513091416561602,-0.8160236837930976,0.47920872695222494
1761507218896995300,0.962995361328125,8.433387716373801,-1.1186674909628926,0.6825814280308783
1761507218917152300,0.98315234375,6.852413825681805,-1.4811727693773806,0.4693703467659652
1761507218937308400,1.003308349609375,4.165122368642687,-2.533822896814346,0.9778484228223562
1761507218957464300,1.02346435546875,-0.8227227430403232,-3.2620778423920274,1.9253300566926597
1761507218977624300,1.043624267578125,-9.196984901228547,-5.580036513084173,3.557630522257089
1761507218997780200,1.0637802734375,-18.83059245648384,-4.683951596713066,2.4075851656034586
1761507219017936100,1.08393603515625,-28.036587762641904,-1.6973098210915922,-0.6940555196601897
1761507219038093300,1.10409326171875,-32.37056739929914,1.168330954928696,-4.83215595279932
1761507219058249200,1.124249267578125,-30.854553764295577,1.2083625210657716,-3.908675956763327
1761507219078405400,1.1444052734375,-22.552647817265985,-0.9323770037189125,0.3714434948906302
1761507219098561300,1.164561279296875,-10.844759707039595,-2.481476331244409,3.625191900354624
1761507219118717400,1.184717529296875,-0.15015958180725575,-2.605468037094176,3.3194629866510628
1761507219138873300,1.204873291015625,6.587255407297611,-2.8598481640934943,-0.27720979844480753
1761507219159030300,1.2250302734375,12.446741314446925,-3.0470529897034164,-3.4591610879376526
1761507219179186400,1.2451865234375,15.582357553744314,-2.5648113247960804,-5.348585718512535
1761507219199342300,1.26534228515625,17.020508196866512,-1.2421904102571308,-6.038806116989255
1761507219219498500,1.28549853515625,16.966400174582002,-0.8890466882973909,-4.1386908733129495
1761507219239654400,1.305654296875,14.823444727313518,-1.1480628045342862,-2.6683710679918526
1761507219259811300,1.325811279296875,11.968272738337516,-0.42832039736658334,-1.5151561413913965
1761507219279967200,1.34596728515625,9.432495200324057,0.7443437644608318,-0.9821189397484064
1761507219300123100,1.366123046875,8.02472858954966,1.1074738967753945,-0.9533005492821335
1761507219320279300,1.386279296875,7.3006269642591475,0.7759541237331926,-0.8870406091719866
1761507219340435200,1.406435302734375,6.8728452038139105,0.7115468257524072,-1.271887483254075
1761507219360591400,1.42659130859375,6.401611839655041,0.6029189124468713,-1.5167781896352768
1761507219380748300,1.446748291015625,5.867938093674183,0.08431846989737823,-1.9230507135838268
1761507219400904400,1.466904541015625,5.07192098672986,-0.1054306881668046,-2.2280472213596103
1761507219421060400,1.487060302734375,4.021526383134723,0.16954324098471552,-2.33066968370527
1761507219441216300,1.50721630859375,2.498478027188778,0.49832785344198344,-2.1004782415449617
1761507219461372400,1.527372314453125,-0.2715045725405216,-0.02427965105809271,-0.3974620255053043
1761507219481528300,1.5475283203125,-5.4686915228396655,-0.5574282771863043,2.0772800290480253
1761507219501685500,1.567685546875,-11.251043336904049,-0.6113529057279229,4.539724912086129
1761507219521841400,1.58784130859375,-16.062825194716453,-1.2606684623643756,6.090328798955679
1761507219541997300,1.607997314453125,-20.470452251386643,1.6312191000685095,5.257084661900997
1761507219562153200,1.6281533203125,-22.3726501465559,1.236995033571124,4.112572389455139
1761507219582309000,1.64830908203125,-20.251083524274826,1.477978211119771,2.066990105701983
1761507219602465300,1.66846533203125,-15.487074640506505,0.6555602962449193,1.3306022686816752
1761507219622622200,1.688622314453125,-8.955129032498597,-1.0638117190510035,1.2322729734852909
1761507219642778400,1.7087783203125,-1.8756266991078852,-2.5228861999973655,0.9149851394131779
1761507219662934300,1.728934326171875,3.5947476622521877,-3.2438413439556952,-0.9564145896494388
1761507219683090200,1.749090087890625,6.8730234829902646,-3.0088913090914486,-3.3852272521987556
1761507219703246300,1.769246337890625,9.375782548499107,-2.329443795172125,-4.808380232675373
1761507219723403300,1.7894033203125,10.953467919039726,-1.5922469798564909,-5.311105005902052
1761507219743559400,1.809559326171875,11.829857954859733,-1.8103335582032798,-5.754710358422995
1761507219763715300,1.82971533203125,10.60504143486023,-2.0656116569556295,-6.24234306871891
1761507219783871500,1.84987158203125,10.031390483278036,-2.283774807669967,-4.381472916977107
1761507219804027400,1.87002734375,9.410458725082874,-1.4928195141598581,-2.3401783935457465
1761507219824183300,1.890183349609375,7.839841393232345,-1.859433396936953,-1.2393684847041964
1761507219844340200,1.91034033203125,6.593482318988442,-1.5941858389645813,-0.5553478176504373
1761507219864496000,1.93049609375,5.681334741088747,-1.463874866965413,0.2185775767341256
1761507219884652300,1.95065234375,4.943916538107395,-0.9432591938696802,0.2579813663616776
1761507219904808200,1.97080810546875,4.01994583594501,-0.44331645257696506,-0.06852846956402063
1761507219924964400,1.99096435546875,3.1983687558084726,-0.3172800891570747,-0.8248378354981541
1761507219945120300,2.011120361328125,1.6697364622503519,-0.060161257908865805,-1.1001382931903003
1761507219965277400,2.03127734375,-1.530030469918251,0.27453783928919584,-0.4561130980469286
1761507219985429500,2.051429443359375,-7.311748662254214,1.2962059319525956,1.3156990063212812
1761507220005585700,2.071585693359375,-12.107082658612727,1.1804417370263487,1.590760832951963
1761507220025741600,2.091741455078125,-15.467921027225255,-2.3052003114059567,3.4962346810519693
1761507220045897500,2.1118974609375,-18.10344021145105,0.008141805401444435,2.8100404693514105
1761507220066054700,2.1320546875,-19.661555789124964,-0.6752113376542925,4.844540510337055
1761507220086210600,2.15221044921875,-16.505055751752852,1.0684345565460622,1.7032197757877408
1761507220106366700,2.17236669921875,-12.717227649855612,0.08209412664510309,0.4480087020464241
1761507220126522600,2.192522705078125,-6.684004885956645,-2.5821532124802467,0.5052164439119399
1761507220146678500,2.212678466796875,-0.2985094838440418,-4.621002096325159,0.016562720005214214
1761507220166834700,2.232834716796875,4.758825343650579,-3.941098509201407,-2.013068399769813
1761507220186991400,2.252991455078125,8.033206495037675,-2.530843296481669,-3.0290012001842257
1761507220207147500,2.2731474609375,9.58015945818424,-1.2710839117862283,-2.732153804333508
1761507220227303400,2.293303466796875,10.699552779203653,-1.6572480059467256,-1.7839159452684223
1761507220247459600,2.31345947265625,11.011258429229258,-2.0671644393555817,-0.8506865625038742
1761507220267615500,2.333615478515625,10.431157863116264,-2.5274071845531463,-0.2830089862428605
1761507220287771400,2.353771484375,9.870772051298617,-2.6535487619131803,0.11352671819776296
1761507220307928600,2.373928466796875,9.322426221364736,-2.5384619547918437,0.3117141255930066
1761507220328084500,2.39408447265625,8.457358959069847,-2.579668117666244,0.7855205551102757
1761507220348240600,2.41424072265625,7.968617995271086,-2.713040230801701,1.1155167718470096
1761507220368396500,2.434396484375,7.660017325523495,-2.5847566729769107,1.4037781256601214
1761507220388552700,2.454552734375,6.822223854601383,-2.104074366340786,1.6050702210724352
1761507220408709600,2.474709716796875,5.5674266223579645,-0.6497996868915855,0.8830912870243192
1761507220428865800,2.49486572265625,3.9433980183154342,0.17148142423937096,0.3243541191965341
1761507220449021700,2.515021728515625,0.7197206337273121,0.4366934907732531,0.6409124699503183
1761507220469177600,2.535177490234375,-4.394278914797305,0.23783815752118825,2.566169753667712
1761507220489333500,2.55533349609375,-11.37080953401327,0.2449842298835516,4.550834335121512
1761507220509490400,2.575490478515625,-17.806187449669835,-0.7226428047843277,6.319533275905251
1761507220529646600,2.595646484375,-20.530195064687728,0.26052973567023874,6.083810210841894
1761507220549802500,2.615802490234375,-21.589708794283865,3.5702106023669242,3.2713270245134827
1761507220569958400,2.63595849609375,-17.43855123810768,4.447009218987822,1.3616799823820591
1761507220590114600,2.656114501953125,-11.881606846797466,2.491955931943655,0.8637693314388394
1761507220610270500,2.6762705078125,-5.8688382573843,0.6574779664345085,-0.0017044658303260803
1761507220630427600,2.696427734375,-1.131491755092144,-1.0400564571931958,0.2575821379110217
1761507220650583600,2.71658349609375,2.1652093646526334,-2.2273633307486773,-0.5325631543904542
1761507220670739700,2.73673974609375,4.253925272211432,-2.0794440752141177,-2.2272172002762556
1761507220690895600,2.7568955078125,5.687090528136491,-1.346780519413948,-3.5086961032181976
1761507220711051500,2.777051513671875,6.774512255355716,-1.962800101778656,-4.008889604401588
1761507220731208400,2.79720849609375,7.215270986273884,-1.7041059109725056,-4.815070962485671
1761507220751364400,2.8173642578125,7.741847467470168,-1.8643075788445769,-5.272464017340541
1761507220771520500,2.8375205078125,8.540694244882465,-2.707469737192988,-4.923286422532796
1761507220791676400,2.857676513671875,8.828766505864262,-3.305922537076473,-4.191614361988008
1761507220811832600,2.87783251953125,8.75605373635292,-3.3636920044779774,-3.741766607946157
1761507220831988500,2.897988525390625,8.594218329799174,-3.131966192357242,-3.376022786001861
1761507220852145700,2.918145751953125,8.34586491574347,-2.6243311429962515,-3.088752489052713
1761507220872301600,2.938301513671875,7.96823805604279,-2.497117844751477,-2.5166902679666876
1761507220892457500,2.95845751953125,7.507236747562885,-2.0923012186996637,-1.915527040080726
1761507220912613600,2.978613525390625,6.601504881924391,-1.3944827663093804,-1.281805650678277
1761507220932769500,2.99876953125,5.4749517522782085,-1.1269104917164892,-0.6995251101776957
1761507220952926700,3.0189267578125,3.649569970285892,-0.8459569036334752,0.1253363984569907
1761507220973082600,3.03908251953125,1.235768122124672,-0.9278870718885213,1.5018360565692186
1761507220993238500,3.059238525390625,-3.605527999463677,-1.2360681279845536,2.8560262677177786
1761507221013394700,3.079394775390625,-11.176301691913604,-1.8549657500036059,5.1175382440447805
1761507221033550600,3.099550537109375,-21.09974851782322,2.009210409167409,5.651885943764448
1761507221053707500,3.11970751953125,-25.27823597947359,5.880109592983127,0.6601463088609277
1761507221073863400,3.139863525390625,-22.900443017804623,7.241867901298403,-1.5940195424869656
1761507221094019600,3.16001953125,-19.496133756256103,5.386200871157646,0.3329667569801211
1761507221114175500,3.180175537109375,-12.852621624207496,1.2256187762930988,2.3735673067979515
1761507221134331400,3.200331298828125,-6.134637896281481,-2.6369536009430883,2.8732202713638544
1761507221154487600,3.220487548828125,-1.1104513051509857,-4.309510965833067,2.006121064849943
1761507221174644500,3.24064453125,2.5580098280876875,-4.394293527844548,0.6038333238780498
1761507221194800600,3.260800537109375,5.379921937018633,-3.8259687397211786,-0.44287747663781046
1761507221214956500,3.28095654296875,7.860165803858638,-3.1514597051173445,-0.9333624345596879
1761507221235112700,3.30111279296875,9.676159579780697,-2.527131582482159,-1.2535960397601127
1761507221255268600,3.3212685546875,11.203811630129813,-2.6451798697575923,-0.9272178673900663
1761507221275425800,3.34142578125,12.11903028603792,-3.2921780893623827,-0.45801279418841
1761507221295581700,3.361581787109375,12.360935839128494,-3.9040383600905537,-0.29594036400839685
1761507221315737600,3.381737548828125,12.139839265310764,-3.8617525852859016,-0.23085326706990597
1761507221335893500,3.4018935546875,11.589341225779055,-3.8954952804118395,-0.40316929723620415
1761507221356049700,3.422049560546875,10.792464871656893,-3.4343633312895894,-0.5734963455423713
1761507221376206600,3.44220654296875,9.179535753777623,-2.4749738174825904,-0.7728291235804557
1761507221396362500,3.462362548828125,7.087454169178009,-1.6409040432587265,-0.8597557118833065
1761507221416518400,3.482518310546875,4.9236160928785795,-0.8323440464098006,-0.7727892299614846
1761507221436674600,3.502674560546875,2.37536485773921,-0.7813210575938224,-0.9145226364679634
1761507221456830500,3.52283056640625,-2.233210887733102,-1.4059518164373934,0.24265622532740233
1761507221476986600,3.542986572265625,-8.580747438329457,-2.8152473903447386,1.2343876275517045
1761507221497143600,3.5631435546875,-17.100573667228222,-3.39923444250226,2.0028867591038346
1761507221517299700,3.5832998046875,-24.45172202745676,0.581618861721456,-0.12301577348969876
1761507221537455600,3.60345556640625,-26.230555408763884,4.002039592376351,-3.6558532883390784
1761507221557611500,3.623611572265625,-23.6025847402215,5.274813210815191,-4.8443674918577075
1761507221577767700,3.643767578125,-18.09402473285198,3.1551077062308788,-2.249259666866809
1761507221597924400,3.66392431640625,-11.261322738856077,1.628023518897593,0.25379224410876633
1761507221618080500,3.68408056640625,-4.6929158244133,-0.3483122832152992,1.9296677936360238
1761507221638236400,3.704236328125,0.7952373547434807,-0.4095768261909485,1.3991475432500242
1761507221658392600,3.724392578125,4.804097733050584,-0.23302461975961922,0.16015987455695865
1761507221678548500,3.744548583984375,8.145053005063533,-0.5064164673514664,-0.14177907227911055
1761507221698704400,3.764704345703125,10.349503662258385,-0.4903638157602399,0.07135550968348979
1761507221718861600,3.784861572265625,11.417257981455325,-1.0711178773459047,0.16614735146872697
1761507221739017500,3.805017578125,11.781136886310577,-0.5430298956081271,-0.3236179138764739
1761507221759173600,3.825173583984375,12.110793203568457,-0.6653486998096108,-0.5831425641573965
1761507221779329500,3.84532958984375,12.042563132429121,-0.8783232689049094,-0.3744881232835352
1761507221799485700,3.865485595703125,11.395440117400884,-0.8867398726597427,-0.32995617698729035
1761507221819642600,3.885642578125,10.00652375304699,-0.8890971033103764,-0.28279629334025086
1761507221839798500,3.905798583984375,8.546488025853037,-0.687552202180773,-0.2982602583233267
1761507221859954700,3.92595458984375,7.379333421227336,-0.3437223981417715,-0.6874925078827887
1761507221880110600,3.946110595703125,6.170908648580312,0.5758611749775707,-1.3454910641252993
1761507221900266800,3.966266845703125,5.048339620134234,0.3854292040146887,-2.454390463659167
1761507221920423400,3.98642333984375,2.8736528175622222,-1.8247573664836585,-2.164478712290525
1761507221940579600,4.00657958984375,-0.4257394409626722,-4.824604514506459,-0.18697386639826
1761507221960735500,4.026735595703125,-6.156468619817495,-5.142130833509564,1.9514868267342447
1761507221980892000,4.046891845703125,-14.375506898546218,-5.178134459304809,3.3165348242446777
1761507222001047800,4.0670478515625,-20.0997601593852,-1.486234582811594,2.5549104007676244
1761507222021205000,4.087205078125,-23.426351390480995,0.5503194680944085,0.27316209395658225
1761507222041361000,4.10736083984375,-23.46491113049984,1.865660600888729,-0.6758446671217679
1761507222061517000,4.12751708984375,-18.9416340798676,2.388268470714986,-0.7011805492345243
1761507222081673000,4.1476728515625,-12.221115865027905,1.5666905137956142,-0.4132143059104681
1761507222101829000,4.1678291015625,-5.569935974830389,0.859820009291172,0.17587986012771725
1761507222121985000,4.187985107421875,0.18863924232721327,1.5055083153411746,-0.5623406722124665
1761507222142142000,4.208141845703125,4.397826378145814,1.9018775771737098,-1.4203960829839108
1761507222162297900,4.2282978515625,7.410953717371821,2.047719295781851,-1.722633355179429
1761507222182453800,4.248453857421875,10.089790065276622,3.2361829381570217,-2.4009857673384247
1761507222202610000,4.26860986328125,12.017868251633644,3.8573257087543604,-2.5556656030490994
1761507222222765800,4.288765869140625,13.273745095807314,2.8721511808276174,-1.8461289480753242
1761507222242923000,4.308923095703125,13.885685738295315,1.1488472329102455,-1.2135422617912293
1761507222263079000,4.329078857421875,13.919301592171191,-0.44249417640864847,-1.1560652014650403
1761507222283234800,4.34923486328125,13.215852878808974,-0.5077176130779087,-1.9034661615394055
1761507222303391000,4.369390869140625,12.392923215019703,-0.33731384627372024,-2.1542418343059717
1761507222323547000,4.389546875,11.53388763410449,-0.6127686177447438,-1.9947715494483709
1761507222343704000,4.4097041015625,10.479998174130916,-0.4587092520199716,-1.9967434340432284
1761507222363862000,4.429862060546875,8.90238294621706,0.02679609085842967,-2.5729735884636638
1761507222384018000,4.450017822265625,6.914097836178541,0.6503516216859221,-2.9613284706667065
1761507222404173800,4.470173828125,4.212927491390705,0.21752660637646912,-2.3047556363783777
1761507222424331000,4.4903310546875,0.4473725960999727,-1.025069754333049,0.017139496979862452
1761507222444487000,4.51048681640625,-5.591501325428485,-2.327664948931336,2.316614416476339
1761507222464643000,4.53064306640625,-11.737792250102757,-2.8356232388973233,3.362656816211343
1761507222484799000,4.550799072265625,-17.90526624805927,-4.3749601740822195,6.612575141993164
1761507222504955100,4.570955078125,-22.71888350460529,0.3331582609642297,4.2062987209007145
1761507222525111800,4.59111181640625,-24.34241175791025,1.7395903351992368,2.1256632439449428
1761507222545268000,4.61126806640625,-21.59143897907734,2.5892966544941065,0.3885095247754827
1761507222565423900,4.631423828125,-17.16596296198368,1.3864932288601994,0.3785013775128871
1761507222585579800,4.651579833984375,-11.035286955070495,0.02463540569320321,0.5207551546316593
1761507222605736000,4.67173583984375,-4.21424091207683,-1.288379476110637,0.8325704025115818
1761507222625891800,4.691891845703125,1.4083511326640843,-1.7243071336105464,0.2236112417860888
1761507222646049000,4.712049072265625,5.085705766454339,-3.818010474193096,-3.234632786105573
1761507222666205000,4.732204833984375,6.35265813139379,-4.13619204223454,-3.984665848249197
1761507222686360800,4.75236083984375,7.720981789574027,-2.435830432356894,-2.2192966364100575
1761507222706517000,4.77251708984375,9.338187854120134,-0.6891732275113464,-0.7137116025708615
1761507222726673000,4.7926728515625,10.829876610684394,-0.052364978009462354,0.492228732849285
1761507222746830000,4.812830078125,11.416605655026435,-0.6520039920028299,2.3201769312635063
1761507222766986000,4.832986083984375,11.0961111338675,-1.744030363473296,2.5393463364109397
1761507222787142100,4.85314208984375,10.209653293019533,-1.9405323019996283,2.135946445289254
1761507222807298000,4.873298095703125,9.283558438310026,-1.181818066880852,1.8193201438657938
1761507222827454000,4.893453857421875,8.846313268470764,-1.075965828833729,1.6792524786144494
1761507222847611000,4.91361083984375,8.288623856130242,-0.5561264373401179,1.3083951130487024
1761507222867766800,4.933766845703125,7.314509359139204,0.07039274733224883,0.851800003638491
1761507222887923000,4.9539228515625,6.262195770180225,0.6582767155967653,0.34515422104317695
1761507222908078800,4.974078857421875,4.728503855144977,0.5789625019937753,0.5721001784762367
1761507222928235000,4.994235107421875,3.0961838080972433,0.3586455342464149,1.0792080986905843
1761507222948391000,5.014390869140625,1.313775490912795,-0.5194925142847001,1.5580932197116315
1761507222968548000,5.034548095703125,-2.1436557044923306,-0.9869703253023325,1.3972206668406724
1761507222988703200,5.054703125,-10.508700537002087,-0.4367136933110654,1.7193948116496205
1761507223008859400,5.074859375,-18.150211314976215,1.9563330977216362,-0.43154615448005496
1761507223029015300,5.095015380859375,-23.155584484565257,2.661985166347027,-2.8792703651830553
1761507223049171500,5.11517138671875,-24.541319880795477,4.411021959805488,-4.801697978432476
1761507223069328400,5.135328369140625,-22.102993832230567,3.3831068990439173,-4.3934211289241905
1761507223089484500,5.155484619140625,-16.630592348957062,0.5230827938616276,-2.0335086918607352
1761507223109640400,5.175640380859375,-10.425037918931245,-1.6081309238173067,-0.43114765668176114
1761507223129796400,5.19579638671875,-4.356763715395331,-3.2089298973113296,-0.350951691808179
1761507223149952500,5.215952392578125,0.7784703443378209,-4.944604520371556,-1.592932185641676
1761507223170108400,5.2361083984375,4.5561692664086815,-6.244740777510404,-3.032346711219847
1761507223190265300,5.256265380859375,7.158405189713835,-6.019778175914287,-3.4283801652267574
1761507223210421200,5.276421142578125,9.516785594904421,-4.272181059870124,-2.3874743977278468
1761507223230577400,5.296577392578125,11.035474002075194,-3.2999113139629364,-1.3053754729665814
1761507223250733300,5.3167333984375,12.30765783792734,-2.8040771770328283,-0.5643476281207055
1761507223270889200,5.33688916015625,12.747772425723076,-2.9935221827849743,-0.08759937299787998
1761507223291046400,5.35704638671875,12.774601980459689,-3.9940561924070117,0.3300074687831104
1761507223311202300,5.377202392578125,11.554490861672162,-3.8991052876025436,0.7960125038344412
1761507223331358500,5.3973583984375,10.001234998989105,-3.7955285932719707,0.4924007649479434
1761507223351514400,5.417514404296875,7.797549480947851,-3.40711467435807,1.112668104417622
1761507223371670300,5.437670166015625,5.655066911888122,-2.181786405444145,1.526787980865687
1761507223391827500,5.457827392578125,3.4758559098899364,-0.9764232123248279,1.6594371865540742
1761507223411983400,5.4779833984375,0.5599450823128224,0.6264440918758512,1.9482704950362444
1761507223432139500,5.498139404296875,-2.3576129279494284,0.44423448073733596,3.8615988560289143
1761507223452295400,5.51829541015625,-5.548953392556309,0.5647068168219178,5.630674228909611
1761507223472451300,5.538451416015625,-9.340911726126075,2.529028648275137,5.681864902442693
1761507223492607200,5.558607177734375,-12.466472435355186,0.7003137763373554,6.301477394732832
1761507223512764400,5.578764404296875,-17.017167069745064,0.4135770017430186,5.945445111724734
1761507223532920300,5.59892041015625,-19.842332042992116,0.47648324751108884,3.774014680600166
1761507223553076200,5.619076171875,-19.21994599433541,1.4126117127180098,0.669025561691448
1761507223573232400,5.639232421875,-14.511595284903049,2.2718875321298837,-1.4201307100459932
1761507223593388300,5.65938818359375,-8.835090448188781,1.1385101094216108,-1.8766135181881487
1761507223613545500,5.67954541015625,-5.105791107627749,-0.19953429195955394,-1.7649182532012462
1761507223633701400,5.699701416015625,-1.280887951311469,-1.2279352365419267,-2.6856194321736693
1761507223653857500,5.719857421875,1.656541465112567,-1.706385107950866,-3.032802053771913
1761507223674013400,5.740013427734375,4.22642001017034,-1.3784829408839345,-3.4199814624547957
1761507223694169300,5.76016943359375,6.2059665179580445,-0.9091742611773311,-3.2434993986502287
1761507223714325500,5.780325439453125,8.131610755166411,0.11269808535389601,-3.280847132530808
1761507223734482200,5.800482177734375,9.420530037242173,0.8954150542855263,-3.0123008252739902
1761507223754638300,5.820638427734375,10.329419490128755,0.8339064003556966,-2.5887521723538636
1761507223774794200,5.840794189453125,11.22880695517659,0.7324881992332637,-2.0829390777230263
1761507223794950100,5.8609501953125,11.713517056024074,0.5586227476678788,-1.78341194126904
1761507223815106300,5.881106201171875,12.034543492102623,0.5758325334049761,-1.6370051361240445
1761507223835263200,5.90126318359375,11.782177335274218,1.1664178147837518,-1.7384185149408875
1761507223855419400,5.92141943359375,11.360130319088697,1.3631395335406065,-1.7227980442218482
1761507223875575300,5.9415751953125,10.51486373580694,1.4351612520478665,-1.5968419064313173
1761507223895731500,5.9617314453125,9.31894890064299,1.9018419213384388,-1.8239957344613968
1761507223915887400,5.981887451171875,7.1320245477885,1.7958955752670764,-1.9274857734218238
1761507223936044500,6.00204443359375,3.7422324718922373,1.2951388872429728,-0.5129132820248603
1761507223956200400,6.022200439453125,1.1272773522675037,-0.18029490009099244,1.0314936499007046
1761507223976356400,6.0423564453125,-4.092409014609456,-1.8498139201983808,1.3429989550486205
1761507223996511700,6.06251171875,-10.422890385508536,-4.6891892051056026,1.9012405944444237
1761507224016668000,6.08266796875,-15.599402212047575,-6.148036307036876,0.3297742445491254
1761507224036823800,6.10282373046875,-20.457223351979255,-5.668527866485714,-1.330525988575071
1761507224056980700,6.122980712890625,-22.791352528488634,-3.9263235493957995,-2.0446825584344563
1761507224077136600,6.14313671875,-21.797847686851025,-3.1082664600789545,-1.8083355162538588
1761507224097292800,6.163292724609375,-17.559809135079384,-2.5377438696503636,-0.5825955612665042
1761507224117448700,6.18344873046875,-11.038801100671291,-2.936897501504421,0.5891957267165183
1761507224137604600,6.2036044921875,-4.7743707033067935,-2.7627552788242697,0.8837773695923388
1761507224157761800,6.22376171875,0.13902502433061598,-1.726236640368402,0.033391397470235826
1761507224177917700,6.243917724609375,3.62122650385499,-0.33625118547827004,-0.6915307504229247
1761507224198073900,6.264073974609375,5.934996198424696,1.1533762546420097,-0.6420455656334757
1761507224218229800,6.284229736328125,7.606563967755436,1.7763073699608445,-0.8158033190406858
1761507224238386000,6.304385986328125,8.758725585910677,2.5421403510436416,-1.1394068390656262
1761507224258542800,6.32454296875,9.469086270618439,3.128533003038168,-1.28246236102134
1761507224278699000,6.344698974609375,9.895359380066393,3.1420638080015775,-1.0297492904514074
1761507224298855000,6.36485498046875,10.439675516092777,2.837626979935169,-0.8607778945378959
1761507224319010800,6.3850107421875,10.139500144863128,2.2481369464471936,-0.35041948462761935
1761507224339167000,6.4051669921875,9.250967251306772,2.895977754355967,-0.394453345208615
1761507224359323000,6.425322998046875,8.719626916709542,3.1787571696266532,-0.4824718934666365
1761507224379479800,6.445479736328125,8.511780869609117,4.0426039502158755,-0.6534869240369647
1761507224399635700,6.4656357421875,8.295631689065694,4.757936870378256,-0.805913281732425
1761507224419791600,6.48579150390625,7.215191491296887,4.605953580275178,-0.776335816527158
1761507224439947800,6.50594775390625,5.207777317896485,2.8214877460390326,0.1259282999355346
1761507224460103700,6.526103759765625,1.4021400030642748,-1.2342734996527434,2.8860040573522445
1761507224480260900,6.5462607421875,-4.77144984742403,-2.150784533458948,3.894139481888711
1761507224500416800,6.566416748046875,-12.597785277873276,-4.741206100329756,4.39054206635654
1761507224520573000,6.586572998046875,-16.911153503656386,-1.8169082604184745,2.2274048318028448
1761507224540728800,6.606728759765625,-19.05004769283533,-2.55641992854774,1.4629400703333317
1761507224560884700,6.626884765625,-17.476978876179455,-2.9693907810911533,0.3907231457043439
1761507224581042000,6.6470419921875,-14.380732524240017,-3.996592725147307,0.6897715587306767
1761507224601197800,6.66719775390625,-10.1825244630754,-4.946926241317391,1.213736980645731
1761507224621354000,6.68735400390625,-5.869793366152048,-4.543101110520959,0.9311128290019929
1761507224641510000,6.707510009765625,-1.6010183153331279,-3.179486360684037,0.03620104806348681
1761507224661665800,6.727665771484375,1.8963111752182245,-1.4497557407200337,-0.6808112765531986
1761507224681821700,6.74782177734375,4.512318434244394,-0.0783770788833499,-1.3078551609531044
1761507224701979000,6.767978759765625,6.162684425592422,0.29498247876167294,-1.661326945823431
1761507224722134800,6.788134765625,7.232080082255601,0.6515049564395099,-1.9323574711114166
1761507224742290700,6.808290771484375,7.880269849732517,0.5279274574138224,-1.7554763249866663
1761507224762446800,6.82844677734375,8.52466197849214,0.15855791925303636,-1.5801397779554127
1761507224782602800,6.848602783203125,8.635300866293907,-0.05330211272910237,-1.1109125659871846
1761507224802760000,6.868760009765625,8.77947728203833,-0.22140578589737414,-1.0135633678693323
1761507224822915800,6.888915771484375,8.982699760991334,-0.06359919646829366,-1.0323750358451158
1761507224843071700,6.90907177734375,8.68807325606048,0.3018482728779316,-0.823872935988754
1761507224863228000,6.929227783203125,8.569988728427887,0.6131650697164237,-0.7518790553364902
1761507224883383800,6.9493837890625,8.141976666358113,0.729504653377831,-0.5086765943031758
1761507224903540700,6.969540771484375,7.067437217065692,0.4830016894944012,-0.2486796503353864
1761507224923696600,6.989696533203125,4.078662228807807,-0.5856080774880945,0.134924749404937
1761507224943852800,7.009852783203125,-0.6820370920211076,-2.0501155432686207,0.9056425799198448
1761507224964008700,7.0300087890625,-7.373838330942392,-1.5813260651305316,0.518701948428899
1761507224984165600,7.05016552734375,-13.66508600808382,-2.2980986627072095,1.7947110416576266
1761507225004321500,7.070321533203125,-16.522247709572316,-2.199112803298235,2.617482007753849
1761507225024478700,7.090478759765625,-18.27965018031597,-1.4133020330697297,2.554465287348628
1761507225044634600,7.110634521484375,-17.193199343955516,0.11424772594869136,1.0069893963064998
1761507225064790800,7.130790771484375,-14.107065220707653,-0.1519651699244976,0.3641827831726521
1761507225084946700,7.15094677734375,-10.031789127206801,-0.8960062981769442,0.5806417603176087
1761507225105102800,7.171102783203125,-5.691359876018762,-1.651262940187752,0.9031379036225378
1761507225125259500,7.191259521484375,-1.307721597701311,-2.271435988970101,0.1965386903401464
1761507225145415700,7.211415771484375,2.3132103071212766,-2.380386339163035,-1.1153818934209645
1761507225165571600,7.231571533203125,5.174225176906585,-1.7991592532381415,-1.8933698610693215
1761507225185727500,7.2517275390625,7.104599365246296,-0.911091785236448,-2.1912083137840033
1761507225205883600,7.271883544921875,8.609699976569413,-0.4716569963984191,-2.1668410575076935
1761507225226040600,7.29204052734375,9.748746677085757,-0.13620945545323193,-2.2407238937117158
1761507225246196700,7.31219677734375,10.25192123990655,-0.23281791820637882,-1.7500893712513148
1761507225266352600,7.3323525390625,10.51723338754773,-0.5208246396712959,-1.303247374896705
1761507225286508800,7.3525087890625,10.678395424884558,-0.930732305251807,-1.1231073000412433
1761507225306664700,7.372664794921875,10.579560956645011,-0.5476366587512195,-1.1258977344773708
1761507225326820600,7.392820556640625,10.323632723420857,-0.03331190249323845,-1.2096156629320234
1761507225346977800,7.412977783203125,9.911026904797554,0.6099263800561427,-1.2670204617395997
1761507225367133700,7.4331337890625,9.162271899765729,1.1780794648744166,-1.3669810113996266
1761507225387289900,7.453289794921875,8.081492679300904,1.6110919655799865,-1.596083197018504
1761507225407445800,7.47344580078125,6.424452032494544,1.7400713967144488,-1.4789225062325595
1761507225427601700,7.4936015625,3.8998978992849587,0.6632303924813866,-0.34798918874077495
1761507225447758600,7.513758544921875,-1.0207003070771694,-1.701786089722812,1.6087231906220316
1761507225467914500,7.53391455078125,-8.577866914457083,-2.56843974442631,2.3842076510168613
1761507225488070700,7.554070556640625,-16.891557991826534,-3.091376115554571,3.2192101760461926
1761507225508226600,7.5742265625,-22.99169623713493,2.572822197294235,-0.8783325481899082
1761507225528382700,7.5943828125,-27.050394120800494,4.241057315070927,-5.222840446993708
1761507225548538600,7.61453857421875,-21.123311764240263,1.9896203041650353,-1.5868775617778301
1761507225568695800,7.63469580078125,-16.436362739276884,0.26199812772236764,1.201248670472577
1761507225588851700,7.654851806640625,-9.289404826250673,-1.9354311794683337,3.569233281767368
1761507225609007600,7.675007568359375,-2.9063293447613714,-2.877780418886244,3.7540982662528752
1761507225629163800,7.695163818359375,1.0795932255506515,-3.074223905223608,2.5529209805160757
1761507225649319700,7.715319580078125,3.5371015289694068,-2.869052338029444,0.9590171733632683
1761507225669476900,7.735476806640625,5.737312648898363,-2.1162623783931136,-0.13776866759397088
1761507225689632800,7.7556328125,7.971214441505074,-2.046355313952267,-1.673237602239102
1761507225709788700,7.77578857421875,9.814435831570625,-2.265678156095743,-2.6535411631286143
1761507225729944800,7.79594482421875,10.98805407925248,-2.5300901400268074,-2.2735769465215503
1761507225750100700,7.816100830078125,11.804522438073157,-2.578568924252689,-1.4548130241096018
1761507225770257700,7.836257568359375,12.10972469755411,-2.1449695635698736,-0.606629530467838
1761507225790413600,7.85641357421875,12.124543496501445,-2.0725410178273913,0.16781586920283734
1761507225810569700,7.87656982421875,11.807748998904227,-1.4483717390157282,0.4136160185791552
1761507225830725600,7.8967255859375,11.333425852036475,-0.9820812380865216,0.2641546481691301
1761507225850881500,7.916881591796875,9.89452935898304,-0.29576266935393214,-0.3957081675752997
1761507225871038700,7.937038818359375,8.29593914757967,0.5656807033553719,-0.7127126546613871
1761507225891194600,7.957194580078125,5.08398785662055,0.65279419253245,-0.6519600067306309
1761507225911350800,7.977350830078125,1.13107031480968,0.1643625869438052,0.1317199620142579
1761507225931506700,7.997506591796875,-5.216965417480468,-1.6226880030885338,1.3420337632782757
1761507225951660500,8.01766064453125,-12.523615295290947,-2.8002438824802636,0.05757079389109276
1761507225971816700,8.037816650390624,-22.066178305530546,-5.331385577386618,-0.5281150524077937
1761507225991972000,8.05797216796875,-27.832786022496222,1.2976824342459439,-4.413770381730795
1761507226012129000,8.07812890625,-25.77169637300968,3.924833603098988,-5.66900191373825
1761507226032285000,8.098284912109374,-19.021629407602546,3.1961306214928626,-2.258384199695289
1761507226052441000,8.118441162109375,-17.712022142285107,-1.6989092191122472,-1.976198512534052
1761507226072597000,8.138596923828125,-7.290847913044691,-2.1968065721824765,-0.6936708311915397
1761507226092753200,8.158753173828124,-1.139727668517828,-3.5146716704964636,0.4474901215324178
1761507226112910000,8.17891015625,3.2670757968097925,-2.8131740912020207,0.35427656191457063
1761507226133066200,8.199066162109375,7.26973732047677,-1.4505378310084343,0.49727607936672863
1761507226153222100,8.21922216796875,10.446542479252814,0.251966051594913,0.18243680749051272
1761507226173378000,8.2393779296875,12.729963212788105,1.3622460918322206,0.22705153669938444
1761507226193534200,8.2595341796875,13.86275728265047,1.3464428118921816,0.49944231748990714
1761507226213690000,8.279690185546874,14.762555082064866,0.9809113175243138,0.7347993987850845
1761507226233847000,8.299846923828126,14.88615808085799,0.18100187931656836,1.1274258938927202
1761507226254003000,8.3200029296875,14.730821388673782,-0.6006855273716152,1.1133774217307566
1761507226274158800,8.340158935546874,13.857171591472625,-0.9532856439739466,1.5537642505966125
1761507226294315000,8.36031494140625,11.720206324529647,-0.9148072986282407,1.1969935703113674
1761507226314471000,8.380470947265625,10.154058247047661,-0.4481210763797164,1.04793756583184
1761507226334628000,8.400628173828125,8.438145724555849,0.23949206220805644,0.5779663670958951
1761507226354784000,8.420783935546876,5.9067766506344075,0.8338776126526296,-0.247808931915462
1761507226374942000,8.44094189453125,1.6443816562414169,0.7605472957648336,-0.6492052281297743
1761507226395097900,8.461097900390625,-5.303586300835013,0.011966478256136179,-1.5312721405424177
1761507226415255000,8.481255126953124,-13.388607154262065,-1.8098391988150775,-2.648819979825616
1761507226435411000,8.501410888671876,-21.184541601228712,-2.1316516707047817,-4.039322444327175
1761507226455567000,8.521567138671875,-24.738320124232768,-0.7142379645325243,-5.068419116088748
1761507226475723000,8.541722900390624,-26.01132930499315,0.47252734949216246,-5.0512844414144755
1761507226495879200,8.561879150390626,-23.224964894783497,1.3068857313990592,-4.170563390652835
1761507226516036000,8.5820361328125,-18.295871831798554,1.0509366015173494,-2.885685200661421
1761507226536192300,8.602192138671874,-11.33524605320096,-0.6841553993493318,-0.40540765074752266
1761507226556348200,8.62234814453125,-3.332069370245933,-2.3034061214655637,1.867387863072753
1761507226576504000,8.642504150390625,3.9548862115353343,-2.191720208828896,2.951230270500481
1761507226596660200,8.66266015625,8.289443355819582,-0.5733271264553069,2.603190447551012
1761507226616817000,8.68281689453125,11.737307096934318,0.8117648573048413,2.875179296477139
1761507226636973000,8.70297314453125,14.412808747458458,0.7324240479558706,3.006350392436981
1761507226657129000,8.72312890625,15.565939502906799,-0.16382950298041105,2.611172093954682
1761507226677284900,8.743284912109376,15.499336740708351,-0.5697890154570341,2.1018702804252505
1761507226697441000,8.76344091796875,14.665854118722676,-0.9598127076551317,1.8070302788741885
1761507226717597000,8.783596923828124,12.87325758500099,-0.8573113874711096,0.5301897032573819
1761507226737754000,8.803754150390626,10.450002848839759,-1.0240094316251576,-2.4329548769205807
1761507226757910000,8.823909912109375,8.132468833300472,-1.516056743492931,-1.5686913322240112
1761507226778066200,8.844066162109375,5.941275132563709,-0.23560689133778212,-1.2877537454277277
1761507226798222000,8.86422216796875,5.221004463738203,0.2702959274031222,-1.2739356479555368
1761507226818378000,8.8843779296875,3.9328918218702076,0.48147981368936593,-1.7792584748513995
1761507226838535200,8.90453515625,2.552330028885603,0.24753464501872657,-1.0654371282957493
1761507226858691000,8.924691162109376,-0.4887520697146654,0.39877880719229575,-0.30541173751316963
1761507226878847200,8.94484716796875,-5.502989513760805,0.0962602338373661,1.3093253796361386
1761507226899003100,8.965003173828125,-11.445773297321796,-1.2594336598724125,3.7337595348402854
1761507226919159300,8.9851591796875,-16.23071975517869,-3.270589942410588,6.363664094054698
1761507226939316000,9.00531591796875,-21.057831284070012,-3.227940887251496,-1.6580600529819727
1761507226959472000,9.02547216796875,-28.27992656340599,-5.887659862232208,-6.735649732998013
1761507226979628000,9.0456279296875,-25.673106234920024,4.307311117701232,-6.029588791310787
1761507226999788500,9.06578857421875,-20.124983447968958,7.348134565365314,-0.846499193816632
1761507227019944400,9.0859443359375,-11.79690728689432,7.338372465285659,1.4557055890351533
1761507227040101600,9.1061015625,-4.642251220580936,5.560777685862779,1.8413401063635944
1761507227060257500,9.126257568359375,2.3703280326157805,3.5108144105464216,1.0484999489549547
1761507227080413400,9.146413330078126,7.783138678279519,2.5057073939204213,0.04261405691094696
1761507227100569600,9.166569580078125,11.653705269140005,2.960129908531904,-0.16586131933527065
1761507227120725500,9.1867255859375,14.078941534507274,1.7624360809966921,-0.45586664900518953
1761507227140882400,9.20688232421875,15.388172367727755,1.2940297569572925,-0.15086016782466322
1761507227161038300,9.227038330078125,15.085347943294048,1.3982643306747078,0.22601616576965897
1761507227181194500,9.247194580078125,14.23680453029871,1.131241871984303,0.4069671186165884
1761507227201350400,9.267350341796876,13.358005095249414,0.8434805766478181,0.45735411108396945
1761507227221506300,9.28750634765625,12.148377961075305,1.1437880498245359,0.6738171068169176
1761507227241662500,9.307662353515624,10.586596262109278,1.6912036131709813,0.7550278016909957
1761507227261819400,9.3278193359375,9.049405399042367,1.9093758239746093,0.5779897114388645
1761507227281975600,9.3479755859375,7.547638900578022,2.4232456760719416,0.23957636122433468
1761507227302131500,9.36813134765625,5.874778168827295,2.777430285386741,0.15786321498714387
1761507227322287600,9.38828759765625,3.3658576580792663,1.9051283956632017,1.0310908412534743
1761507227342443500,9.408443603515625,-0.8276444173514842,0.34206191758364435,1.0249094492048025
1761507227362600400,9.428600341796875,-5.8841147369712585,-0.6702917091697455,-0.5527001526858657
1761507227382756400,9.44875634765625,-11.137669471180438,-0.7937684512346983,-2.1575020051456986
1761507227402912300,9.468912353515625,-14.856163924610614,-3.1142379357039927,-1.3340383806101976
1761507227423068400,9.489068359375,-16.30574898493886,-3.6842473159134386,-1.127196688246727
1761507227443224300,9.509224365234376,-17.0790492331624,-2.3980595046281814,-0.7054005050171166
1761507227463381500,9.529381591796875,-15.477059442448615,-0.45649990540742874,-1.01671766718179
1761507227483537400,9.549537353515625,-12.378015568745136,-0.9107415104940533,-0.3303013371631503
1761507227503693300,9.569693359375,-6.572218581685424,-0.9772108555711805,0.719417705257982
1761507227523849500,9.589849365234375,-1.311470136579871,-1.4389467619359493,1.2475266567185521
1761507227544005400,9.61000537109375,2.164135597941279,-1.343910516935587,1.211915391241759
1761507227564161500,9.63016162109375,4.673173597589135,-0.9422948788821697,0.8834126279331743
1761507227584318500,9.650318359375,6.347700801247358,-0.5765144512545317,0.4304558019600808
1761507227604474600,9.670474609375,7.316711837619542,-0.5308510167103261,0.13118413810450583
1761507227624630500,9.690630615234374,7.771082914304733,-0.8682269684348255,0.132524739058502
1761507227644786400,9.710786376953125,8.269992805418372,-1.1601019096352159,0.048010216866061085
1761507227664942600,9.730942626953125,8.32342745848596,-1.4033192759767175,0.10492350582964717
1761507227685099300,9.751099365234374,8.211651091086864,-1.263604077424854,-0.08049794349484145
1761507227705255400,9.77125537109375,8.088355550807714,-0.7329691146180033,-0.17225195195414125
1761507227725411300,9.791411376953125,7.988669434174895,-0.15363712172470986,-0.2951468390105292
1761507227745567500,9.8115673828125,7.748785742300749,0.24278978857919573,-0.23764990494009106
1761507227765723400,9.831723388671875,7.391953833347559,0.5304983308151364,-0.034421398105099796
1761507227785880300,9.85188037109375,6.86025635587573,0.5040259189531207,0.23587891321219503
1761507227806036500,9.872036376953124,5.578018158999085,-0.4732265838027,1.050904598943889
1761507227826192400,9.8921923828125,1.5860557240009308,-1.7703367711186409,1.0434100054048001
1761507227846348500,9.9123486328125,-6.081260526359081,-2.7277722282484174,-2.2831784492120146
1761507227866504400,9.93250439453125,-13.516092547446489,-2.3639123203545807,-3.0677550014704464
1761507227886661600,9.95266162109375,-18.99090342994928,-2.069286984467506,-1.950480133909732
1761507227906817500,9.972817626953125,-21.974894691061973,0.43492491019815205,-1.2953690427370368
1761507227926973400,9.992973388671874,-20.942346125280856,1.8692200469359754,-1.249411593682319
1761507227947129600,10.013129638671876,-16.247788963401316,0.3078530662506819,-0.5903588156791404
1761507227967285500,10.033285400390625,-9.859695361489058,-1.8350997506693005,0.8788279304914176
1761507227987442200,10.053442138671874,-3.992470384520292,-2.4723592510700225,1.5255176686689256
1761507228007598000,10.07359814453125,-0.061412207818031306,-2.2460516646057367,0.28799371585287153
1761507228027754200,10.093754150390625,2.400361936351657,-1.8411276326566934,-0.17618390284189953
1761507228047910100,10.11391015625,4.334320997440814,-0.7914651427283883,0.057975913226418194
1761507228068066000,10.134066162109375,6.178022864499688,0.48560880325287575,0.8380673924926668
1761507228088222200,10.15422216796875,8.23648158096075,1.5604948740258813,1.3638264928914605
1761507228108379100,10.174379150390624,10.047966355025768,1.9321552265375852,1.436195563531667
1761507228128535300,10.194535400390626,11.332077944558858,1.7994950610637663,0.9933697440158575
1761507228148691200,10.214691162109375,12.014382163083553,1.805980331429839,0.8288997511748224
1761507228168847000,10.23484716796875,12.178534614408015,1.9417706116229294,0.5236385280482471
1761507228189003300,10.255003173828126,11.854791320586203,2.0403736091941593,0.16271944111296907
1761507228209160200,10.27516015625,10.568751977860927,2.009268276834488,-0.08225940020941197
1761507228229316400,10.29531640625,8.939002658084034,2.0230159394189715,0.20877587529644367
1761507228249472300,10.31547216796875,6.499642005774378,2.052841461101174,0.5853605690004303
1761507228269628200,10.335628173828125,3.1313246795833107,1.2176014740541576,0.7046123503141105
1761507228289784300,10.355784423828124,-1.0249012658983467,-0.7850105597615241,-0.0034533918568864464
1761507228309941200,10.375941162109376,-6.500443385285139,-0.9136725955098867,-1.204124445104599
1761507228330097200,10.39609716796875,-11.956512157917022,-0.637550300040841,-2.286097843790054
1761507228350253000,10.416253173828125,-16.636669038522243,-3.644327977979183,-2.64929636516571
1761507228370409200,10.4364091796875,-18.289285439145566,-4.726954287615418,-3.8852071106314656
1761507228390565000,10.456565185546875,-19.416498494005204,-3.6150934079274535,-2.895835423275828
1761507228410721300,10.47672119140625,-17.39252598451376,-0.6278966287717223,-1.5721145846709608
1761507228430878200,10.496878173828126,-12.494658080875872,-1.1965054945334792,-0.7606666843608021
1761507228451034400,10.517034423828125,-6.3060284821659325,-2.1772382406204938,-0.3337889966158196
1761507228471190300,10.537190185546875,-0.9236246652036905,-2.110283596244454,0.09825987408882937
1761507228491346200,10.55734619140625,3.0581092212468386,-1.383996735869348,0.5561890907801688
1761507228511502300,10.57750244140625,5.806836266979575,-0.4247869625434279,0.8630376561634242
1761507228531659000,10.597658935546875,7.581153047645092,0.585442219401896,0.6791182088997214
1761507228551815200,10.617815185546876,8.804839102309941,1.5622437635198234,0.6348620838701725
1761507228571971000,10.63797119140625,9.695411392739414,2.524919751651585,0.8871442156769335
1761507228592127000,10.658126953125,9.8855768217206,3.084214845623076,0.8945271655350923
1761507228612283100,10.678283203125,9.546469954550266,3.2119422308698296,0.7695219717938453
1761507228632440000,10.698440185546875,8.846924678367376,3.7029233748108146,0.9225500217095017
1761507228652596200,10.71859619140625,8.311618362748622,4.037855002123117,0.9546551787614822
1761507228672752000,10.738752197265624,7.818885698965191,4.343845197111368,0.8783125283151865
1761507228692908300,10.758908203125,7.409341021478176,4.49930931506753,0.6503096822403371
1761507228713064200,10.779064208984375,6.334257382306456,4.098435435292124,0.8770772874318062
1761507228733221400,10.799221435546874,4.042656264925003,2.222373267376423,1.3796981618925928
1761507228753377300,10.819377197265625,-0.049451720911264416,-0.22186697366833685,0.8187303854685276
1761507228773533200,10.839533203125,-4.635210069897771,-2.3071271878153086,-0.5476233608782292
1761507228793689300,10.859689453125,-7.604247507506608,-2.9384517452090977,-1.1472490769986063
1761507228813845200,10.87984521484375,-9.730075878885387,-6.10880728945434,-0.08617562380507587
1761507228834001400,10.90000146484375,-10.761473521065712,-8.280558038574457,-0.6653322601314634
1761507228854158000,10.920157958984374,-11.136736574244498,-9.453003150823712,-1.8775259568579494
1761507228874314200,10.940314208984375,-10.71567038578987,-6.016383272778987,-2.3869784309044477
1761507228894470100,10.96047021484375,-8.944692978680134,-4.145211799514294,-1.2078217652525751
1761507228914626000,10.9806259765625,-5.754646645537019,-3.754788002082705,-0.10150277413334696
1761507228934782200,11.0007822265625,-1.351937171524763,-3.61331909173131,-0.054080038299039006
1761507228954939100,11.020939208984375,1.4192133029401302,-1.6023796668142078,0.5064159558948129
1761507228975095300,11.04109521484375,2.8316987589299676,0.2790034038633108,0.9503903609238564
1761507228995251500,11.06125146484375,3.8487165781021115,1.7205244002014397,1.1314021040473132
