time,seconds_elapsed,z,y,x
1761507218030280400,0.096280517578125,-0.351004958152771,0.154189333319664,1.3381295204162598
1761507218050436400,0.116436279296875,0.008573632687330246,0.048329804092645645,1.296118974685669
1761507218070592300,0.13659228515625,0.24433083832263947,-0.03659228980541229,1.1694451570510864
1761507218090748400,0.15674853515625,0.21359865367412567,0.27155178785324097,0.8897660374641418
1761507218110905000,0.176905029296875,-0.08979391306638718,0.3495229184627533,0.2779359519481659
1761507218131061200,0.197061279296875,-0.5383751392364502,-0.01603865809738636,-0.6223409175872803
1761507218151217200,0.217217041015625,-0.8173481822013855,-0.1659080684185028,-1.452587366104126
1761507218171373000,0.237373046875,-0.9645266532897949,-0.03605329990386963,-1.996828317642212
1761507218191529200,0.257529296875,-1.1233121156692505,0.1859738975763321,-2.010998010635376
1761507218211685000,0.27768505859375,-1.1270469427108765,-0.10347488522529602,-1.5531558990478516
1761507218231842300,0.29784228515625,-0.9672958850860596,-1.0981981754302979,-0.8199365735054016
1761507218251998200,0.317998291015625,-0.7220709323883057,-1.9096871614456177,-0.08369893580675125
1761507218272154400,0.338154296875,-0.592401385307312,-2.178434133529663,0.5371890664100647
1761507218292310300,0.358310302734375,-0.8051258325576782,-2.4406795501708984,0.5000091195106506
1761507218312466200,0.378466064453125,-1.2816165685653687,-2.3700685501098633,0.06799355149269104
1761507218332622300,0.398622314453125,-1.706122636795044,-1.743765115737915,-0.0019401847384870052
1761507218352779300,0.418779296875,-2.0595457553863525,-1.3239320516586304,0.16380102932453156
1761507218372935200,0.43893505859375,-2.04016375541687,-0.823311984539032,0.38676321506500244
1761507218393091300,0.45909130859375,-1.6765408515930176,-0.2554875612258911,0.5516520738601685
1761507218413247200,0.479247314453125,-0.9000299572944641,0.13339640200138092,0.46741876006126404
1761507218433403100,0.499403076171875,0.03427106514573097,0.3644820749759674,0.32904770970344543
1761507218453560000,0.51956005859375,0.1496858298778534,0.3510666489601135,0.022777903825044632
1761507218473716200,0.53971630859375,-0.09283122420310974,0.38413089513778687,-0.14474354684352875
1761507218493872000,0.5598720703125,-0.42407625913619995,-0.3796786069869995,-0.008152947761118412
1761507218514028300,0.5800283203125,-0.13642975687980652,-1.0835614204406738,1.418777346611023
1761507218534184200,0.60018408203125,0.16931453347206116,-0.7943393588066101,2.940410852432251
1761507218554340000,0.620340087890625,0.41204842925071716,-0.4886014759540558,2.796318769454956
1761507218574497300,0.640497314453125,0.317523330450058,-0.07941839843988419,1.3801815509796143
1761507218594653200,0.660653076171875,0.055245403200387955,0.23882003128528595,0.35381433367729187
1761507218614809300,0.680809326171875,-0.11564582586288452,-0.09092344343662262,-0.214750736951828
1761507218634965200,0.70096533203125,0.0027488325722515583,-0.6151177287101746,-0.7371373772621155
1761507218655121400,0.721121337890625,-0.23532044887542725,-1.0804166793823242,-1.1755701303482056
1761507218675277300,0.74127734375,-0.4753243625164032,-0.7051413059234619,-1.8513253927230835
1761507218695434200,0.761434326171875,-0.5804179310798645,0.8714608550071716,-2.536241292953491
1761507218715590100,0.781590087890625,-0.8494800329208374,2.3324759006500244,-2.7751150131225586
1761507218735746000,0.80174609375,-1.2327243089675903,2.7473204135894775,-2.459019184112549
1761507218755902200,0.821902099609375,-1.4463374614715576,2.3475189208984375,-1.595572829246521
1761507218776058000,0.84205810546875,-1.4836481809616089,1.5791711807250977,-0.7897006273269653
1761507218796214300,0.86221435546875,-1.421378493309021,0.9692251086235046,-0.11006197333335876
1761507218816371200,0.88237109375,-1.3438639640808105,0.5397568941116333,0.2639143168926239
1761507218836527400,0.90252734375,-1.22798490524292,0.39952024817466736,0.3590397238731384
1761507218856683300,0.922683349609375,-1.160190463066101,0.4336688816547394,0.27665266394615173
1761507218876839200,0.942839111328125,-1.1322722434997559,0.4760535955429077,0.18142175674438477
1761507218896995300,0.962995361328125,-1.069919466972351,0.5301759839057922,0.25680920481681824
1761507218917152300,0.98315234375,-0.6408260464668274,0.5428439378738403,0.7371406555175781
1761507218937308400,1.003308349609375,-0.11706040799617767,0.20413464307785034,1.2293908596038818
1761507218957464300,1.02346435546875,0.005432726815342903,-0.600566029548645,1.2857376337051392
1761507218977624300,1.043624267578125,-0.23017063736915588,-1.8031561374664307,1.1707309484481812
1761507218997780200,1.0637802734375,-0.2176000475883484,-2.0376803874969482,1.3229784965515137
1761507219017936100,1.08393603515625,0.15415939688682556,-0.9013478755950928,1.3715213537216187
1761507219038093300,1.10409326171875,0.757063627243042,1.6513445377349854,1.2416378259658813
1761507219058249200,1.124249267578125,1.0598846673965454,4.078267574310303,-0.16855260729789734
1761507219078405400,1.1444052734375,0.8521334528923035,4.277937412261963,-1.810882568359375
1761507219098561300,1.164561279296875,0.6526424288749695,2.243629217147827,-1.4010577201843262
1761507219118717400,1.184717529296875,0.5104232430458069,0.11971640586853027,-0.2573520839214325
1761507219138873300,1.204873291015625,0.23472212255001068,-0.7513782382011414,-0.18167102336883545
1761507219159030300,1.2250302734375,-0.16304273903369904,0.17783600091934204,-1.0656611919403076
1761507219179186400,1.2451865234375,-0.5529580116271973,1.5515352487564087,-1.9145889282226562
1761507219199342300,1.26534228515625,-0.4616638720035553,1.9263767004013062,-1.6628068685531616
1761507219219498500,1.28549853515625,-0.6282033920288086,1.544582724571228,-1.0385932922363281
1761507219239654400,1.305654296875,-0.6706173419952393,0.6657700538635254,-0.6483969688415527
1761507219259811300,1.325811279296875,-0.8130900859832764,0.3440963923931122,-0.9103296995162964
1761507219279967200,1.34596728515625,-0.8419303297996521,0.5721769332885742,-1.4274035692214966
1761507219300123100,1.366123046875,-0.5111871361732483,0.9100688695907593,-1.641929030418396
1761507219320279300,1.386279296875,-0.25652408599853516,1.0933789014816284,-1.47000253200531
1761507219340435200,1.406435302734375,-0.13249260187149048,1.0805654525756836,-0.9326174259185791
1761507219360591400,1.42659130859375,-0.05950557440519333,0.9309763312339783,-0.4405267834663391
1761507219380748300,1.446748291015625,0.22249437868595123,0.4775584936141968,-0.1980069875717163
1761507219400904400,1.466904541015625,0.5623000860214233,-0.1426922082901001,0.02994408644735813
1761507219421060400,1.487060302734375,0.7862719297409058,-0.5813428163528442,0.734199583530426
1761507219441216300,1.50721630859375,1.0105913877487183,-0.8407036662101746,1.530746579170227
1761507219461372400,1.527372314453125,1.2725697755813599,-1.0677543878555298,2.1364758014678955
1761507219481528300,1.5475283203125,1.215514063835144,-1.4752135276794434,2.168067216873169
1761507219501685500,1.567685546875,1.1323755979537964,-1.741480827331543,1.796984076499939
1761507219521841400,1.58784130859375,1.4584643840789795,-1.5591877698898315,1.9088199138641357
1761507219541997300,1.607997314453125,1.6184499263763428,-1.4012075662612915,1.6191325187683105
1761507219562153200,1.6281533203125,1.7459251880645752,-0.9287989735603333,0.8047363758087158
1761507219582309000,1.64830908203125,1.5105626583099365,0.1502557396888733,0.23710933327674866
1761507219602465300,1.66846533203125,1.133479356765747,1.0080606937408447,-0.2790226936340332
1761507219622622200,1.688622314453125,0.735464870929718,1.2671650648117065,-1.0196959972381592
1761507219642778400,1.7087783203125,0.1073271632194519,0.8696120381355286,-1.749524474143982
1761507219662934300,1.728934326171875,-0.3716886639595032,0.04510164633393288,-2.2182860374450684
1761507219683090200,1.749090087890625,-1.0948740243911743,-0.5594563484191895,-2.4357540607452393
1761507219703246300,1.769246337890625,-1.861236333847046,-0.6250319480895996,-2.390873670578003
1761507219723403300,1.7894033203125,-2.087620496749878,-0.3789158761501312,-2.1973886489868164
1761507219743559400,1.809559326171875,-1.6049754619598389,-0.18963585793972015,-1.8958964347839355
1761507219763715300,1.82971533203125,-0.8415852785110474,-0.06356483697891235,-1.7597942352294922
1761507219783871500,1.84987158203125,-0.7933791279792786,0.5726847052574158,-1.5261080265045166
1761507219804027400,1.87002734375,-1.1477043628692627,0.9746028184890747,-1.144087314605713
1761507219824183300,1.890183349609375,-1.1411888599395752,0.7249497175216675,-0.9174988865852356
1761507219844340200,1.91034033203125,-0.8571245670318604,0.2669968008995056,-0.5654795169830322
1761507219864496000,1.93049609375,-0.5443153381347656,-0.14421653747558594,0.057210344821214676
1761507219884652300,1.95065234375,-0.39674112200737,-0.4499157965183258,0.781247079372406
1761507219904808200,1.97080810546875,-0.3761654198169708,-0.7231264114379883,1.1866939067840576
1761507219924964400,1.99096435546875,-0.24399977922439575,-0.8447216749191284,1.420076847076416
1761507219945120300,2.011120361328125,-0.09536674618721008,-1.0563420057296753,1.7622499465942383
1761507219965277400,2.03127734375,-0.056959234178066254,-1.5468171834945679,2.0756752490997314
1761507219985429500,2.051429443359375,-0.3948230743408203,-1.990723729133606,2.389292001724243
1761507220005585700,2.071585693359375,0.20749402046203613,-1.0773439407348633,3.5551254749298096
1761507220025741600,2.091741455078125,1.2061985731124878,0.2726116180419922,3.3082408905029297
1761507220045897500,2.1118974609375,0.9833723306655884,0.2743595242500305,0.026602676138281822
1761507220066054700,2.1320546875,-0.06874717026948929,-0.5551085472106934,-2.5411548614501953
1761507220086210600,2.15221044921875,0.12835225462913513,-0.14186227321624756,-2.3513429164886475
1761507220106366700,2.17236669921875,0.5035675764083862,0.4841725826263428,-1.2204301357269287
1761507220126522600,2.192522705078125,-0.4493579864501953,0.862547755241394,-1.0030229091644287
1761507220146678500,2.212678466796875,-1.8857922554016113,0.12972955405712128,-1.6959782838821411
1761507220166834700,2.232834716796875,-2.5413646697998047,0.08069203048944473,-2.126856565475464
1761507220186991400,2.252991455078125,-2.4299280643463135,0.7146866917610168,-1.9686654806137085
1761507220207147500,2.2731474609375,-1.9350571632385254,0.986194372177124,-1.594339370727539
1761507220227303400,2.293303466796875,-1.458753228187561,0.9397789239883423,-0.9612237215042114
1761507220247459600,2.31345947265625,-1.0906087160110474,0.7432897686958313,-0.24991317093372345
1761507220267615500,2.333615478515625,-0.6035301685333252,0.6306405067443848,0.3359082341194153
1761507220287771400,2.353771484375,-0.182745099067688,0.5513188242912292,0.7433568239212036
1761507220307928600,2.373928466796875,0.03248864412307739,0.3949968218803406,0.8776014447212219
1761507220328084500,2.39408447265625,0.010281842201948166,0.2454739212989807,0.662730872631073
1761507220348240600,2.41424072265625,-0.10686776041984558,0.3339366614818573,0.4066809415817261
1761507220368396500,2.434396484375,-0.0833447128534317,0.5720961689949036,0.44519105553627014
1761507220388552700,2.454552734375,0.07951045036315918,0.5436979532241821,0.6361503601074219
1761507220408709600,2.474709716796875,0.4743289053440094,0.4896014630794525,1.2079731225967407
1761507220428865800,2.49486572265625,1.0497997999191284,0.6168298721313477,1.9946492910385132
1761507220449021700,2.515021728515625,1.3236103057861328,0.663012683391571,1.794546127319336
1761507220469177600,2.535177490234375,1.1834394931793213,0.6616427302360535,1.1572818756103516
1761507220489333500,2.55533349609375,1.2416115999221802,0.4202028214931488,0.6068591475486755
1761507220509490400,2.575490478515625,1.7621698379516602,0.7131145596504211,0.36763444542884827
1761507220529646600,2.595646484375,2.184028387069702,0.6967385411262512,0.6563693284988403
1761507220549802500,2.615802490234375,1.8280240297317505,0.14252376556396484,0.2192777693271637
1761507220569958400,2.63595849609375,1.5075852870941162,0.7249072790145874,0.0434127002954483
1761507220590114600,2.656114501953125,1.6366885900497437,1.5146751403808594,-0.0026280158199369907
1761507220610270500,2.6762705078125,1.5986820459365845,1.8029457330703735,-0.48690974712371826
1761507220630427600,2.696427734375,0.6344602108001709,0.48460349440574646,-1.5295642614364624
1761507220650583600,2.71658349609375,-0.4952870309352875,-1.102820634841919,-2.594832420349121
1761507220670739700,2.73673974609375,-1.0625832080841064,-1.6861673593521118,-3.3207929134368896
1761507220690895600,2.7568955078125,-1.3096920251846313,-1.1384938955307007,-3.5452592372894287
1761507220711051500,2.777051513671875,-1.6482789516448975,0.033073198050260544,-3.064851760864258
1761507220731208400,2.79720849609375,-1.497982382774353,0.626652717590332,-2.1399664878845215
1761507220751364400,2.8173642578125,-0.89532470703125,0.5544806718826294,-0.854051411151886
1761507220771520500,2.8375205078125,-0.3262496888637543,0.48247429728507996,0.4422287344932556
1761507220791676400,2.857676513671875,0.1204894632101059,0.5567626357078552,1.2757905721664429
1761507220811832600,2.87783251953125,0.46316564083099365,0.5497683882713318,1.622779130935669
1761507220831988500,2.897988525390625,0.7352281808853149,0.4138282835483551,1.7375661134719849
1761507220852145700,2.918145751953125,0.7856626510620117,0.28487613797187805,1.7481375932693481
1761507220872301600,2.938301513671875,0.5553414821624756,0.1087273508310318,1.7102359533309937
1761507220892457500,2.95845751953125,0.04213801771402359,-0.11069689691066742,1.6896426677703857
1761507220912613600,2.978613525390625,-0.3756605088710785,-0.4822392761707306,1.5825715065002441
1761507220932769500,2.99876953125,-0.40813544392585754,-0.8904388546943665,1.345913290977478
1761507220952926700,3.0189267578125,-0.2521061301231384,-1.3075629472732544,1.412421464920044
1761507220973082600,3.03908251953125,-0.10449642688035965,-1.593232274055481,1.8087488412857056
1761507220993238500,3.059238525390625,-0.029515091329813004,-2.2720417976379395,1.7819416522979736
1761507221013394700,3.079394775390625,-0.534931480884552,-3.2020347118377686,0.32364165782928467
1761507221033550600,3.099550537109375,-1.7923940420150757,-3.9017436504364014,-2.569659948348999
1761507221053707500,3.11970751953125,-1.3246519565582275,-2.0572221279144287,-4.095406532287598
1761507221073863400,3.139863525390625,0.5101569294929504,1.0354695320129395,-2.646366596221924
1761507221094019600,3.16001953125,1.5343486070632935,1.6764428615570068,-1.0048866271972656
1761507221114175500,3.180175537109375,1.4290037155151367,0.7843547463417053,-0.29733362793922424
1761507221134331400,3.200331298828125,1.0382061004638672,-0.45552539825439453,-0.12785442173480988
1761507221154487600,3.220487548828125,0.694208562374115,-1.3301998376846313,-0.20744168758392334
1761507221174644500,3.24064453125,0.3721843659877777,-1.296829104423523,-0.4654124975204468
1761507221194800600,3.260800537109375,0.12477131187915802,-0.6513183116912842,-0.8207231760025024
1761507221214956500,3.28095654296875,-0.007538875564932823,-0.1411098837852478,-0.8952203989028931
1761507221235112700,3.30111279296875,0.01964331977069378,0.172079399228096,-0.6526517868041992
1761507221255268600,3.3212685546875,0.18652918934822083,0.3436211943626404,-0.18835143744945526
1761507221275425800,3.34142578125,0.4604676365852356,0.5000928044319153,0.1890452802181244
1761507221295581700,3.361581787109375,0.8034846186637878,0.7465423941612244,0.2970479726791382
1761507221315737600,3.381737548828125,1.0042235851287842,0.8610061407089233,0.16837547719478607
1761507221335893500,3.4018935546875,0.9632188677787781,0.7655632495880127,0.056073278188705444
1761507221356049700,3.422049560546875,0.7312085628509521,0.49104252457618713,0.30253690481185913
1761507221376206600,3.44220654296875,0.5388374924659729,-0.07250870019197464,0.6369737386703491
1761507221396362500,3.462362548828125,0.37573543190956116,-0.7710549235343933,0.7770938277244568
1761507221416518400,3.482518310546875,0.31619730591773987,-1.0625149011611938,1.1880881786346436
1761507221436674600,3.502674560546875,0.55325847864151,-0.717257559299469,1.6018952131271362
1761507221456830500,3.52283056640625,0.7773633003234863,-0.36951497197151184,1.3173307180404663
1761507221476986600,3.542986572265625,0.6434182524681091,-0.7434855699539185,1.169307827949524
1761507221497143600,3.5631435546875,0.06037963554263115,-2.0810577869415283,1.2206634283065796
1761507221517299700,3.5832998046875,-0.9675325751304626,-2.897482395172119,1.188703179359436
1761507221537455600,3.60345556640625,-1.0313422679901123,-1.4084534645080566,0.43772879242897034
1761507221557611500,3.623611572265625,-0.44993945956230164,1.438578724861145,-0.43961289525032043
1761507221577767700,3.643767578125,0.13268183171749115,2.820383071899414,-0.4276062846183777
1761507221597924400,3.66392431640625,0.3513033092021942,2.0260162353515625,-0.10050763189792633
1761507221618080500,3.68408056640625,0.2741619050502777,0.1252782642841339,0.14241081476211548
1761507221638236400,3.704236328125,0.10271136462688446,-1.1480915546417236,0.2921689748764038
1761507221658392600,3.724392578125,0.13159193098545074,-1.1926385164260864,0.027246499434113503
1761507221678548500,3.744548583984375,0.18492698669433594,-0.46014004945755005,-0.41759809851646423
1761507221698704400,3.764704345703125,0.033807914704084396,0.27394241094589233,-0.9527478218078613
1761507221718861600,3.784861572265625,-0.10503439605236053,0.4700460731983185,-1.1926594972610474
1761507221739017500,3.805017578125,-0.05775503069162369,0.21291415393352509,-0.7964937686920166
1761507221759173600,3.825173583984375,0.19889694452285767,0.04951947182416916,0.35645127296447754
1761507221779329500,3.84532958984375,0.4389782249927521,0.018384404480457306,1.5988198518753052
1761507221799485700,3.865485595703125,0.7080880999565125,0.010583148337900639,2.1335253715515137
1761507221819642600,3.885642578125,0.7745881676673889,-0.11950278282165527,1.6237812042236328
1761507221839798500,3.905798583984375,0.4445807635784149,-0.2278192788362503,0.6962971091270447
1761507221859954700,3.92595458984375,0.00828170869499445,-0.11999104917049408,0.08800008147954941
1761507221880110600,3.946110595703125,-0.2650288939476013,0.10846233367919922,0.44274869561195374
1761507221900266800,3.966266845703125,-0.007911289110779762,0.39521700143814087,1.141221046447754
1761507221920423400,3.98642333984375,0.539638340473175,0.44955918192863464,1.3398088216781616
1761507221940579600,4.00657958984375,0.4785488545894623,-0.1434047520160675,1.1983892917633057
1761507221960735500,4.026735595703125,-0.3758433759212494,-1.7585563659667969,1.2969285249710083
1761507221980892000,4.046891845703125,-0.888787031173706,-3.2015013694763184,0.7880721688270569
1761507222001047800,4.0670478515625,-1.058190107345581,-2.5721280574798584,0.37728843092918396
1761507222021205000,4.087205078125,-0.16190414130687714,-0.625002920627594,0.15683874487876892
1761507222041361000,4.10736083984375,0.4989769756793976,1.1332087516784668,-0.26536595821380615
1761507222061517000,4.12751708984375,0.5974206328392029,2.1171698570251465,-0.5726072192192078
1761507222081673000,4.1476728515625,0.5933046936988831,2.205885171890259,-0.5663073062896729
1761507222101829000,4.1678291015625,0.34375113248825073,1.775503396987915,-0.5144843459129333
1761507222121985000,4.187985107421875,0.06449941545724869,0.976580798625946,-0.41236987709999084
1761507222142142000,4.208141845703125,-0.2462312877178192,-0.08453390747308731,-0.2980438470840454
1761507222162297900,4.2282978515625,-0.5658954381942749,-0.5908116698265076,-0.41459140181541443
1761507222182453800,4.248453857421875,-0.6062222123146057,0.23754426836967468,-0.6016823053359985
1761507222202610000,4.26860986328125,-0.22709079086780548,1.232171893119812,-0.7566565871238708
1761507222222765800,4.288765869140625,0.24268782138824463,0.9822109937667847,-0.7762539982795715
1761507222242923000,4.308923095703125,0.5157793164253235,0.03959258645772934,-0.48024412989616394
1761507222263079000,4.329078857421875,0.5191184282302856,-0.37800920009613037,-0.06712605804204941
1761507222283234800,4.34923486328125,0.3470364511013031,-0.22220240533351898,-0.09298927336931229
1761507222303391000,4.369390869140625,0.19959308207035065,0.024590684100985527,-0.35901573300361633
1761507222323547000,4.389546875,0.16359540820121765,0.04356357455253601,-0.3922320306301117
1761507222343704000,4.4097041015625,0.0610104501247406,-0.013639478012919426,-0.4320201575756073
1761507222363862000,4.429862060546875,0.01833755150437355,0.09867268055677414,-0.6833962202072144
1761507222384018000,4.450017822265625,0.08309958875179291,0.38784459233283997,-0.8882672786712646
1761507222404173800,4.470173828125,0.18994630873203278,0.6877054572105408,-1.0154263973236084
1761507222424331000,4.4903310546875,0.17384085059165955,0.5185260772705078,-0.8750298619270325
1761507222444487000,4.51048681640625,0.13465580344200134,-0.3619472086429596,-0.6359941363334656
1761507222464643000,4.53064306640625,0.31053823232650757,-0.7689210176467896,-0.1373465657234192
1761507222484799000,4.550799072265625,0.28901323676109314,-1.010648488998413,0.20047125220298767
1761507222504955100,4.570955078125,0.2851059138774872,-1.5332839488983154,-0.24113132059574127
1761507222525111800,4.59111181640625,0.49878111481666565,-1.5651401281356812,-0.821869432926178
1761507222545268000,4.61126806640625,0.6636834144592285,-0.7231753468513489,-0.7869781851768494
1761507222565423900,4.631423828125,0.9260880351066589,-0.4292396306991577,-0.6684715747833252
1761507222585579800,4.651579833984375,0.6554693579673767,-0.5506348609924316,-0.9978559017181396
1761507222605736000,4.67173583984375,0.11800821870565414,-0.9545335173606873,-1.268813133239746
1761507222625891800,4.691891845703125,0.12246063351631165,-1.3646315336227417,-1.1084263324737549
1761507222646049000,4.712049072265625,1.077246904373169,-1.3330228328704834,-0.7550697922706604
1761507222666205000,4.732204833984375,1.0831758975982666,-0.31306251883506775,-1.1606725454330444
1761507222686360800,4.75236083984375,-0.01724271848797798,0.6353828310966492,-1.583564281463623
1761507222706517000,4.77251708984375,-0.665396511554718,0.7620294094085693,-0.9733070135116577
1761507222726673000,4.7926728515625,-0.41823428869247437,0.1708318442106247,0.38527366518974304
1761507222746830000,4.812830078125,0.002937423065304756,-0.6946967244148254,1.4147032499313354
1761507222766986000,4.832986083984375,0.34018293023109436,-0.9422619938850403,1.5192742347717285
1761507222787142100,4.85314208984375,0.31389784812927246,-0.3619270920753479,0.6979900002479553
1761507222807298000,4.873298095703125,-0.05849778652191162,0.606121838092804,-0.3338632881641388
1761507222827454000,4.893453857421875,-0.2565569579601288,1.1955918073654175,-0.45800986886024475
1761507222847611000,4.91361083984375,-0.2283557802438736,1.073042869567871,0.13684386014938354
1761507222867766800,4.933766845703125,-0.10826299339532852,0.497413694858551,0.8326975107192993
1761507222887923000,4.9539228515625,-0.15075474977493286,0.06741415709257126,1.2674100399017334
1761507222908078800,4.974078857421875,-0.3374984860420227,0.033027440309524536,1.4982407093048096
1761507222928235000,4.994235107421875,-0.28530973196029663,0.09968505799770355,1.7510097026824951
1761507222948391000,5.014390869140625,0.2161039412021637,-0.04473785310983658,1.9623863697052002
1761507222968548000,5.034548095703125,0.565247654914856,-0.08026589453220367,0.9653948545455933
1761507222988703200,5.054703125,0.19668811559677124,-0.19507966935634613,-1.2111806869506836
1761507223008859400,5.074859375,-0.17593762278556824,-0.46228423714637756,-2.4971158504486084
1761507223029015300,5.095015380859375,0.26732683181762695,-0.40031513571739197,-2.0516879558563232
1761507223049171500,5.11517138671875,0.6394436955451965,0.15561284124851227,-1.52753484249115
1761507223069328400,5.135328369140625,0.8050103783607483,0.9109360575675964,-1.1984248161315918
1761507223089484500,5.155484619140625,0.9992420673370361,1.2339369058609009,-0.9226120114326477
1761507223109640400,5.175640380859375,0.9990164637565613,0.688077449798584,-0.8394559025764465
1761507223129796400,5.19579638671875,0.694323718547821,-0.29375025629997253,-0.7743592262268066
1761507223149952500,5.215952392578125,0.3099459707736969,-1.1725611686706543,-0.7196740508079529
1761507223170108400,5.2361083984375,-0.08248084038496017,-1.1217284202575684,-0.8154014945030212
1761507223190265300,5.256265380859375,-0.6920093297958374,-0.23811611533164978,-1.2041064500808716
1761507223210421200,5.276421142578125,-1.2277201414108276,0.6008760333061218,-1.4533090591430664
1761507223230577400,5.296577392578125,-1.1243438720703125,0.6692091822624207,-1.1788629293441772
1761507223250733300,5.3167333984375,-0.6430387496948242,0.31467553973197937,-0.3409501612186432
1761507223270889200,5.33688916015625,-0.05765407159924507,0.06048911064863205,0.7687523365020752
1761507223291046400,5.35704638671875,0.599358320236206,-0.019548187032341957,1.5786123275756836
1761507223311202300,5.377202392578125,0.6831465363502502,0.28932589292526245,1.4875402450561523
1761507223331358500,5.3973583984375,0.3702099025249481,0.9697845578193665,0.7534137964248657
1761507223351514400,5.417514404296875,-0.2935712933540344,1.2697447538375854,0.10170885175466537
1761507223371670300,5.437670166015625,-0.5599086880683899,0.9761236906051636,0.6009984016418457
1761507223391827500,5.457827392578125,-0.31010159850120544,0.4877900183200836,1.6332359313964844
1761507223411983400,5.4779833984375,-0.07146957516670227,0.406332403421402,2.178457736968994
1761507223432139500,5.498139404296875,-0.17082272469997406,0.5693655014038086,2.3796446323394775
1761507223452295400,5.51829541015625,-0.5467765927314758,0.21539455652236938,2.67630934715271
1761507223472451300,5.538451416015625,-0.8892042636871338,-0.41627252101898193,3.2187981605529785
1761507223492607200,5.558607177734375,-0.7596665620803833,-0.49488365650177,3.5928869247436523
1761507223512764400,5.578764404296875,-0.8568655848503113,-0.48857036232948303,2.2564427852630615
1761507223532920300,5.59892041015625,-0.868849515914917,0.10241001844406128,0.1313733607530594
1761507223553076200,5.619076171875,-0.26457634568214417,0.9530410170555115,-1.1899493932724
1761507223573232400,5.639232421875,0.6695343852043152,1.71547532081604,-1.0150870084762573
1761507223593388300,5.65938818359375,0.9567325711250305,1.557743787765503,-0.5829795598983765
1761507223613545500,5.67954541015625,0.6642659902572632,0.48636284470558167,-1.0111112594604492
1761507223633701400,5.699701416015625,0.437761127948761,0.02714618854224682,-1.7007687091827393
1761507223653857500,5.719857421875,0.4664713442325592,0.32507696747779846,-1.9395527839660645
1761507223674013400,5.740013427734375,0.6639430522918701,0.38177162408828735,-1.424514651298523
1761507223694169300,5.76016943359375,0.6319887638092041,0.07124312222003937,-0.5260753035545349
1761507223714325500,5.780325439453125,0.36788037419319153,-0.24988889694213867,0.3814168870449066
1761507223734482200,5.800482177734375,0.15610980987548828,-0.3661356568336487,1.049760341644287
1761507223754638300,5.820638427734375,0.1559891551733017,-0.13518700003623962,1.5235017538070679
1761507223774794200,5.840794189453125,0.20360355079174042,0.23568283021450043,1.6550524234771729
1761507223794950100,5.8609501953125,0.1967211365699768,0.521881103515625,1.4931869506835938
1761507223815106300,5.881106201171875,-0.030089689418673515,0.6304075717926025,1.052943229675293
1761507223835263200,5.90126318359375,-0.337284117937088,0.5566998720169067,0.469981849193573
1761507223855419400,5.92141943359375,-0.6121678948402405,0.4285132586956024,0.0548371747136116
1761507223875575300,5.9415751953125,-0.7833287715911865,0.09652692824602127,0.1403820812702179
1761507223895731500,5.9617314453125,-0.7533310651779175,-0.21593298017978668,0.5129486322402954
1761507223915887400,5.981887451171875,-0.5899627804756165,-0.6685322523117065,0.8371809124946594
1761507223936044500,6.00204443359375,-0.5591175556182861,-1.4585130214691162,1.3618978261947632
1761507223956200400,6.022200439453125,-0.36496561765670776,-2.1835403442382812,2.2690670490264893
1761507223976356400,6.0423564453125,0.3697364330291748,-2.5640246868133545,2.0457749366760254
1761507223996511700,6.06251171875,1.0040977001190186,-2.015317678451538,-0.13156138360500336
1761507224016668000,6.08266796875,0.9119207859039307,-1.2017338275909424,-2.38458251953125
1761507224036823800,6.10282373046875,0.6747459769248962,-0.9543735980987549,-3.3924779891967773
1761507224056980700,6.122980712890625,0.45461076498031616,-0.5067905783653259,-3.0526068210601807
1761507224077136600,6.14313671875,0.3308953046798706,0.17341327667236328,-1.6691014766693115
1761507224097292800,6.163292724609375,0.24787776172161102,0.15511810779571533,-0.03464950993657112
1761507224117448700,6.18344873046875,0.06279022246599197,-0.4055921733379364,1.309011459350586
1761507224137604600,6.2036044921875,-0.07267002761363983,-1.0451891422271729,1.9672316312789917
1761507224157761800,6.22376171875,0.14279621839523315,-0.7432956695556641,1.8949757814407349
1761507224177917700,6.243917724609375,0.28907617926597595,0.14627107977867126,1.308833122253418
1761507224198073900,6.264073974609375,0.03278819099068642,0.8491963744163513,0.40565237402915955
1761507224218229800,6.284229736328125,-0.2655051052570343,1.289203405380249,-0.1942969113588333
1761507224238386000,6.304385986328125,-0.4810839593410492,1.4588388204574585,-0.227674201130867
1761507224258542800,6.32454296875,-0.5275138020515442,1.3083783388137817,0.2815708816051483
1761507224278699000,6.344698974609375,-0.361931711435318,0.8893210887908936,1.3703763484954834
1761507224298855000,6.36485498046875,-0.2090109884738922,0.47411617636680603,2.342895030975342
1761507224319010800,6.3850107421875,-0.3094730079174042,0.09155656397342682,2.5646963119506836
1761507224339167000,6.4051669921875,-0.6316905617713928,-0.262111634016037,2.0326480865478516
1761507224359323000,6.425322998046875,-0.740828812122345,-0.1413918137550354,1.717200756072998
1761507224379479800,6.445479736328125,-0.6452839970588684,0.26050204038619995,1.7898800373077393
1761507224399635700,6.4656357421875,-0.3524278998374939,0.36433523893356323,1.8195639848709106
1761507224419791600,6.48579150390625,-0.06659891456365585,0.12141389399766922,1.1662240028381348
1761507224439947800,6.50594775390625,-0.08289597183465958,0.024660786613821983,0.03588370978832245
1761507224460103700,6.526103759765625,-0.4075809717178345,-0.2699136734008789,-0.4147427976131439
1761507224480260900,6.5462607421875,-1.0742119550704956,-0.9494538307189941,-0.8426198363304138
1761507224500416800,6.566416748046875,-1.2450535297393799,-1.3467519283294678,-1.3164037466049194
1761507224520573000,6.586572998046875,-0.8188562393188477,-1.1096091270446777,-1.8090639114379883
1761507224540728800,6.606728759765625,0.10841530561447144,-0.36874547600746155,-2.3550631999969482
1761507224560884700,6.626884765625,0.9372323155403137,0.42062970995903015,-2.338644504547119
1761507224581042000,6.6470419921875,1.1901845932006836,0.470137357711792,-2.2569398880004883
1761507224601197800,6.66719775390625,0.8504145741462708,-0.0265660397708416,-2.3502233028411865
1761507224621354000,6.68735400390625,0.23478928208351135,-0.19469235837459564,-2.6242542266845703
1761507224641510000,6.707510009765625,-0.39117661118507385,0.20160150527954102,-2.819976568222046
1761507224661665800,6.727665771484375,-0.6509951949119568,0.45220357179641724,-2.7718563079833984
1761507224681821700,6.74782177734375,-0.44464927911758423,0.08473578095436096,-2.4447290897369385
1761507224701979000,6.767978759765625,-0.1643870770931244,-0.01988738588988781,-1.4752731323242188
1761507224722134800,6.788134765625,-0.016970770433545113,-0.013183137401938438,-0.20625309646129608
1761507224742290700,6.808290771484375,0.05225428566336632,-0.07023318856954575,0.680785059928894
1761507224762446800,6.82844677734375,0.09262782335281372,-0.13654659688472748,1.1060466766357422
1761507224782602800,6.848602783203125,0.03912710025906563,-0.1395750492811203,0.9982945919036865
1761507224802760000,6.868760009765625,0.00347097497433424,0.04346286132931709,0.7742010951042175
1761507224822915800,6.888915771484375,-0.06154673919081688,0.19828027486801147,0.624085009098053
1761507224843071700,6.90907177734375,-0.21403169631958008,0.11530282348394394,0.6766917109489441
1761507224863228000,6.929227783203125,-0.3769116997718811,-0.06838738173246384,0.9806632995605469
1761507224883383800,6.9493837890625,-0.5013110041618347,-0.3641519248485565,1.142396330833435
1761507224903540700,6.969540771484375,-0.5198069214820862,-0.6484104990959167,1.0634465217590332
1761507224923696600,6.989696533203125,-0.29191163182258606,-0.6583852767944336,0.9842956066131592
1761507224943852800,7.009852783203125,-0.17168791592121124,-0.5820778012275696,0.6431826949119568
1761507224964008700,7.0300087890625,-0.35096275806427,-0.2664600610733032,0.14460186660289764
1761507224984165600,7.05016552734375,-0.4693508446216583,0.38657528162002563,-0.006164591293781996
1761507225004321500,7.070321533203125,-0.07009908556938171,0.8584124445915222,0.01899954117834568
1761507225024478700,7.090478759765625,0.43210145831108093,0.5370932221412659,-0.7530673742294312
1761507225044634600,7.110634521484375,0.6792272925376892,0.5910364389419556,-1.0930100679397583
1761507225064790800,7.130790771484375,0.9785591959953308,0.7355279922485352,-0.6448796391487122
1761507225084946700,7.15094677734375,1.1024229526519775,0.4968504309654236,-0.34197840094566345
1761507225105102800,7.171102783203125,0.8811572790145874,-0.06787434220314026,-0.43813470005989075
1761507225125259500,7.191259521484375,0.6011719703674316,-0.5729129910469055,-0.6451025009155273
1761507225145415700,7.211415771484375,0.4656480550765991,-0.4657367765903473,-0.8675204515457153
1761507225165571600,7.231571533203125,0.29282426834106445,0.08917310833930969,-1.1431589126586914
1761507225185727500,7.2517275390625,0.09448985010385513,0.5212106704711914,-1.3093175888061523
1761507225205883600,7.271883544921875,0.05389127880334854,0.6637346744537354,-1.1061642169952393
1761507225226040600,7.29204052734375,0.2050296813249588,0.4989842474460602,-0.4813612699508667
1761507225246196700,7.31219677734375,0.2929571270942688,0.16889505088329315,0.226251021027565
1761507225266352600,7.3323525390625,0.30525529384613037,-0.012606864795088768,0.7622326612472534
1761507225286508800,7.3525087890625,0.23329511284828186,-0.01762429066002369,1.073646068572998
1761507225306664700,7.372664794921875,0.1014719307422638,-0.04095233976840973,1.0937403440475464
1761507225326820600,7.392820556640625,-0.044242169708013535,-0.19014078378677368,1.0469709634780884
1761507225346977800,7.412977783203125,-0.23819823563098907,-0.3450740575790405,1.1970024108886719
1761507225367133700,7.4331337890625,-0.38982513546943665,-0.4717722237110138,1.3093816041946411
1761507225387289900,7.453289794921875,-0.3260061740875244,-0.4680326282978058,1.2505223751068115
1761507225407445800,7.47344580078125,-0.18084268271923065,-0.14972639083862305,0.8553142547607422
1761507225427601700,7.4936015625,0.025146927684545517,0.19246532022953033,0.45375603437423706
1761507225447758600,7.513758544921875,0.1795082688331604,-0.2982817590236664,-0.2429032027721405
1761507225467914500,7.53391455078125,0.18878360092639923,-0.9772397875785828,-1.202548623085022
1761507225488070700,7.554070556640625,-0.23585157096385956,-1.8469713926315308,-1.4894603490829468
1761507225508226600,7.5742265625,-0.5062453150749207,-2.385746479034424,-1.8218228816986084
1761507225528382700,7.5943828125,0.3645949065685272,0.8467833399772644,-2.0709478855133057
1761507225548538600,7.61453857421875,1.1744554042816162,2.67372465133667,-1.2009212970733643
1761507225568695800,7.63469580078125,1.1406805515289307,1.8943085670471191,-0.44218844175338745
1761507225588851700,7.654851806640625,0.7103016376495361,-0.40833932161331177,0.11929764598608017
1761507225609007600,7.675007568359375,0.5150299072265625,-2.2770705223083496,0.6228820085525513
1761507225629163800,7.695163818359375,0.5163078904151917,-2.4045684337615967,0.5632743835449219
1761507225649319700,7.715319580078125,0.5291107892990112,-1.0171830654144287,-0.344242662191391
1761507225669476900,7.735476806640625,0.30841341614723206,0.6300495862960815,-1.384067177772522
1761507225689632800,7.7556328125,0.2596607804298401,1.52070951461792,-1.6863840818405151
1761507225709788700,7.77578857421875,0.354717493057251,1.8109347820281982,-1.1347556114196777
1761507225729944800,7.79594482421875,0.3212578594684601,1.725723147392273,-0.22129487991333008
1761507225750100700,7.816100830078125,0.20029331743717194,1.3010444641113281,0.6152656078338623
1761507225770257700,7.836257568359375,0.08541521430015564,0.750311017036438,1.01674485206604
1761507225790413600,7.85641357421875,0.05159706622362137,0.15931165218353271,1.0277212858200073
1761507225810569700,7.87656982421875,0.029378818348050117,-0.29270288348197937,0.9261179566383362
1761507225830725600,7.8967255859375,0.08401782065629959,-0.43271592259407043,0.9773786664009094
1761507225850881500,7.916881591796875,0.18173377215862274,-0.3710501790046692,0.9344263672828674
1761507225871038700,7.937038818359375,0.21176496148109436,-0.276272714138031,1.1801508665084839
1761507225891194600,7.957194580078125,0.31313544511795044,-0.39636731147766113,1.278078317642212
1761507225911350800,7.977350830078125,0.47474026679992676,-0.7590079307556152,1.0094794034957886
1761507225931506700,7.997506591796875,0.7911235690116882,-1.4442229270935059,0.739298403263092
1761507225951660500,8.01766064453125,0.8912349343299866,-2.158259391784668,0.5719583034515381
1761507225971816700,8.037816650390624,-0.4482966959476471,-3.0555124282836914,-0.5773550868034363
1761507225991972000,8.05797216796875,-1.361257791519165,-2.2190380096435547,-1.6412419080734253
1761507226012129000,8.07812890625,-0.5034491419792175,-0.11751866340637207,-0.6962648034095764
1761507226032285000,8.098284912109374,0.46190470457077026,-0.31279101967811584,0.7251757383346558
1761507226052441000,8.118441162109375,0.09233082830905914,0.8267673850059509,0.6644818782806396
1761507226072597000,8.138596923828125,0.23784510791301727,1.3656729459762573,-0.417512983083725
1761507226092753200,8.158753173828124,-0.03546250984072685,1.250178575515747,-0.5956813097000122
1761507226112910000,8.17891015625,-0.4619702398777008,0.2888997793197632,-0.392595499753952
1761507226133066200,8.199066162109375,-0.6644250154495239,-0.14213211834430695,-0.04563803970813751
1761507226153222100,8.21922216796875,-0.498570054769516,-0.02099190466105938,0.3482630252838135
1761507226173378000,8.2393779296875,-0.2258196324110031,0.1840832233428955,0.48390090465545654
1761507226193534200,8.2595341796875,-0.017578642815351486,0.33736538887023926,0.2480797916650772
1761507226213690000,8.279690185546874,0.1808360517024994,0.4518848955631256,-0.15000662207603455
1761507226233847000,8.299846923828126,0.3367174565792084,0.49932411313056946,-0.5152516961097717
1761507226254003000,8.3200029296875,0.4056158661842346,0.2359343022108078,-0.5364577770233154
1761507226274158800,8.340158935546874,0.24257388710975647,-0.23155932128429413,-0.5262919068336487
1761507226294315000,8.36031494140625,-0.023455848917365074,-0.4003003239631653,-0.778753399848938
1761507226314471000,8.380470947265625,-0.13664208352565765,-0.5283024311065674,-0.8311352729797363
1761507226334628000,8.400628173828125,-0.24614623188972473,-0.33363857865333557,-0.6424343585968018
1761507226354784000,8.420783935546876,-0.19371865689754486,-0.38495323061943054,-0.3363863229751587
1761507226374942000,8.44094189453125,0.1576070487499237,-0.8648177981376648,0.18783362209796906
1761507226395097900,8.461097900390625,0.6376638412475586,-1.1997379064559937,0.4579266607761383
1761507226415255000,8.481255126953124,0.8383476138114929,-0.973310112953186,0.7361018061637878
1761507226435411000,8.501410888671876,0.6110352277755737,-0.5265987515449524,0.7027612924575806
1761507226455567000,8.521567138671875,0.0782502070069313,-0.17861686646938324,0.48270851373672485
1761507226475723000,8.541722900390624,-0.014932239428162575,0.18307660520076752,-0.4674489200115204
1761507226495879200,8.561879150390626,0.11236903816461563,1.1738938093185425,-0.40769699215888977
1761507226516036000,8.5820361328125,0.6122385263442993,1.305425763130188,0.13825953006744385
1761507226536192300,8.602192138671874,0.5935825705528259,0.6657308340072632,0.3030513525009155
1761507226556348200,8.62234814453125,0.2289389818906784,-0.032464709132909775,-0.14791153371334076
1761507226576504000,8.642504150390625,-0.06880418211221695,-0.2517906725406647,-0.6983010172843933
1761507226596660200,8.66266015625,-0.14229950308799744,0.23538996279239655,-0.40701669454574585
1761507226616817000,8.68281689453125,0.22377146780490875,-0.06044219806790352,0.5834540724754333
1761507226636973000,8.70297314453125,0.4740876257419586,-0.26220595836639404,1.098264455795288
1761507226657129000,8.72312890625,0.47074851393699646,0.013030733913183212,0.5381219983100891
1761507226677284900,8.743284912109376,0.45275184512138367,0.5969641804695129,-0.3339082598686218
1761507226697441000,8.76344091796875,0.513948380947113,1.2509315013885498,-0.7803402543067932
1761507226717597000,8.783596923828124,0.6495043635368347,1.4822421073913574,-0.8364937901496887
1761507226737754000,8.803754150390626,0.5997183918952942,0.7037601470947266,-0.5183601379394531
1761507226757910000,8.823909912109375,-0.29581281542778015,-0.4002956748008728,-0.15921221673488617
1761507226778066200,8.844066162109375,-0.5363972783088684,-0.06745002418756485,-0.17672742903232574
1761507226798222000,8.86422216796875,-0.39810195565223694,0.8284836411476135,-0.33932140469551086
1761507226818378000,8.8843779296875,-0.1329941749572754,1.4442566633224487,-0.6008743643760681
1761507226838535200,8.90453515625,-0.004825332202017307,1.5872652530670166,-0.6617946624755859
1761507226858691000,8.924691162109376,0.29770275950431824,1.1323587894439697,-0.01916327141225338
1761507226878847200,8.94484716796875,0.574074387550354,-0.17553621530532837,1.1316250562667847
1761507226899003100,8.965003173828125,0.47012758255004883,-1.7814891338348389,1.9706403017044067
1761507226919159300,8.9851591796875,0.3120943605899811,-1.9111562967300415,1.6815193891525269
1761507226939316000,9.00531591796875,0.004144488368183374,-1.5790070295333862,0.22095786035060883
1761507226959472000,9.02547216796875,-2.174976110458374,0.6366839408874512,-2.0271592140197754
1761507226979628000,9.0456279296875,-1.5035821199417114,1.583219051361084,-1.6061006784439087
1761507226999788500,9.06578857421875,-0.7686762809753418,1.5726022720336914,-0.02857816219329834
1761507227019944400,9.0859443359375,-0.6838203072547913,0.2570870518684387,2.070086717605591
1761507227040101600,9.1061015625,-0.8400961756706238,-0.7198156118392944,2.7081193923950195
1761507227060257500,9.126257568359375,-0.8341989517211914,-1.2711491584777832,2.276906728744507
1761507227080413400,9.146413330078126,-0.559812605381012,-1.1033892631530762,1.8949542045593262
1761507227100569600,9.166569580078125,-0.1246206983923912,-0.6104564666748047,1.4847919940948486
1761507227120725500,9.1867255859375,0.33706551790237427,0.043324440717697144,0.9605362415313721
1761507227140882400,9.20688232421875,0.5835838913917542,0.21387380361557007,0.5439497232437134
1761507227161038300,9.227038330078125,0.5686966180801392,-0.009328024461865425,0.2965708374977112
1761507227181194500,9.247194580078125,0.41897913813591003,-0.2170911282300949,0.2423950731754303
1761507227201350400,9.267350341796876,0.25127869844436646,-0.3227999210357666,0.28872916102409363
1761507227221506300,9.28750634765625,0.09127016365528107,-0.4245705306529999,0.22817803919315338
1761507227241662500,9.307662353515624,-0.018193988129496574,-0.30983254313468933,0.006731776520609856
1761507227261819400,9.3278193359375,0.01133733056485653,0.024084551259875298,-0.22559306025505066
1761507227281975600,9.3479755859375,0.08476506918668747,0.5185425877571106,-0.49300965666770935
1761507227302131500,9.36813134765625,0.2286739945411682,0.7849204540252686,-0.45264455676078796
1761507227322287600,9.38828759765625,0.3518460690975189,0.420715868473053,-0.17656072974205017
1761507227342443500,9.408443603515625,0.546881914138794,-0.29420006275177,0.03921663388609886
1761507227362600400,9.428600341796875,0.4183368980884552,-0.6695970892906189,0.1068800762295723
1761507227382756400,9.44875634765625,-0.09226053953170776,-0.4198800325393677,0.14485777914524078
1761507227402912300,9.468912353515625,-0.4382862150669098,0.7296529412269592,-0.031040532514452934
1761507227423068400,9.489068359375,-0.4760700464248657,1.068534255027771,-0.8649962544441223
1761507227443224300,9.509224365234376,-0.5169662833213806,0.2626756727695465,-1.8863362073898315
1761507227463381500,9.529381591796875,-0.21663551032543182,0.7110517024993896,-1.9333440065383911
1761507227483537400,9.549537353515625,0.2036745846271515,1.174836277961731,-1.598496913909912
1761507227503693300,9.569693359375,-0.05073872581124306,0.5535376071929932,-1.336004614830017
1761507227523849500,9.589849365234375,-0.6682283282279968,-0.16746196150779724,-1.4722729921340942
1761507227544005400,9.61000537109375,-0.8872165083885193,-0.71055668592453,-1.5941270589828491
1761507227564161500,9.63016162109375,-0.7323404550552368,-0.7047600746154785,-1.389671802520752
1761507227584318500,9.650318359375,-0.3987506926059723,-0.32683584094047546,-1.0931744575500488
1761507227604474600,9.670474609375,-0.0396750308573246,0.1365514099597931,-0.9119663238525391
1761507227624630500,9.690630615234374,0.16457310318946838,0.43647491931915283,-0.6187571287155151
1761507227644786400,9.710786376953125,0.23416592180728912,0.4091579020023346,-0.20787891745567322
1761507227664942600,9.730942626953125,0.19959373772144318,0.2555173933506012,0.10879050195217133
1761507227685099300,9.751099365234374,0.164316326379776,0.06649232655763626,0.42515042424201965
1761507227705255400,9.77125537109375,0.09638607501983643,-0.22165191173553467,0.8755279779434204
1761507227725411300,9.791411376953125,-0.0813954547047615,-0.4488256871700287,1.2285430431365967
1761507227745567500,9.8115673828125,-0.21413548290729523,-0.5896306037902832,1.4710463285446167
1761507227765723400,9.831723388671875,-0.18494606018066406,-0.45012181997299194,1.4924575090408325
1761507227785880300,9.85188037109375,0.09519535303115845,-0.2137155532836914,1.3948025703430176
1761507227806036500,9.872036376953124,0.39989420771598816,-0.3198402523994446,1.3683457374572754
1761507227826192400,9.8921923828125,0.6512179970741272,-0.9652615189552307,1.3217494487762451
1761507227846348500,9.9123486328125,0.4520449936389923,-0.9820832014083862,0.5356999635696411
1761507227866504400,9.93250439453125,0.027430083602666855,0.024781975895166397,0.035249438136816025
1761507227886661600,9.95266162109375,-0.42360663414001465,0.9183379411697388,0.45297476649284363
1761507227906817500,9.972817626953125,-0.4196634888648987,0.4399704039096832,0.25045937299728394
1761507227926973400,9.992973388671874,-0.2290026843547821,-0.35874322056770325,0.43230125308036804
1761507227947129600,10.013129638671876,-0.0005018236115574837,-0.13352471590042114,0.9235865473747253
1761507227967285500,10.033285400390625,-0.05828163027763367,-0.3349764943122864,0.6653437614440918
1761507227987442200,10.053442138671874,-0.30375179648399353,-0.7757784128189087,-0.050356414169073105
1761507228007598000,10.07359814453125,-0.24271905422210693,-0.4936578869819641,-0.5516029000282288
1761507228027754200,10.093754150390625,-0.15333972871303558,0.045950405299663544,-0.6012906432151794
1761507228047910100,10.11391015625,-0.2508569061756134,0.2967228293418884,-0.3494427800178528
1761507228068066000,10.134066162109375,-0.11252053081989288,0.34926140308380127,0.18853707611560822
1761507228088222200,10.15422216796875,0.2201143056154251,0.2869485914707184,0.7069660425186157
1761507228108379100,10.174379150390624,0.5312144160270691,0.0971468910574913,0.9848273992538452
1761507228128535300,10.194535400390626,0.5037021636962891,-0.005607539787888527,0.9333909749984741
1761507228148691200,10.214691162109375,0.27641594409942627,-0.04626787081360817,0.6999760866165161
1761507228168847000,10.23484716796875,0.11381416022777557,-0.16205473244190216,0.501926600933075
1761507228189003300,10.255003173828126,-0.030740860849618912,-0.13912314176559448,0.2722061574459076
1761507228209160200,10.27516015625,-0.03698969632387161,0.0854378491640091,-0.09620913863182068
1761507228229316400,10.29531640625,0.0859764963388443,0.19847077131271362,-0.14041021466255188
1761507228249472300,10.31547216796875,0.3699480891227722,0.13685114681720734,0.18994444608688354
1761507228269628200,10.335628173828125,0.8771091103553772,0.12599754333496094,0.7565637826919556
1761507228289784300,10.355784423828124,1.0876604318618774,-0.08520691841840744,0.9506642818450928
1761507228309941200,10.375941162109376,0.5244417786598206,-0.44728541374206543,0.6812954545021057
1761507228330097200,10.39609716796875,0.043062470853328705,-0.46523502469062805,0.91941899061203
1761507228350253000,10.416253173828125,-0.021539248526096344,0.360834002494812,1.287873387336731
1761507228370409200,10.4364091796875,-0.3391305208206177,0.513197660446167,0.7820535898208618
1761507228390565000,10.456565185546875,-0.47967803478240967,-0.02717030979692936,-0.5018040537834167
1761507228410721300,10.47672119140625,-0.3652367889881134,0.32942724227905273,-0.3935334086418152
1761507228430878200,10.496878173828126,-0.34456923604011536,0.14907999336719513,0.24089984595775604
1761507228451034400,10.517034423828125,-0.406619131565094,-0.2592540979385376,0.06777355819940567
1761507228471190300,10.537190185546875,-0.4000687301158905,-0.3600596487522125,-0.5348690152168274
1761507228491346200,10.55734619140625,-0.39473116397857666,-0.19888880848884583,-0.6876264214515686
1761507228511502300,10.57750244140625,-0.30935347080230713,-0.04703768342733383,-0.28740638494491577
1761507228531659000,10.597658935546875,-0.14521941542625427,0.01941896602511406,0.1263965666294098
1761507228551815200,10.617815185546876,-0.0891648456454277,-0.06747375428676605,0.3819746673107147
1761507228571971000,10.63797119140625,0.06455221772193909,-0.22305692732334137,0.785019040107727
1761507228592127000,10.658126953125,0.17423012852668762,-0.20999246835708618,1.078323483467102
1761507228612283100,10.678283203125,0.11884820461273193,-0.10033562034368515,1.0885295867919922
1761507228632440000,10.698440185546875,0.013800092972815037,-0.17653734982013702,1.0445826053619385
1761507228652596200,10.71859619140625,-0.1695292592048645,-0.44037675857543945,0.99746173620224
1761507228672752000,10.738752197265624,-0.2693571448326111,-0.48758792877197266,0.8949307799339294
1761507228692908300,10.758908203125,-0.20967580378055573,0.022914711385965347,0.6645477414131165
1761507228713064200,10.779064208984375,0.05569534748792648,0.5738725066184998,0.3590264618396759
1761507228733221400,10.799221435546874,0.4407636225223541,0.6267073750495911,0.21863849461078644
1761507228753377300,10.819377197265625,0.6892675161361694,0.45012763142585754,0.1756327748298645
1761507228773533200,10.839533203125,0.706778883934021,0.12201997637748718,0.7128458619117737
1761507228793689300,10.859689453125,0.37706324458122253,0.08409872651100159,1.27018404006958
1761507228813845200,10.87984521484375,0.10962439328432083,-0.190766379237175,1.277605414390564
1761507228834001400,10.90000146484375,-0.01652556285262108,-0.6625078916549683,0.909272313117981
1761507228854158000,10.920157958984374,-0.20606167614459991,-0.8489733934402466,0.066860131919384
1761507228874314200,10.940314208984375,-0.2477191686630249,-0.18335004150867462,-0.7851313948631287
1761507228894470100,10.96047021484375,-0.34309351444244385,0.33846142888069153,-0.5921769738197327
1761507228914626000,10.9806259765625,-0.16957485675811768,0.05552603676915169,-0.19327907264232635
1761507228934782200,11.0007822265625,-0.009050829336047173,-0.3948476314544678,-0.293181449174881
1761507228954939100,11.020939208984375,-0.07646884024143219,-0.10355067253112793,-0.7574277520179749
1761507228975095300,11.04109521484375,-0.11195015162229538,0.4557644724845886,-0.7765594720840454
1761507228995251500,11.06125146484375,-0.05403588339686394,0.6759753227233887,-0.5201661586761475
