time,seconds_elapsed,z,y,x
1761507818260541700,0.078541748046875,-0.1255138008505106,-0.029314151793695054,0.02214662108477205
1761507818280696600,0.098696533203125,-0.10604688383638858,-0.05606390559263527,0.017755071594938634
1761507818300852700,0.118852783203125,-0.2238905884504318,-0.03598750577750615,0.04027911115735769
1761507818321007600,0.139007568359375,-0.06748422120809555,-0.003998225623578764,0.04532780938167125
1761507818341163500,0.15916357421875,-0.07973638453781605,-0.0728099508420797,0.05347056463118642
1761507818361319000,0.17931884765625,-0.1726309413343668,0.022960590649046934,0.07293178255688398
1761507818381474800,0.199474853515625,0.055578094837069505,-0.004146073129051364,0.021987886859104036
1761507818401630700,0.219630615234375,-0.06641103901863098,-0.05635499292712193,-0.006115048814192414
1761507818421785900,0.239785888671875,-0.02801321156322956,0.07137073465208522,-0.015257080766744912
1761507818441941800,0.259941650390625,-0.08486147246658801,-0.07335050115929916,0.01787405833210796
1761507818462096600,0.2800966796875,-0.11081541341245174,-0.001486845590849407,0.054683228356577455
1761507818482252500,0.30025244140625,-0.08385083411931991,-0.046228201420651746,0.0708768958536908
1761507818502408700,0.32040869140625,-0.003207271608710289,-0.06290556078148074,0.027955855352804062
1761507818522563600,0.3405634765625,-0.06994213575422763,-0.024046408557798712,0.0013921484781429171
1761507818542719500,0.360719482421875,0.03618015140593052,-0.03460237156203948,0.024577684156596658
1761507818562875000,0.380875,-0.017419336834549902,-0.04027117444607429,0.03787837015856057
1761507818583030800,0.40103076171875,0.06640227119028567,-0.004427707648603245,0.05052581641618162
1761507818603186700,0.421186767578125,-0.05340659601688385,0.011308087412640451,0.033049598295241595
1761507818623341800,0.441341796875,-0.04227379210591316,-0.020144441816350445,0.0250984566276893
1761507818643497700,0.461497802734375,-0.09962766444385052,-0.027713840457587503,0.010706395192444323
1761507818663652600,0.481652587890625,-0.11317805089056492,0.014659434534003958,-0.011383198475465178
1761507818683808800,0.501808837890625,-0.08848317009508609,0.011048285698983818,-0.017321721678972245
1761507818703964700,0.521964599609375,-0.0954670376330614,-0.05487675990099087,-0.01603902492467314
1761507818724119600,0.54211962890625,-0.04546002092659473,0.005780715993023477,0.029681911960430442
1761507818744275700,0.562275634765625,-0.07259528061151505,-0.02991395801748149,0.05886215800903737
1761507818764430800,0.582430908203125,-0.017492986592650413,-0.014588346625748089,0.05544526223763823
1761507818784586800,0.602586669921875,-0.052414077848196024,-0.0027312744276830926,0.03715184598229825
1761507818804741600,0.62274169921875,-0.0037777649730443954,-0.004961586196441203,0.037767968586646015
1761507818824897800,0.642897705078125,-0.06869125891029834,-0.034782349505135784,0.01720401358343661
1761507818845053200,0.66305322265625,0.026703298008441925,-0.017918500262033194,0.021138941879570484
1761507818865208000,0.6832080078125,-0.038567338803410525,-0.0038786863305605946,0.03885908829160034
1761507818885364200,0.7033642578125,-0.01388940914273262,0.016743232237850316,0.04762198473345488
1761507818905519400,0.723519287109375,-0.09588789339363575,-0.017759948699455706,0.008334807222895323
1761507818925675300,0.74367529296875,-0.017877017474174497,-0.06271133055074606,0.004494681070744991
1761507818945831400,0.76383154296875,-0.06191255855560302,-0.02655145018128678,0.009411788804642855
1761507818965986300,0.783986328125,-0.047048166900873184,-0.018018083612411282,0.05951083117611706
1761507818986142200,0.80414208984375,-0.061248541688919064,-0.04717823672106024,0.0773468955853954
1761507819006297000,0.824297119140625,-0.07010697092711925,-0.029281103474041444,0.09062679452765733
1761507819026453200,0.844453369140625,-0.07114449728131293,-0.01125962232814636,0.08286101936437189
1761507819046608100,0.864608154296875,-0.03634907823204994,-0.023396285502437966,0.025362843184918164
1761507819066764000,0.884763916015625,-0.06438683971464633,-0.029359541288402395,-0.02461279200259596
1761507819086920200,0.904920166015625,-0.028686580780148505,0.005252509134146385,-0.01485924055557698
1761507819107075300,0.925075439453125,-0.04063479272723198,0.00945823089540936,-0.007337905140034854
1761507819127231200,0.945231201171875,-0.05424596945047378,-0.011040725730324628,-0.012642806615121661
1761507819147386400,0.965386474609375,-0.05186754988133907,-0.008664841753215295,0.0004920943658798933
1761507819167542300,0.985542236328125,-0.04886544545590877,-0.006422019846044714,0.053056503937579685
1761507819187698200,1.0056982421875,-0.010129764348268509,-0.053081136055337264,0.0871546249050647
1761507819207853300,1.025853271484375,-0.0700917733579874,-0.05130236287978478,0.08186229065060616
1761507819228009200,1.04600927734375,-0.039115620335936546,-0.043246486762701535,0.09192830558028071
1761507819248164000,1.0661640625,-0.06369242770969867,-0.03431702669846127,0.022601488712802528
1761507819268320300,1.0863203125,-0.1624649366289377,-0.031734465142642145,0.024985863098688423
1761507819288476200,1.10647607421875,-0.06719839000403881,-0.010893421647546347,0.048524596128985284
1761507819308631300,1.12663134765625,-0.112280809789896,0.019793365639646072,0.018395342259854078
1761507819328787200,1.146787109375,-0.04254501026272774,0.004689986730425153,-0.029013438114337622
1761507819348942300,1.1669423828125,-0.041917818275094026,0.024763482202414887,-0.025671434210054574
1761507819369098200,1.18709814453125,-0.12472294273376464,0.06200447005617898,0.033674050336517394
1761507819389253000,1.207253173828125,-0.05928805527091026,-0.00721990877930948,0.030963183942623436
1761507819409409300,1.2274091796875,-0.025189970836043355,-0.017032353660825172,0.05204626744911074
1761507819429565200,1.247565185546875,-0.04592062417566776,-0.013346254734828835,0.03386833079960197
1761507819449720000,1.267719970703125,-0.0473392588019371,-0.004217727292887866,0.022296806677803396
1761507819469876200,1.287876220703125,-0.03857902924120426,-0.07732635512086562,0.018431253823451697
1761507819490031400,1.30803125,-0.08220072882473468,-0.03235711338589899,0.003290200651809573
1761507819510187300,1.328187255859375,-0.11549743374884128,0.030275977996597064,0.05580160139463842
1761507819530342100,1.348342041015625,-0.1159539453446865,0.002722792010416742,0.10895564742255956
1761507819550498300,1.368498291015625,-0.03412088078856468,-0.028457363717711993,0.13570388055127114
1761507819570654200,1.388654296875,0.005799041667580604,-0.016751643873169086,0.11040263136047869
1761507819590809000,1.40880908203125,0.016832476857304574,-0.014358895526226842,0.06094517482817172
1761507819610965200,1.42896533203125,0.059578562650084495,0.026760585720208473,0.057770417249575254
1761507819631120100,1.4491201171875,0.024173487269878387,0.009335861466132337,0.07109941603057086
1761507819651276000,1.469276123046875,-0.008269815695285797,-0.004166602747960132,0.07494377996642142
1761507819671432200,1.48943212890625,-0.07722937015295028,-0.0019692496797768396,0.06285133724305779
1761507819691587300,1.50958740234375,-0.12271627908647059,0.0032671508530736897,0.03502316339053213
1761507819711743200,1.5297431640625,-0.12770225080549716,-0.036013096876488994,0.007588263171911239
1761507819731898400,1.5498984375,-0.16942717685699463,0.0034640365484869106,0.002211538569629192
1761507819752054300,1.57005419921875,-0.09634382046759128,-0.0010603638070868328,0.05155041022356599
1761507819772210200,1.590210205078125,-0.13272680096924305,0.012035303425358142,0.06337137906178832
1761507819792365300,1.610365234375,-0.002905658313632011,0.012000880565948318,0.05350267680250108
1761507819812521200,1.630521240234375,-0.1021206503033638,-0.033441232527908864,0.01959277188349515
1761507819832677000,1.650677001953125,-0.04567629402577877,0.02331631331811659,-0.005189275738783181
1761507819852833300,1.670833251953125,0.0030786767929792402,-0.02606669202178018,-0.03177073746584356
1761507819872988200,1.69098828125,0.011157353830337524,-0.019555526879336683,-0.004148278785869479
1761507819893144000,1.71114404296875,0.04082183973193168,0.029984162293036933,0.007943798611313104
1761507819913300200,1.73130029296875,0.0027080899149179456,0.039358566812914796,0.014929163986630738
1761507819933455000,1.751455078125,-0.055174190211296076,0.01864795960583142,0.020995222559943794
1761507819953611000,1.771611083984375,-0.10519757353067398,0.015763425136974547,0.03128799545019865
1761507819973766400,1.791766357421875,-0.08783785792887211,-0.01124280134079745,0.004023337231948971
1761507819993922300,1.81192236328125,-0.05295066894292831,-0.022427488419343715,-0.003942746276408434
1761507820014078200,1.832078125,-0.03148117993474007,-0.02971585532922763,0.024726371912285685
1761507820034233300,1.8522333984375,-0.010869769060611724,-0.04105693626259453,0.07068283458631486
1761507820054389200,1.87238916015625,-0.04539455447494983,-0.03267384890158428,0.10887326636873185
1761507820074544000,1.892544189453125,-0.07231295653879642,0.009288995825324673,0.07980860952381044
1761507820094700000,1.912699951171875,-0.05484159725606441,-0.027368659732129888,0.013307955992966889
1761507820114855200,1.932855224609375,-0.08572714938521385,-0.005797141971439123,-0.017299984771199522
1761507820135011000,1.953010986328125,-0.08758768256008624,-0.03291764247864484,-0.005876673481054604
1761507820155167000,1.9731669921875,-0.07076572709679603,0.005237007887626532,-0.004030132298916578
1761507820175322400,1.993322265625,-0.05271043044626712,-0.018775292904593514,0.03649367433451116
1761507820195478300,2.013478271484375,-0.031305823367834086,-0.006193767473055049,0.007733626459352672
1761507820215633200,2.033633056640625,-0.06848024650812148,-0.05754972827017773,-0.012376922220550477
1761507820235789300,2.053789306640625,-0.025953940945863722,-0.01202536426994484,-0.008223309672437607
1761507820255945200,2.0739453125,-0.08848258557319641,-0.03931727125472389,0.01633314903303981
1761507820276100000,2.09410009765625,-0.01396481246650219,-0.048354481992777434,0.03820588507987559
1761507820296256300,2.11425634765625,-0.055818333333730694,-0.020385150670469736,0.03787679925598204
1761507820316411100,2.1344111328125,0.024550503888726233,-0.01732937754575396,0.012027524260990321
1761507820336567000,2.154567138671875,-0.06338380015194416,-0.0792396322631277,-0.03733556851875037
1761507820356723200,2.17472314453125,-0.005367079991102218,-0.07236153578772209,-0.0621236805556342
1761507820376878300,2.19487841796875,-0.13720073151290416,-0.09595377083723433,-0.015834369198046625
1761507820397034200,2.2150341796875,-0.03194236770570278,-0.032422239627537784,0.0714378176720813
1761507820417189000,2.235189208984375,-0.06849135242402553,-0.07056903091433923,0.12356189959775656
1761507820437345300,2.25534521484375,-0.03417407228052616,-0.05015688720566686,0.09155823015887289
1761507820457500200,2.275500244140625,-0.0032476036190986633,-0.10586403808277099,0.036183037482760846
1761507820477656000,2.295656005859375,-0.006986790147423744,-0.1307633554091677,-0.02646901432853192
1761507820497812200,2.315812255859375,-0.01754968521595001,-0.07135969266826286,-0.011709763548709451
1761507820517967000,2.335967041015625,-0.0538444029122591,0.0016852673686895286,0.010183467296883464
1761507820538123000,2.356123046875,-0.10667582938969135,0.002294774429638346,0.013572927072085439
1761507820558278400,2.3762783203125,-0.08719488385021686,0.016988757689337945,0.01844268853291869
1761507820578434300,2.396434326171875,-0.1602951913744211,0.00955116645093658,0.04514426950830966
1761507820598590200,2.416590087890625,-0.07953998518288136,0.004628528021150851,0.02602258573528379
1761507820618745300,2.436745361328125,-0.07238719081878661,-0.029664595499448478,-0.04236552550997585
1761507820638901200,2.4569013671875,-0.0010427870512008666,-0.04345735760098323,-0.05833572298213839
1761507820659056000,2.47705615234375,-0.003014379385113716,0.015122914726752788,-0.005507547907717526
1761507820679212300,2.49721240234375,-0.0351005394756794,0.03193965059223119,0.04026639780625701
1761507820699368200,2.5173681640625,0.011588730984926222,0.06029256070491392,0.03922631416879594
1761507820719523000,2.537523193359375,-0.03202770790159702,0.030829122933908364,-0.008707987916842103
1761507820739679000,2.557678955078125,-0.005794950014352798,-0.00033691293732263143,-0.03699493838753551
1761507820759834400,2.57783447265625,0.0043944355666637415,0.03875363232286181,-0.05945486320517957
1761507820779990300,2.597990234375,-0.048666708013415334,0.04542289008686785,-0.03873969969563186
1761507820800145200,2.618145263671875,-0.03196399501562119,0.05577664961647242,0.0037080242050811646
1761507820820301300,2.63830126953125,-0.06715747347176075,0.02988015849586809,0.0018976503148674963
1761507820840456400,2.65845654296875,-0.07603402288854122,-0.023769564377795902,-0.05270089543294161
1761507820860611300,2.678611328125,-0.06646013885736465,-0.017681679848453494,-0.04206058774664998
1761507820880767200,2.698767333984375,-0.06692483375966549,0.006932299464230891,0.034666860766150054
1761507820900922600,2.718922607421875,-0.05327274050414562,0.02138163947808789,0.0880249049335718
1761507820921078500,2.73907861328125,-0.041562428966164584,0.01985837543356465,0.08747205682378262
1761507820941234400,2.759234375,-0.06780044755041599,-0.024689042426447847,0.0061977586615830655
1761507820961389600,2.7793896484375,0.01984159554541111,-0.04667273945091292,-0.009713000240921973
1761507820981545500,2.79954541015625,-0.067272624284029,-0.022907543004269244,-0.002897219278849661
1761507821001700400,2.819700439453125,-0.06080547409653663,0.00792823000777862,0.049931576850079
1761507821021856300,2.839856201171875,-0.0631768794029951,0.02567467876320006,0.036097295428067444
1761507821042012400,2.860012451171875,-0.043425884750485415,-0.003480249324826582,0.022349632843583822
1761507821062167300,2.880167236328125,-0.06371522406339646,-0.003322992386903206,0.006431055960804223
1761507821082323200,2.9003232421875,-0.08147475263774394,-0.020044614154088775,0.025051439148187638
1761507821102478600,2.920478515625,-0.04443593857586384,0.00014698955976928118,0.03320570217240602
1761507821122634500,2.940634521484375,-0.04392682000994682,-0.03863503374475986,0.03543758941031992
1761507821142790400,2.960790283203125,-0.030014029991626737,0.008609864729543915,0.05526964994240552
1761507821162945500,2.980945556640625,-0.030095278534293172,-0.07153874816275202,0.058973911287821826
1761507821183101400,3.001101318359375,-0.020512626674771307,-0.021265879027754998,0.027684673728607594
1761507821203256300,3.02125634765625,-0.03226853092014789,-0.012191774911992252,0.053814446165412665
1761507821223412500,3.04141259765625,-0.12710136230289934,-0.017061142505536555,0.04974160723593086
1761507821243568400,3.061568359375,-0.0490256044536829,0.01901860242446419,0.03452851174138486
1761507821263723300,3.08172314453125,-0.07248305240869522,-0.04406479457537643,-0.017597177619487047
1761507821283879400,3.10187939453125,-0.01958615947961807,-0.001632754584273789,-0.030884529215842484
1761507821304034600,3.12203466796875,-0.012122399470210075,-0.10704722911850549,0.015476313007995485
1761507821324190500,3.1421904296875,-0.07259411156773567,-0.04270321933201048,0.08022994020842016
1761507821344345300,3.162345458984375,0.014371055179834365,0.005870113592816051,0.10335095928329974
1761507821364501500,3.18250146484375,-0.14605623814165591,-0.04227018450987525,0.05217533718887716
1761507821384657400,3.202657470703125,-0.022568974682688713,0.018213466903904917,-0.015284772491268812
1761507821404812300,3.222812255859375,-0.1336824942588806,-0.07894585521463304,-0.018650339934229848
1761507821424968400,3.242968505859375,-0.055498599860072134,-0.00008260938269086181,-0.020067988179810346
1761507821445123300,3.263123291015625,-0.03283317906558513,-0.03471266125281108,0.042928602752834555
1761507821465279200,3.283279296875,-0.02095335617959499,0.011972017514356411,0.062269628364965315
1761507821485435400,3.303435302734375,-0.007813888621330261,-0.01843970541632152,0.0706716190725565
1761507821505590500,3.323590576171875,-0.04744447274208068,-0.06259303793332073,0.0393644439978525
1761507821525746400,3.343746337890625,-0.008878887504339218,-0.030869623907655477,0.03103003863375634
1761507821545901600,3.363901611328125,-0.03354161959588527,-0.04115119955046102,0.039724326818808914
1761507821566057500,3.384057373046875,-0.03010463088452816,-0.03520562098508235,0.0437282286979258
1761507821586213400,3.40421337890625,-0.043371524214744564,0.018729227556451223,0.04956899061538279
1761507821606368500,3.424368408203125,-0.06704992144405841,0.02293946566262748,0.039015594027563924
1761507821626524400,3.4445244140625,-0.09884674319922923,0.01876847272145096,0.022900069800578057
1761507821646679300,3.46467919921875,-0.05653554169237613,0.008658431420382112,-0.02068864082880318
1761507821666835200,3.484835205078125,-0.08576689687371253,0.013568397027440369,-0.026080891793780026
1761507821686991400,3.504991455078125,-0.06918634895086288,0.03298118183468468,0.001996836373023689
1761507821707146500,3.525146484375,-0.11186404568254947,0.0005892368807108141,-0.0005980024257674813
1761507821727302400,3.545302490234375,0.011232757154107093,0.02880535288818646,0.020483364047668873
1761507821747457500,3.56545751953125,-0.0765834734648466,-0.010533899586193728,0.0316414485303685
1761507821767613400,3.585613525390625,-0.007263269001245499,-0.004431052666448522,0.03203201875053346
1761507821787769300,3.605769287109375,-0.007362637722492218,-0.023470419317728374,0.02798088019620627
1761507821807924500,3.625924560546875,-0.04338379917442799,-0.01737462319327751,0.0572185189878568
1761507821828080400,3.646080322265625,-0.03331307153701782,-0.0086726197759388,0.02196549236420542
1761507821848235000,3.666235107421875,-0.060656421014666555,0.0009248825928429141,0.024184958511963485
1761507821868391000,3.686390869140625,-0.0698696550399065,0.009568776314507704,0.032900216419808566
1761507821888546800,3.706546875,-0.09807049812972544,-0.004789992489200085,0.010890081196278333
1761507821908702200,3.7267021484375,-0.044161797809600827,0.03195250550722703,-0.02407400895077735
1761507821928858000,3.746858154296875,-0.045294601231813426,-0.009266754310764371,-0.03112308721207082
1761507821949013000,3.767012939453125,0.01559913567006588,-0.011880364025395829,0.018712810711190103
1761507821969169200,3.787169189453125,-0.05353460631072521,-0.03420531680216081,0.08282649604026228
1761507821989325000,3.807324951171875,0.010654665005207061,0.012037134622840676,0.11620802970360963
1761507822009480000,3.82747998046875,-0.09436872100234031,-0.04848662503904197,0.08398527415394783
1761507822029636000,3.847635986328125,-0.03957154740989208,-0.004597707620379515,0.02056961755901575
1761507822049791000,3.867791015625,-0.14738427187502384,-0.05039620782029815,0.016865977268107235
1761507822069947000,3.88794677734375,-0.08563128779530525,-0.0198548660189379,0.016724194177240134
1761507822090102000,3.90810205078125,-0.09427987367510796,-0.02780353260161355,0.051443113924190396
1761507822110258200,3.928258056640625,-0.0618874241143465,0.00002299043323146179,0.06479359388463199
1761507822130414000,3.9484140625,-0.07510872473716736,-0.01335883451354457,0.050413661278598004
1761507822150569000,3.96856884765625,-0.004494973331689835,0.016269070820882914,0.03751096161827445
1761507822170725000,3.98872509765625,-0.04751987606585026,-0.016070488642016423,0.00991184728126973
1761507822190880000,4.0088798828125,-0.039509003567695614,-0.004249501537485048,0.015441899281740187
1761507822211034000,4.0290341796875,-0.056630818760395045,-0.0007249121744884177,0.01948616970386356
1761507822231189000,4.04918896484375,-0.022405308553576468,0.014420847996667725,0.031999687383510174
1761507822251345200,4.06934521484375,-0.04303367056250572,0.005736304887494771,0.023213446598686276
1761507822271501000,4.0895009765625,-0.012357961791753767,0.008864558726531685,0.012844831993244588
1761507822291656000,4.109656005859375,-0.0345469972461462,0.03074524404273834,-0.014580935070849954
1761507822311812000,4.12981201171875,-0.04199146803319454,0.01085402692714124,-0.024208448985405265
1761507822331967200,4.14996728515625,-0.03256371447443962,0.011240744097740389,-0.012771584093943238
1761507822352123100,4.170123046875,-0.06256897663772105,-0.008843167736986651,-0.008460223700851201
1761507822372279000,4.190279052734375,-0.028777181673049924,-0.005902629906218498,0.021094006759300826
1761507822392434200,4.21043408203125,-0.08030687790215014,0.0031756229449878444,0.05514131085500121
1761507822412590000,4.230590087890625,-0.040245501148700714,-0.02890376034491928,0.07887746615353972
1761507822432745000,4.250744873046875,-0.10979659175872802,-0.04405228215367533,0.06937226344440132
1761507822452901000,4.270901123046875,-0.04040858275592327,-0.021267817539803217,0.05677252878602594
1761507822473057000,4.29105712890625,-0.13370704417824744,-0.06369017182053066,0.053960613170452414
1761507822493212000,4.3112119140625,-0.08386778525412082,-0.01496447732860688,0.04926237235162407
1761507822513368000,4.3313681640625,-0.08825520655810833,-0.031763645571353846,0.059481970407813785
1761507822533523200,4.351523193359375,-0.06274257963895798,0.0023898531369573902,0.0518657232504338
1761507822553679000,4.37167919921875,-0.032711598512530325,-0.028313815644732676,0.04538275443930179
1761507822573835000,4.3918349609375,-0.051989130434393876,-0.05124802517693024,-0.010398242558725177
1761507822593992000,4.411991943359375,0.0661094257235527,-0.04226421142681502,-0.032709954544715585
1761507822614147000,4.43214697265625,-0.02483984222412109,-0.06399442916384432,0.003629150282591581
1761507822634303000,4.452302978515625,-0.01648351728916168,-0.018008802044123876,0.05044296043831855
1761507822654458000,4.4724580078125,-0.06110708739161491,-0.011467147006938466,0.07147427722495049
1761507822674614000,4.492614013671875,-0.0695955142736435,0.021441235594660973,0.032562801158986986
1761507822694770200,4.512770263671875,-0.10623509988486766,-0.05071240676315501,-0.006742350399680435
1761507822714925000,4.532925048828125,-0.11576105312108993,-0.035563065253780224,-0.00432995549570769
1761507822735081000,4.5530810546875,-0.04595686453282833,-0.026287088740232865,-0.00118511813133955
1761507822755236000,4.573236083984375,-0.04568623089790344,-0.00803384694836568,0.01636252125799656
1761507822775392000,4.59339208984375,-0.00599485650062561,-0.011429277523339259,0.05021868669576943
1761507822795548000,4.6135478515625,-0.02961713962852955,-0.02532061604496557,0.04864106211550533
1761507822815703000,4.633703125,-0.05257540588974952,-0.013683004417014307,0.04203735300153494
1761507822835859700,4.653859619140625,-0.02490355511009693,-0.027340273887861984,0.009089534580335021
1761507822856014800,4.674014892578125,-0.030068975049257277,-0.05552472981517203,-0.0007059197796508669
1761507822876170800,4.694170654296875,-0.02867021416723728,-0.019023949886439368,0.030207652867585418
1761507822896326700,4.71432666015625,-0.07220832712054252,0.011257190625753718,0.03737641198579222
1761507822916481800,4.734481689453125,-0.07837503305673599,-0.008940575113298837,0.020393932198546825
1761507822936638000,4.754637939453125,-0.08162555928528309,0.004830472913349513,-0.0021169190887361765
1761507822956792800,4.774792724609375,-0.08807458929419518,0.029038711836200673,-0.013544541227817534
1761507822976948700,4.79494873046875,-0.05907821191251278,0.025013842517579904,-0.013881298901513218
1761507822997105000,4.81510498046875,-0.00803308432996273,0.022842256932426242,-0.020018194221332667
1761507823017259800,4.835259765625,-0.020405074647068977,0.032219568078732115,-0.024838892376050352
1761507823037415700,4.855415771484375,-0.02759235580265522,0.03331173352987971,-0.017758944052457808
1761507823057570800,4.87557080078125,-0.005357727640867233,0.017471121820714322,-0.011807890160940587
1761507823077726700,4.895726806640625,-0.015011106649041175,-0.022833539336430838,-0.02580539932064712
1761507823097882600,4.915882568359375,-0.03952420113682747,-0.003698849951359443,-0.003385806513391435
1761507823118037800,4.936037841796875,-0.04064472959935665,-0.0007015929476940073,0.025074052838794887
1761507823138194000,4.95619384765625,-0.04668400976359844,-0.015547693177196197,0.021995814437232912
1761507823158348800,4.976348876953125,-0.05573650026917457,-0.003243210571771487,-0.0016301219524815678
1761507823178504700,4.996504638671875,-0.07247370005846022,-0.001338623626041226,0.018721542006917297
1761507823198660900,5.016660888671875,-0.09380115024745464,-0.0008029298637411557,0.028245741677470505
1761507823218815700,5.036815673828125,-0.04552840998768806,-0.032537260292354035,-0.018046967213600874
1761507823238971600,5.0569716796875,-0.010376432585716248,-0.048482337022991845,-0.033941286437958476
1761507823259126800,5.077126708984375,-0.013309563428163527,-0.02000068824739428,0.01226191753875464
1761507823279282700,5.09728271484375,-0.02023673234283924,-0.022629344834107903,0.07309376818556339
1761507823299438600,5.1174384765625,-0.03615150983333587,-0.04066183599778451,0.08266593518368899
1761507823319594000,5.137593994140625,-0.048963060611486434,-0.04894584461520426,0.054596353790722786
1761507823339750000,5.15775,-0.11720306862294673,-0.0368549545281101,0.004972893041744828
1761507823359904800,5.17790478515625,-0.10142156212329864,-0.0350493709774455,0.009332586088590323
1761507823380061000,5.19806103515625,-0.06671557492315769,-0.047517076753987926,0.016103176202066243
1761507823400216800,5.218216796875,-0.03437105615735054,-0.020648502897948492,0.04159395661558956
1761507823420371700,5.238371826171875,-0.02385433831810951,-0.013000303399458062,0.06771269620172679
1761507823440528000,5.25852783203125,-0.03743921155631542,-0.03614891601745039,0.030600305446982383
1761507823460682800,5.278682861328125,-0.04512099823057651,-0.017492123509547673,-0.0063260246837511655
1761507823480838700,5.298838623046875,-0.03685936584174633,-0.027241841314954215,-0.03210844498760998
1761507823500994600,5.31899462890625,-0.04611293187737465,-0.030280640471982766,-0.01063143026009202
1761507823521150000,5.33914990234375,-0.03283084097802639,-0.026242834039975422,0.0017021277427673339
1761507823541305900,5.359305908203125,-0.01721241608560085,-0.006976898941071704,0.029658384954370558
1761507823561460700,5.379460693359375,-0.07870178079307079,-0.009793981638818512,0.02241955627463758
1761507823581617000,5.399616943359375,-0.05721884778141975,-0.024754798855748956,-0.007807860739342868
1761507823601772800,5.419772705078125,-0.09979659126996994,-0.006848320108361076,-0.014037402778677642
1761507823621927700,5.439927734375,-0.08733926075696945,-0.014369032186106778,0.0031625922167673706
1761507823642083800,5.460083740234375,-0.07920446961820125,0.01004033021585783,0.018957542719878255
1761507823662238700,5.48023876953125,-0.0655167205274105,-0.010515731458552181,0.02514686234667897
1761507823682394600,5.50039453125,-0.050071898636221884,-0.005585503948177211,0.006782390149123966
1761507823702550800,5.52055078125,-0.006916062998771667,-0.02582384829279035,-0.002324607022665441
1761507823722706000,5.540705810546875,-0.012348609441518783,-0.010710377247817813,-0.013417809575609861
1761507823742861800,5.56086181640625,-0.014628829333186148,-0.016479329737811348,0.009625723816268146
1761507823763016700,5.5810166015625,-0.051717327755689615,-0.0019298766506137325,0.01675535650048405
1761507823783172900,5.6011728515625,-0.044350013858079906,-0.020665132089052348,0.03542841972317547
1761507823803328800,5.621328857421875,-0.05972410860061645,-0.020145492129120975,-0.0031523996163159607
1761507823823483600,5.641483642578125,-0.0755512078076601,-0.008408329116832465,-0.01000474972911179
1761507823843639600,5.6616396484375,-0.10587795701026916,-0.01102840738815721,0.03539707473684102
1761507823863794700,5.681794677734375,-0.10321136814951896,0.0005473316844552755,0.052414406641758976
1761507823883950600,5.70195068359375,-0.05688859291374683,0.0006704420408932492,-0.005793707905337214
1761507823904106500,5.7221064453125,-0.0158247611194849,-0.012248852561204693,-0.03846946791950613
1761507823924261600,5.74226171875,-0.022186697366833687,-0.040934666156372986,-0.0053492520734667775
1761507823944417800,5.762417724609375,0.04809329203963279,-0.029226752071455118,0.05417440205160528
1761507823964572700,5.78257275390625,-0.032117139750719066,-0.003860502219898626,0.07511975758783519
1761507823984728600,5.802728515625,-0.04061024280786514,-0.017015103415213523,0.03014616847131401
1761507824004884700,5.822884765625,-0.07984510560929775,-0.022794225672772152,-0.004279211689159274
1761507824025039600,5.84303955078125,-0.09676000005304813,-0.06367201054275501,0.003518894841149449
1761507824045195500,5.863195556640625,-0.09036708414554595,-0.03722972439094446,0.025209990710765122
1761507824065350700,5.8833505859375,-0.07282558223605155,-0.01442659845908638,0.0639215237578377
1761507824085506600,5.903506591796875,-0.05499415746927261,-0.02035779230608605,0.07202394699696452
1761507824105662500,5.923662353515625,-0.039669747087359424,-0.006746126959077082,0.037169418171606954
1761507824125817900,5.94381787109375,-0.01804945143163204,-0.02386605615536682,0.016253544458188114
1761507824145973800,5.963973876953125,-0.01936228759586811,-0.02995043127008248,-0.00407996279001236
1761507824166128600,5.984128662109375,-0.01980243257880211,-0.006787993339425884,0.00642670857924968
1761507824186284800,6.004284912109375,-0.056153848898410796,-0.0166643994145561,0.03581321778967976
1761507824206440700,6.024440673828125,-0.07621405563056469,0.004992543023708276,0.038084523722529406
1761507824226595600,6.044595703125,-0.09420213226377963,-0.00029452596716582775,0.023705102573148906
1761507824246751700,6.064751708984375,-0.0853758517295122,-0.022175326589448378,0.0005263984942808747
1761507824266906600,6.08490673828125,-0.06193477038741112,-0.009493471172149293,-0.005815481345728039
1761507824287062500,6.1050625,-0.057435120880603784,-0.009108399111009203,0.029533078074268995
1761507824307218700,6.12521875,-0.01786649608016014,0.003292164280032739,0.0377664707493037
1761507824327373800,6.145373779296875,-0.038218379235267635,0.007400978705193847,0.02613156253509223
1761507824347529700,6.16552978515625,-0.049307928526401514,-0.018115333441807886,0.019175130993314086
1761507824367684600,6.1856845703125,-0.03599602701067924,-0.013528754570218734,0.0036938860818743705
1761507824387840800,6.2058408203125,-0.049749242553114886,0.0044145102403126656,0.011195274687930941
1761507824407996700,6.22599658203125,-0.06695113724470138,-0.004532757191965356,0.021361790850013492
1761507824428151600,6.246151611328125,-0.07583119379281997,-0.014293811525427736,0.021280944166146218
1761507824448307700,6.2663076171875,-0.08309387827217578,-0.009429196597170085,0.011023754045926034
1761507824468462600,6.286462646484375,-0.02957914570569992,0.004757843785267323,0.011119286842271685
1761507824488618500,6.306618408203125,-0.06837737065553665,-0.0061977495284285394,0.031161519526317714
1761507824508773600,6.326773681640625,-0.08847790939807891,0.014870848794979973,0.0633402167385444
1761507824528929800,6.3469296875,-0.14755086061358452,0.0027397454285062847,0.09366681981068103
1761507824549085700,6.367085693359375,0.08298749528825282,-0.014607001093868165,0.053698345505073665
1761507824569240600,6.387240478515625,-0.02408347089886665,-0.01550058893272653,0.0030434593491256235
1761507824589396700,6.407396728515625,-0.04106441631615162,-0.024576368982344863,-0.004475318783149123
1761507824609551600,6.427551513671875,-0.02914952211678028,-0.02801919377944432,0.0355447761118412
1761507824629707500,6.44770751953125,-0.03476970008611679,-0.02780205303058028,0.08157938205599784
1761507824649863700,6.46786376953125,-0.025402736803889273,-0.00889112593140453,0.08603950327001511
1761507824670018600,6.4880185546875,-0.03518354158401489,-0.007859362597716971,0.043578006572276354
1761507824690174500,6.508174560546875,-0.07198094810545444,-0.008085828297352418,-0.006515373243391513
1761507824710330600,6.52833056640625,-0.07464169174730777,-0.03450004369872622,-0.014072802885621785
1761507824730485800,6.54848583984375,-0.07331073540449141,-0.006572546790726483,0.010943601481802762
1761507824750641700,6.5686416015625,-0.07486205649971961,0.018096697239996865,0.03245327636990696
1761507824770796800,6.588796875,-0.05248305143117905,-0.0008019731658045202,0.02928297577071935
1761507824790952700,6.60895263671875,-0.05557166509628295,0.00035748080131597817,0.02012877845633775
1761507824811108600,6.629108642578125,-0.052450318205356596,-0.01197253353758715,0.021552856442704795
1761507824831263700,6.649263671875,-0.046020577418804165,-0.021232821574946863,0.009778101366385817
1761507824851419100,6.669419189453125,-0.03995440924763679,0.012820090277632697,0.0021124986419454217
1761507824871574500,6.689574462890625,-0.008560907596349716,0.024885407532053067,0.0006730404233559966
1761507824891730400,6.70973046875,-0.04680734388232231,0.008652540535712613,0.0040151539254933595
1761507824911885300,6.72988525390625,-0.027912673798203468,-0.0017657766966614871,-0.008674743234366178
1761507824932041500,6.75004150390625,-0.04103519022166729,0.007332598777255043,-0.023004480023123323
1761507824952197400,6.770197265625,-0.06480185025632382,0.033630412124190476,-0.016231515289470554
1761507824972352300,6.790352294921875,-0.06594517507255077,0.0063797732981387524,-0.010333433694206178
1761507824992508400,6.81050830078125,-0.09076865068376064,-0.02146797290453687,-0.028363815099187194
1761507825012663300,6.830663330078125,-0.06487491549253463,-0.011359324409533291,-0.011753858418762683
1761507825032819200,6.850819091796875,-0.0717518155246973,-0.0015478139638900755,0.01519713074043393
1761507825052975400,6.870975341796875,-0.04765548514425754,-0.026752553110802546,0.03874463159907609
1761507825073130500,6.891130615234375,-0.015481062248349189,-0.03912356618037447,0.0383241046320647
1761507825093286400,6.911286376953125,-0.03950725000202655,0.0301529909377452,0.039013000211678445
1761507825113441300,6.931441162109375,-0.046745969083905214,0.02182568203471601,0.032585780175775285
1761507825133597400,6.951597412109375,-0.07396656896471977,-0.0016594211122021077,0.012274338628910482
1761507825153753300,6.97175341796875,-0.04169862256646156,0.01082087015127763,-0.0023251915445551274
1761507825173908200,6.991908203125,-0.045424949613213535,-0.017947717223362997,0.0033908114820718764
1761507825194064400,7.012064453125,-0.07766893061399459,-0.01191568878381513,0.0019458368381485341
1761507825214219300,7.03221923828125,-0.0843961930423975,0.005743046297179534,0.05446856269259005
1761507825234375200,7.052375244140625,-0.07056523608863353,-0.005739630497386679,0.06742708419337869
1761507825254531300,7.07253125,-0.030298107630014417,-0.028649646303243934,0.02356748420074582
1761507825274686500,7.0926865234375,-0.044001638811826706,-0.04587958891238086,0.00887863177601248
1761507825294842400,7.11284228515625,-0.03387830420434475,-0.02369977794406004,0.026744214540719985
1761507825314997200,7.132997314453125,-0.034222587597370145,-0.04802383439945988,0.06726780197843908
1761507825335153400,7.1531533203125,-0.05705401260852813,-0.027866350438445806,0.09058967738766223
1761507825355309300,7.173309326171875,-0.05745908627808094,-0.01488290455895476,0.06990238826572895
1761507825375464200,7.193464111328125,-0.09690437695980071,-0.03584743058653548,0.027074542473629115
1761507825395620400,7.213620361328125,-0.09603811551928519,-0.019233382252883166,0.008531498838774859
1761507825415775200,7.233775146484375,-0.09589490765631198,0.004070528241386637,0.016172661241702736
1761507825435931100,7.25393115234375,-0.025951602858304976,0.012017824850883334,0.02850285824369639
1761507825456087300,7.27408740234375,-0.030803134542703628,-0.0004566394600085914,0.019688852669112383
1761507825476242200,7.2942421875,0.022260347124934195,-0.043112334422441195,0.021654197925329206
1761507825496398300,7.3143984375,0.0076291797041893004,-0.01499463957143016,0.026015315744280815
1761507825516553500,7.334553466796875,0.00027998598515987394,-0.03308128120829351,0.0336923531781882
1761507825536709400,7.35470947265625,-0.01833236002624035,-0.011449459511553867,0.0173416684884578
1761507825556865300,7.374865234375,-0.053369771137833595,0.02074112906786613,0.03428893083184957
1761507825577020400,7.3950205078125,-0.05091711728870869,-0.013498838922567665,0.031203532037138937
1761507825597176300,7.41517626953125,-0.09863222366571425,-0.04805169052076526,0.0012870806684717536
1761507825617331200,7.435331298828125,-0.07756488571763039,-0.031016046641021967,-0.009053403821028769
1761507825637487400,7.4554873046875,-0.07235913376808166,-0.031051985604083163,0.00882401551194489
1761507825657643300,7.475643310546875,-0.06744388919770718,-0.04713577211908996,0.03181121560670435
1761507825677798100,7.495798095703125,-0.05432897155880928,-0.02208641533013433,0.049288748901896176
1761507825697954300,7.515954345703125,-0.04926701199412346,-0.032418296388071026,0.021443770045042037
1761507825718109400,7.536109375,-0.05381751490533351,-0.03522106971596368,0.007814911534637212
1761507825738265300,7.556265380859375,-0.06040449208021163,-0.01457240470452234,-0.01895871176365763
1761507825758421200,7.576421142578125,-0.03309738295972347,-0.027954850705806163,-0.004187076426297426
1761507825778576400,7.596576416015625,-0.03777297355532646,-0.017189939392311497,-0.00646316813211888
1761507825798732300,7.616732177734375,-0.0515612604111433,-0.000012822948954999446,-0.00929064664300531
1761507825818887200,7.63688720703125,-0.03568506136536598,-0.0160266038345173,-0.0027414807278662917
1761507825839042800,7.657042724609375,-0.027897476229071617,-0.03498158013797365,-0.006741619747318327
1761507825859198700,7.67719873046875,-0.048613516521453855,-0.0035898685849737374,-0.005101305194385349
1761507825879354000,7.69735400390625,-0.004404372438788414,-0.03602262275665998,0.0009899608854204416
1761507825899510000,7.717510009765625,-0.06298924787640571,-0.021390870814025402,0.013984795808605848
1761507825919665000,7.737664794921875,-0.08024316501617432,0.01784087758171372,0.02917491228636354
1761507825939821000,7.757821044921875,-0.1034060139387846,0.0315614238304086,0.020924824204854666
1761507825959977000,7.77797705078125,-0.06811667389273643,0.0058044119624421,-0.03957801368329674
1761507825980131800,7.7981318359375,-0.00516132828593254,-0.008704654315439984,-0.06615041532106697
1761507826000288000,7.8182880859375,0.0016594576448202133,-0.03382461038888432,-0.0005783478772267698
1761507826020443000,7.83844287109375,0.029081717577576636,0.002483259049942717,0.05499251350145787
1761507826040598800,7.858598876953125,-0.04124561810195446,-0.015561497940262778,0.08591825151052325
1761507826060755000,7.8787548828125,-0.062269701430201524,-0.00744319214541465,0.04666497626956552
1761507826080910000,7.89891015625,-0.11004676712751388,-0.0035394444388337433,-0.007122545356303453
1761507826101066000,7.91906591796875,-0.06052782619893551,-0.01252063240702264,-0.04645926109701395
1761507826121220900,7.939220947265625,-0.08194879989027977,-0.015420271971821784,-0.029904395604692397
1761507826141377000,7.959376953125,-0.04842939212620258,0.017881173059483987,0.006399528311379254
1761507826161533000,7.979532958984375,-0.034845687931776045,-0.04423173037380911,0.03518577007371932
1761507826181687800,7.999687744140625,0.02663373990356922,-0.03312072730269283,0.03149458740558475
1761507826201842000,8.019842041015625,0.0005687397986650467,-0.014642930923774838,0.030396380372717975
1761507826221998000,8.039998046875,-0.03796528125703334,-0.04561585994227789,0.006571158551238476
1761507826242154000,8.060154052734376,-0.07859364424347877,-0.07156675041452981,0.007953516287729143
1761507826262308900,8.080308837890625,-0.09812135153412818,-0.03633432818748988,0.027489114623889324
1761507826282465000,8.100465087890624,-0.1394172385185957,-0.009566550108091905,0.06740512808989733
1761507826302620000,8.120619873046875,-0.09936521411538124,-0.013291698977909982,0.04108297488614916
1761507826322775800,8.14077587890625,-0.046126375880837435,-0.05142146834796294,-0.0112706049464643
1761507826342932000,8.160931884765626,-0.06896539967656135,-0.03497166153215803,-0.027592538465745744
1761507826363086800,8.1810869140625,0.016506898164749144,0.0002329137067310512,-0.0024758155290037394
1761507826383242800,8.20124267578125,-0.06564063916802405,-0.02817691422495991,0.021276194925792514
1761507826403398100,8.221398193359375,-0.016949965757131577,0.0008551920572295785,0.0511852301729843
1761507826423554000,8.241553955078125,-0.07835399026870728,-0.0016995978589635342,0.029937640287168322
1761507826443710000,8.2617099609375,-0.04049976817071438,-0.02164862670106813,0.010337854140996932
1761507826463865000,8.281864990234375,-0.05793780970573425,-0.019047668688744305,-0.0006765840873122215
1761507826484021000,8.30202099609375,-0.06559212385118007,-0.008189032943500206,0.029082703958265482
1761507826504175900,8.32217578125,-0.07490121946632862,0.030547351417038588,0.008919438710436224
1761507826524331800,8.342331787109375,-0.047716275420784944,-0.012300203722529112,-0.01909165396094322
1761507826544488000,8.362488037109374,-0.09499766655564308,-0.0027762506471481173,-0.005949921380355954
1761507826564642800,8.382642822265625,-0.031768180182576176,-0.028960447551775723,0.013955131322704255
1761507826584798700,8.402798828125,-0.016569442006945607,-0.02583873533466831,0.030906412254087624
1761507826604957000,8.42295703125,-0.05953764611780643,0.0065359137079212815,0.06802201787922531
1761507826625111800,8.44311181640625,-0.0478361024081707,-0.015294974224874748,0.05808441510219126
1761507826645268000,8.46326806640625,-0.06271744519770145,-0.0343184674535878,-0.018551555734872816
1761507826665422800,8.4834228515625,-0.029503742381930348,-0.03945467956457287,-0.022551365960761904
1761507826685578800,8.503578857421875,-0.011477087303996086,-0.07230225248169153,-0.0005296864299103618
1761507826705735000,8.52373486328125,0.00488075777888298,-0.07390292001082562,0.07890384270381182
1761507826725890000,8.54389013671875,-0.02452536944746971,-0.03823424352467991,0.11859839543886481
1761507826746046000,8.5640458984375,-0.06822890209555625,-0.026800310375820844,0.09044931906890123
1761507826766201000,8.584201171875,-0.0759954444438219,-0.04489702588212676,0.03779248197339475
1761507826786357000,8.60435693359375,-0.13269699035286903,-0.05883679523891769,0.006518880374729633
1761507826806513000,8.624512939453124,-0.09336509691774844,-0.03877659763991832,-0.01995305656325072
1761507826826668000,8.64466796875,-0.09965689053833485,-0.0006658617638982832,0.007037168627791106
1761507826846825200,8.6648251953125,-0.08532266023755072,0.019957029485469683,0.0318210063483566
1761507826866980000,8.68497998046875,-0.0452741429656744,-0.003707028691237792,0.02430401831436902
1761507826887136000,8.705135986328125,-0.025756372547149655,-0.010294754784787074,-0.015747238903865216
1761507826907292200,8.725292236328125,0.0145873282790184,-0.01566568896709941,-0.05239259666875005
1761507826927447000,8.745447021484376,0.030317981374263763,-0.022904663777304813,-0.027145415752753616
1761507826947603000,8.76560302734375,0.005467617756128311,-0.014841650099959223,-0.004502279855310916
1761507826967757800,8.7857578125,-0.01714110441505909,0.01831180129540153,0.04228091596644371
1761507826987914000,8.8059140625,-0.029719430959224698,0.004564641034416854,0.034549444931559266
1761507827008070000,8.82606982421875,-0.08632394623458385,0.0048248354737181216,0.00020808979272842406
1761507827028225000,8.84622509765625,-0.0465986695677042,0.046364331088867033,-0.022595387765578925
1761507827048381200,8.866381103515625,-0.10564765538573265,0.002771428341558203,-0.04134600973650813
1761507827068536000,8.8865361328125,-0.05067804783582687,0.018019677347876132,-0.0571834111418575
1761507827088692000,8.90669189453125,-0.051038113319873804,0.01780342251500115,-0.03572407820150256
1761507827108848000,8.92684814453125,-0.012802198427915572,0.03263163774465211,0.0110363577991724
1761507827129003000,8.9470029296875,-0.017986907589435577,0.008030024723196402,0.022849143330939112
1761507827149159000,8.967158935546875,-0.01236789866387844,-0.009114632488973437,0.02078691357150674
1761507827169314000,8.98731396484375,-0.04304419195652008,-0.012562617518380283,0.008390446400269865
1761507827189470000,9.007469970703125,-0.019833412238955496,-0.013989535915805026,0.020427980598621068
1761507827209625900,9.0276259765625,-0.07127835279405116,-0.0018602774465456603,0.020269319438189267
1761507827229781200,9.04778125,-0.04659750052392483,-0.023291996294190175,0.029661051835492253
1761507827249937200,9.067937255859375,-0.07906009271144866,-0.014230948022822848,0.005183649715594947
1761507827270092000,9.088092041015624,-0.10414192699790001,-0.0052935626637423405,0.02944682456292212
1761507827290248200,9.108248291015625,-0.09346505016088485,0.0061436127549735825,0.02244070866052061
1761507827310404000,9.128404052734375,-0.08727496334910392,-0.016991211082972586,-0.015021993369236588
1761507827330559000,9.14855908203125,-0.03274842339158058,-0.0173361246636603,-0.025861623019911347
1761507827350715100,9.168715087890625,-0.003632219022512436,-0.05545823588364292,-0.0046157136345282195
1761507827370870000,9.1888701171875,-0.004876666125655174,-0.06099128355879802,0.06071761314999312
1761507827391026000,9.20902587890625,0.003803483936190605,-0.028999331957171668,0.1108961870310828
1761507827411182000,9.22918212890625,-0.05265256277918815,-0.023743913913308642,0.0799757097190246
1761507827431337200,9.249337158203126,-0.09255845670998096,-0.03678530509169213,0.0326067864311859
1761507827451493000,9.2694931640625,-0.12342413509488105,-0.03024237255451735,-0.009556640635430812
1761507827471648000,9.28964794921875,-0.12039514266252517,-0.04248618818100076,-0.030863340297341346
1761507827491804200,9.30980419921875,-0.0723661480307579,-0.013869996622786856,-0.0001369242526590824
1761507827511960000,9.3299599609375,-0.05465688833892345,0.007141085659991949,0.03248451175838709
1761507827532115000,9.350114990234376,-0.021991467055678365,-0.004547046012221835,0.0287351691622287
1761507827552271000,9.37027099609375,-0.006287701967358589,-0.03086567838490009,0.017450206896848976
1761507827572426000,9.390426025390624,0.013344050219655037,-0.047379426415544,0.03053202598374337
1761507827592582000,9.410581787109376,-0.009480360528826713,-0.05525470810160041,0.02700867416318506
1761507827612738000,9.430738037109375,-0.03491933768987655,-0.03433570628275629,0.020533998256362974
1761507827632893200,9.45089306640625,-0.09334230056405067,0.01275307118971832,0.05033277806211263
1761507827653049000,9.471049072265625,-0.09954758494496345,0.037387718831095845,0.017363003537431358
1761507827673204000,9.491203857421874,-0.09896247853338717,-0.006268924201652407,-0.03832841548100114
1761507827693360000,9.511360107421876,-0.0591512771487236,-0.01331767366938293,-0.06984612803384661
1761507827713516000,9.53151611328125,-0.017452070060372353,0.0196535438937135,-0.03021232904270291
1761507827733671000,9.5516708984375,-0.0055932899624109265,0.03542687622006051,0.013448277779109775
1761507827753827000,9.5718271484375,-0.04157470392584801,0.03265338378557935,0.026604404211230573
1761507827773982000,9.59198193359375,-0.04333703742325306,0.006649415985797532,0.015698540923930703
1761507827794137900,9.612137939453126,-0.047560792598128315,-0.003921443193475716,0.0050848289836198084
1761507827814294000,9.6322939453125,-0.05831774893403053,-0.03601168580411467,0.002842785677872598
1761507827834449200,9.65244921875,-0.06414367860853672,-0.012096566342632285,0.022847353232651947
1761507827854604500,9.6726044921875,-0.06961129636466502,-0.01824341680088546,0.052153271487541494
1761507827874759400,9.692759521484374,-0.08286065403819083,-0.0006325896819587796,0.05603281633462757
1761507827894915600,9.71291552734375,-0.029306173983216284,0.0034486882823053745,0.013453538476116954
1761507827915071500,9.733071533203125,-0.01611059232354164,-0.005283625791617669,-0.021985621836781502
1761507827935226400,9.753226318359374,-0.13708499617874623,0.01456689741234295,-0.008001410550065337
1761507827955382500,9.773382568359375,-0.10626257241368293,0.01988877742169425,0.033789164616167544
1761507827975537700,9.79353759765625,-0.04415186093747615,-0.025571202405705117,0.019027794944494962
1761507827995693600,9.813693603515626,-0.03418050202131271,-0.025759993842919354,-0.021124949886836112
1761507828015849500,9.833849365234375,-0.017986907589435577,-0.0360982178766746,-0.007284202191419899
1761507828036004600,9.854004638671874,-0.010941665253043175,-0.023709340356849132,0.009239902836456895
1761507828056160500,9.874160400390625,-0.02828209163248539,-0.018975311272009274,0.07113671583365648
1761507828076316700,9.894316650390625,-0.06338438467383384,-0.03901363039934076,0.08292400159798562
1761507828096471600,9.914471435546876,-0.008605915781855582,-0.04281338800848462,0.03092500735670328
1761507828116627500,9.93462744140625,-0.09455810609459876,-0.00807088188997004,-0.008337072245217859
1761507828136782600,9.954782470703124,-0.082630936935544,0.011332664731470867,0.010547295640595257
1761507828156938500,9.9749384765625,-0.04594634313881397,-0.03128733786307275,-0.0007349632110446691
1761507828177094400,9.995094482421875,-0.04168751665055752,-0.027175893089408053,0.018843853212334213
1761507828197249500,10.01524951171875,-0.0432306544393301,-0.01140193514197599,0.04686035271119326
1761507828217405400,10.035405517578125,0.007358546069264412,-0.04789483315835241,-0.025472550637088715
1761507828237560600,10.055560546875,-0.20479192022681236,-0.011619537115143611,-0.009626819794811307
1761507828257716700,10.075716796875,-0.11087737273275852,-0.019147210939927026,0.027529410101659595
1761507828277872600,10.09587255859375,-0.04147942685782909,-0.010313760879356414,0.020835721149295567
1761507828298027500,10.116027587890626,-0.017016016730666158,-0.013236141998926176,0.014664923559874296
1761507828318183700,10.13618359375,-0.04161620498001575,-0.015803791396692395,-0.004348842859268188
1761507828338338600,10.156338623046874,-0.025696166792511937,-0.010643275961512698,0.005655358880572021
1761507828358494500,10.176494384765626,-0.03682663261592388,0.020188431655126623,-0.007923486475646495
1761507828378650600,10.196650634765625,-0.06443009433448314,0.02253446962488815,0.012861563932336867
1761507828398805500,10.216805419921876,-0.09520400278270244,-0.00768350827388931,-0.013967296684533358
1761507828418961400,10.23696142578125,-0.07434241653978824,0.019343605728284453,0.0026574922388419506
1761507828439116500,10.257116455078124,-0.07013327441215515,-0.022037571219727395,-0.003450615377910435
1761507828459272700,10.277272705078126,-0.006416881304979324,-0.04094240650483407,0.030582148735783993
1761507828479428600,10.2974287109375,-0.026114099943637847,-0.02710856347423978,0.04199124883748591
1761507828499583500,10.31758349609375,-0.04956804076731205,-0.023962356136692686,0.05459660951904952
1761507828519739600,10.33773974609375,-0.04132978925406933,-0.02193045758344233,0.027479798806272444
1761507828539894500,10.35789453125,-0.07434826175868511,-0.02206768323020078,-0.013033559498377143
1761507828560050400,10.378050537109376,-0.060092357391119,-0.02658123796477448,-0.004776018762774765
1761507828580206600,10.39820654296875,-0.06741407858133315,-0.012052690668287687,0.017922135257534683
1761507828600361500,10.418361572265624,-0.06422025097608566,0.006080598555319011,0.03230955705028027
1761507828620517400,10.438517333984375,-0.10396715495288371,-0.014799377294233999,0.014759689171239734
1761507828640672500,10.458672607421875,-0.06723579940497874,-0.027935031760483977,0.03124777303766459
1761507828660828700,10.47882861328125,-0.043726329001784324,-0.015311117075500078,0.0017910481352359055
1761507828680984600,10.498984619140625,-0.007805120792984962,-0.008813010060740634,-0.03728062346111983
1761507828701139500,10.519139404296874,0.02257774251103401,-0.023903123063012024,-0.008273943881131708
1761507828721295600,10.539295654296875,-0.03224105839133262,-0.03390516481180675,0.02518460054118186
1761507828741450500,10.559450439453125,-0.003587795358896255,-0.04498033395113889,0.08008790138922631
1761507828761606400,10.5796064453125,-0.01220540157854557,-0.02209534298868384,0.07595405298750847
1761507828781762600,10.599762451171875,-0.044586745223402974,0.021906209058174864,0.026675167892500757
1761507828801917400,10.61991748046875,-0.045075990045070645,-0.03488815938361222,-0.08473368136845529
1761507828822073300,10.6400732421875,-0.30818507468402384,-0.030041676050378007,-0.08152242770437151
1761507828842228000,10.66022802734375,0.18678981506824494,0.11701288894624448,0.016068835541047155
1761507828862384000,10.680384033203126,-0.47613574924767016,0.05349399573912378,-0.019805939710140226
1761507828882540000,10.7005400390625,-0.38263504325151443,-0.04648653269642964,-0.014368022972531615
1761507828902695000,10.72069482421875,-0.10413666630089283,0.04229173875455744,-0.05679711523801088
1761507828922850800,10.740850830078125,0.496643699747324,0.07921724690138363,-0.025003910212032496
