time,seconds_elapsed,z,y,x
1761507818260541700,0.078541748046875,-0.039943426847457886,0.023626668378710747,-0.053294092416763306
1761507818280696600,0.098696533203125,-0.0388917475938797,0.042706817388534546,-0.016014019027352333
1761507818300852700,0.118852783203125,-0.03538437932729721,0.002881552092730999,-0.01215518731623888
1761507818321007600,0.139007568359375,-0.019170530140399933,0.02097500115633011,0.03272128850221634
1761507818341163500,0.15916357421875,-0.012300913222134113,0.02936841920018196,0.04357082396745682
1761507818361319000,0.17931884765625,0.0026282428298145533,-0.012437017634510994,0.013099384494125843
1761507818381474800,0.199474853515625,0.009091474115848541,0.025142155587673187,0.03477691859006882
1761507818401630700,0.219630615234375,-0.004967087414115667,0.001485295593738556,-0.004903382621705532
1761507818421785900,0.239785888671875,0.008220376446843147,-0.0071706995368003845,-0.011497395113110542
1761507818441941800,0.259941650390625,0.006847233045846224,0.001162094995379448,0.005693003535270691
1761507818462096600,0.2800966796875,0.012367943301796913,-0.006884806323796511,0.01819760352373123
1761507818482252500,0.30025244140625,0.01795259863138199,-0.01388991717249155,0.033608172088861465
1761507818502408700,0.32040869140625,0.020601380616426468,-0.010348753072321415,0.039950739592313766
1761507818522563600,0.3405634765625,0.019754791632294655,-0.011975494213402271,0.025811925530433655
1761507818542719500,0.360719482421875,0.021782230585813522,-0.004179087467491627,0.01985822059214115
1761507818562875000,0.380875,0.020863983780145645,-0.004643104039132595,-0.004680291749536991
1761507818583030800,0.40103076171875,0.027427105233073235,0.005419258028268814,-0.02205885387957096
1761507818603186700,0.421186767578125,0.031367771327495575,-0.0073581053875386715,-0.053857337683439255
1761507818623341800,0.441341796875,0.038462672382593155,-0.00731469364836812,-0.05547381937503815
1761507818643497700,0.461497802734375,0.03554307669401169,-0.019996216520667076,-0.04820561036467552
1761507818663652600,0.481652587890625,0.031285181641578674,-0.018127193674445152,-0.02687058597803116
1761507818683808800,0.501808837890625,0.029397273436188698,-0.01791282370686531,0.012768054381012917
1761507818703964700,0.521964599609375,0.014470251277089119,-0.006286633666604757,0.02499096468091011
1761507818724119600,0.54211962890625,0.01939231902360916,-0.01594201661646366,0.029516858980059624
1761507818744275700,0.562275634765625,0.01859522983431816,-0.028201758861541748,0.016780873760581017
1761507818764430800,0.582430908203125,0.020804062485694885,-0.02655053324997425,0.012696567922830582
1761507818784586800,0.602586669921875,0.022121261805295944,-0.020270798355340958,0.00200557429343462
1761507818804741600,0.62274169921875,0.01706123538315296,-0.01531139388680458,0.011086132377386093
1761507818824897800,0.642897705078125,0.010549280792474747,-0.016375793144106865,-0.006948343478143215
1761507818845053200,0.66305322265625,0.006400080397725105,-0.008712134324014187,-0.02288261614739895
1761507818865208000,0.6832080078125,0.003487355774268508,-0.01032186858355999,-0.03952869400382042
1761507818885364200,0.7033642578125,0.006053609773516655,-0.00405339989811182,-0.028671344742178917
1761507818905519400,0.723519287109375,-0.00036275654565542936,-0.006854951847344637,-0.03397887945175171
1761507818925675300,0.74367529296875,-0.013872163370251656,0.010064322501420975,-0.021041905507445335
1761507818945831400,0.76383154296875,-0.016910048201680183,0.0060392096638679504,-0.020655537024140358
1761507818965986300,0.783986328125,-0.008435066789388657,-0.0024886196479201317,-0.014871198683977127
1761507818986142200,0.80414208984375,0.0025134715251624584,0.006034880876541138,-0.01239065919071436
1761507819006297000,0.824297119140625,0.013711776584386826,0.017546195536851883,-0.012866853736341
1761507819026453200,0.844453369140625,0.033179495483636856,0.015888363122940063,-0.004955782555043697
1761507819046608100,0.864608154296875,0.04586147144436836,0.008497665636241436,-0.013186345808207989
1761507819066764000,0.884763916015625,0.04785643517971039,0.009251167997717857,-0.016314614564180374
1761507819086920200,0.904920166015625,0.04409021511673927,0.005989220924675465,-0.017860041931271553
1761507819107075300,0.925075439453125,0.04009999334812164,-0.001687181182205677,-0.018988624215126038
1761507819127231200,0.945231201171875,0.02998344600200653,-0.0040020812302827835,-0.020391076803207397
1761507819147386400,0.965386474609375,0.024093585088849068,-0.003972386941313744,-0.01688459701836109
1761507819167542300,0.985542236328125,0.014995708130300045,-0.001325869932770729,-0.016525233164429665
1761507819187698200,1.0056982421875,0.0170585997402668,0.0022143349051475525,-0.012560132890939713
1761507819207853300,1.025853271484375,0.017015449702739716,0.0030316337943077087,-0.022135699167847633
1761507819228009200,1.04600927734375,0.028195129707455635,0.007905831560492516,-0.032242629677057266
1761507819248164000,1.0661640625,0.03829970583319664,0.0058019207790493965,-0.013114586472511292
1761507819268320300,1.0863203125,0.041854992508888245,0.010380282066762447,-0.003247734159231186
1761507819288476200,1.10647607421875,0.042750630527734756,0.005553540773689747,-0.0017728370148688555
1761507819308631300,1.12663134765625,0.04676590487360954,-0.011041644960641861,-0.0033409474417567253
1761507819328787200,1.146787109375,0.044350914657115936,0.013570016250014305,0.007993653416633606
1761507819348942300,1.1669423828125,0.03427594155073166,0.021576955914497375,0.008190887048840523
1761507819369098200,1.18709814453125,0.03303302824497223,-0.003650423139333725,-0.003667176002636552
1761507819389253000,1.207253173828125,0.0305677130818367,0.0038159340620040894,-0.00601658970117569
1761507819409409300,1.2274091796875,0.032642342150211334,-0.0020222067832946777,-0.014805598184466362
1761507819429565200,1.247565185546875,0.04354451969265938,-0.01961173489689827,-0.025967389345169067
1761507819449720000,1.267719970703125,0.06003321707248688,-0.03363536670804024,-0.020633060485124588
1761507819469876200,1.287876220703125,0.054211556911468506,-0.016995498910546303,-0.00043898983858525753
1761507819490031400,1.30803125,0.039449118077754974,0.00007708277553319931,0.021735602989792824
1761507819510187300,1.328187255859375,0.04253385588526726,0.004988378845155239,0.03763313964009285
1761507819530342100,1.348342041015625,0.055919431149959564,-0.0038005467504262924,0.04431476444005966
1761507819550498300,1.368498291015625,0.056092269718647,0.0033590951934456825,0.04952603951096535
1761507819570654200,1.388654296875,0.04989909753203392,-0.003878510557115078,0.034029021859169006
1761507819590809000,1.40880908203125,0.03610445559024811,-0.010150174610316753,-0.0001912345178425312
1761507819610965200,1.42896533203125,0.033588044345378876,0.0010392284020781517,-0.030979402363300323
1761507819631120100,1.4491201171875,0.029124310240149498,0.01206290628761053,-0.05078919604420662
1761507819651276000,1.469276123046875,0.03459923341870308,0.026069656014442444,-0.06432785838842392
1761507819671432200,1.48943212890625,0.04602206498384476,0.015119229443371296,-0.07564257830381393
1761507819691587300,1.50958740234375,0.04985809698700905,-0.0039986735209822655,-0.06358768045902252
1761507819711743200,1.5297431640625,0.04649237170815468,0.0026327455416321754,-0.029829174280166626
1761507819731898400,1.5498984375,0.038731649518013,0.0035169553011655807,0.006365331821143627
1761507819752054300,1.57005419921875,0.0429687462747097,0.004016895778477192,0.03810533881187439
1761507819772210200,1.590210205078125,0.043811898678541183,-0.014603499323129654,0.039076391607522964
1761507819792365300,1.610365234375,0.0501645989716053,-0.00011152122169733047,0.061816904693841934
1761507819812521200,1.630521240234375,0.052847228944301605,-0.009363304823637009,0.05002891272306442
1761507819832677000,1.650677001953125,0.05717618763446808,-0.02397080883383751,0.04202939197421074
1761507819852833300,1.670833251953125,0.04904155805706978,-0.015904013067483902,0.0352410264313221
1761507819872988200,1.69098828125,0.03565811738371849,-0.015185960568487644,0.00959763303399086
1761507819893144000,1.71114404296875,0.028354128822684288,-0.02032102644443512,-0.014752430841326714
1761507819913300200,1.73130029296875,0.018369140103459358,-0.03536176308989525,-0.04540061950683594
1761507819933455000,1.751455078125,0.008003843948245049,-0.0253043994307518,-0.05095323175191879
1761507819953611000,1.771611083984375,-0.002100708894431591,-0.019004028290510178,-0.04567847028374672
1761507819973766400,1.791766357421875,-0.01768551766872406,-0.004312755540013313,-0.015634413808584213
1761507819993922300,1.81192236328125,-0.03655509650707245,0.009199661202728748,0.011452838778495789
1761507820014078200,1.832078125,-0.04282577708363533,0.00838362704962492,0.013548198156058788
1761507820034233300,1.8522333984375,-0.03719347342848778,0.013496272265911102,0.004946366883814335
1761507820054389200,1.87238916015625,-0.027951475232839584,-0.006478769704699516,-0.021984107792377472
1761507820074544000,1.892544189453125,-0.013075319118797779,-0.015597940422594547,-0.029177933931350708
1761507820094700000,1.912699951171875,-0.01456297468394041,0.007504398934543133,-0.01478016097098589
1761507820114855200,1.932855224609375,-0.021151116117835045,0.01086761150509119,-0.008413429372012615
1761507820135011000,1.953010986328125,-0.0258108451962471,0.0009861001744866371,-0.0023292202968150377
1761507820155167000,1.9731669921875,-0.024070221930742264,-0.008764545433223248,-0.006202576216310263
1761507820175322400,1.993322265625,-0.018188336864113808,-0.010242068208754063,-0.0020363861694931984
1761507820195478300,2.013478271484375,-0.009458513930439949,-0.017511937767267227,-0.006814935244619846
1761507820215633200,2.033633056640625,-0.011996233835816383,-0.03827303647994995,-0.020665036514401436
1761507820235789300,2.053789306640625,-0.0161888487637043,-0.03818648308515549,-0.013443606905639172
1761507820255945200,2.0739453125,-0.019083172082901,-0.023838169872760773,0.010296609252691269
1761507820276100000,2.09410009765625,-0.031942494213581085,-0.008532173000276089,0.031773991882801056
1761507820296256300,2.11425634765625,-0.033518046140670776,-0.025360992178320885,0.016409726813435555
1761507820316411100,2.1344111328125,-0.030270550400018692,-0.028994400054216385,0.015577301383018494
1761507820336567000,2.154567138671875,-0.04347345232963562,-0.026250064373016357,0.0021857894025743008
1761507820356723200,2.17472314453125,-0.06428074836730957,-0.008327413350343704,0.019429750740528107
1761507820376878300,2.19487841796875,-0.08767236024141312,-0.007432978134602308,0.001155356876552105
1761507820397034200,2.2150341796875,-0.09194114804267883,-0.005374114029109478,0.011760428547859192
1761507820417189000,2.235189208984375,-0.08366243541240692,-0.002779596485197544,0.023598629981279373
1761507820437345300,2.25534521484375,-0.06416597217321396,0.008727389387786388,0.028323611244559288
1761507820457500200,2.275500244140625,-0.03260458633303642,0.01661454141139984,0.0302190650254488
1761507820477656000,2.295656005859375,-0.011385828256607056,0.011297167278826237,0.014927199110388756
1761507820497812200,2.315812255859375,0.007631279528141022,-0.0002934178337454796,-0.007473277859389782
1761507820517967000,2.335967041015625,0.02552211284637451,-0.01690436527132988,-0.015022062696516514
1761507820538123000,2.356123046875,0.032161395996809006,-0.019024018198251724,-0.006479514762759209
1761507820558278400,2.3762783203125,0.029872672632336617,-0.0015766089782118797,0.023226546123623848
1761507820578434300,2.396434326171875,0.03825977072119713,-0.023283742368221283,0.027534911409020424
1761507820598590200,2.416590087890625,0.04785645380616188,-0.03587532415986061,0.03759392723441124
1761507820618745300,2.436745361328125,0.04035487771034241,-0.024983825162053108,0.05442860722541809
1761507820638901200,2.4569013671875,0.030773352831602097,-0.010737123899161816,0.05701218917965889
1761507820659056000,2.47705615234375,0.03630658611655235,-0.018838390707969666,0.03462749719619751
1761507820679212300,2.49721240234375,0.04293493553996086,-0.021230190992355347,0.018748020753264427
1761507820699368200,2.5173681640625,0.04446597024798393,-0.0017066095024347305,0.02026382088661194
1761507820719523000,2.537523193359375,0.03988426551222801,-0.008499720133841038,0.007347788196057081
1761507820739679000,2.557678955078125,0.019361691549420357,-0.017128456383943558,-0.01593823917210102
1761507820759834400,2.57783447265625,-0.0055018458515405655,-0.0034469980746507645,-0.02111835405230522
1761507820779990300,2.597990234375,-0.026100080460309982,0.014441628940403461,-0.02066943235695362
1761507820800145200,2.618145263671875,-0.03605494275689125,0.030222557485103607,-0.01844794675707817
1761507820820301300,2.63830126953125,-0.03560488298535347,0.02374637871980667,-0.02428598329424858
1761507820840456400,2.65845654296875,-0.03890429437160492,0.018253143876791,-0.024384809657931328
1761507820860611300,2.678611328125,-0.04552115127444267,0.015051370486617088,-0.011344481259584427
1761507820880767200,2.698767333984375,-0.05125441402196884,0.014918266795575619,-0.004049420822411776
1761507820900922600,2.718922607421875,-0.040449440479278564,0.023404322564601898,-0.0029651832301169634
1761507820921078500,2.73907861328125,-0.03198724612593651,0.019866153597831726,-0.015038156881928444
1761507820941234400,2.759234375,-0.026468627154827118,0.003585049882531166,-0.023946858942508698
1761507820961389600,2.7793896484375,-0.026514451950788498,0.017662469297647476,-0.00981992669403553
1761507820981545500,2.79954541015625,-0.024606015533208847,0.010132165625691414,-0.014344031922519207
1761507821001700400,2.819700439453125,-0.015137959271669388,-0.008157944306731224,-0.026942186057567596
1761507821021856300,2.839856201171875,-0.007401225157082081,-0.009883232414722443,-0.02761152759194374
1761507821042012400,2.860012451171875,-0.005552956368774176,0.00582593958824873,-0.011256959289312363
1761507821062167300,2.880167236328125,-0.007518406957387924,0.004786870442330837,-0.00845431163907051
1761507821082323200,2.9003232421875,-0.008905087597668171,-0.005079078488051891,-0.011948437429964542
1761507821102478600,2.920478515625,-0.009357301518321037,-0.002241198904812336,-0.005845691077411175
1761507821122634500,2.940634521484375,-0.010667836293578148,0.006514274515211582,0.004627109505236149
1761507821142790400,2.960790283203125,-0.008024132810533047,0.0021511660888791084,0.0031625651754438877
1761507821162945500,2.980945556640625,-0.002040801802650094,0.0023472411558032036,-0.006801467388868332
1761507821183101400,3.001101318359375,-0.004515144973993301,0.0023826612159609795,-0.020137246698141098
1761507821203256300,3.02125634765625,-0.0074190543964505196,0.011677851900458336,-0.01652441918849945
1761507821223412500,3.04141259765625,-0.007344261277467012,-0.004932762123644352,-0.03680633008480072
1761507821243568400,3.061568359375,-0.007294151000678539,0.002817208878695965,-0.016090072691440582
1761507821263723300,3.08172314453125,-0.02315777726471424,0.001828557811677456,-0.005347502417862415
1761507821283879400,3.10187939453125,-0.026829227805137634,0.016763944178819656,0.021142421290278435
1761507821304034600,3.12203466796875,-0.029028182849287987,0.024533070623874664,0.023098520934581757
1761507821324190500,3.1421904296875,-0.01652359962463379,0.003200358711183071,-0.020635854452848434
1761507821344345300,3.162345458984375,0.0010362048633396626,0.009027528576552868,-0.012792401015758514
1761507821364501500,3.18250146484375,0.010408679954707623,-0.015731707215309143,-0.027834344655275345
1761507821384657400,3.202657470703125,0.01214479748159647,0.0038333917036652565,-0.0038211881183087826
1761507821404812300,3.222812255859375,-0.001675706822425127,0.004081905819475651,0.01948314532637596
1761507821424968400,3.242968505859375,-0.005410497076809406,0.007478273473680019,0.03595874831080437
1761507821445123300,3.263123291015625,-0.0028024446219205856,-0.001469218172132969,0.028851594775915146
1761507821465279200,3.283279296875,-0.0017744856886565685,-0.00985749252140522,0.00162051385268569
1761507821485435400,3.303435302734375,0.005243736319243908,0.002256360836327076,0.008253197185695171
1761507821505590500,3.323590576171875,-0.0002242623595520854,0.0008314503356814384,-0.010214807465672493
1761507821525746400,3.343746337890625,0.005545745138078928,-0.008995960466563702,-0.016211213544011116
1761507821545901600,3.363901611328125,0.011035083793103695,-0.016828829422593117,-0.027972683310508728
1761507821566057500,3.384057373046875,0.008686958812177181,-0.018416576087474823,-0.03477470576763153
1761507821586213400,3.40421337890625,0.010447042062878609,-0.008039833977818489,-0.03912391513586044
1761507821606368500,3.424368408203125,0.01373099535703659,-0.0006733192130923271,-0.03637033328413963
1761507821626524400,3.4445244140625,0.010782843455672264,-0.009675892069935799,-0.028970321640372276
1761507821646679300,3.46467919921875,0.008648608811199665,0.004622697830200195,-0.0055382573045790195
1761507821666835200,3.484835205078125,-0.0018969796365126967,0.014650684781372547,0.010049273259937763
1761507821686991400,3.504991455078125,-0.003628036705777049,0.007615226320922375,0.02645144797861576
1761507821707146500,3.525146484375,-0.0071948217228055,0.005714927799999714,0.025726962834596634
1761507821727302400,3.545302490234375,-0.011846539564430714,0.018910355865955353,0.03602695092558861
1761507821747457500,3.56545751953125,-0.008523217402398586,0.005209780298173428,0.0187474824488163
1761507821767613400,3.585613525390625,-0.007703471928834915,0.002400756813585758,0.007710517384111881
1761507821787769300,3.605769287109375,-0.0013638248201459646,0.009150512516498566,-0.00529067125171423
1761507821807924500,3.625924560546875,-0.001574999769218266,0.0020005488768219948,-0.015286492183804512
1761507821828080400,3.646080322265625,0.001303607365116477,0.007004215382039547,-0.016445450484752655
1761507821848235000,3.666235107421875,0.0005198274739086628,0.008442417718470097,-0.01755025051534176
1761507821868391000,3.686390869140625,0.006361489184200764,0.0028372351080179214,-0.019128400832414627
1761507821888546800,3.706546875,0.003794737858697772,-0.01534987986087799,-0.0211162306368351
1761507821908702200,3.7267021484375,-0.0038919500075280666,-0.004513276740908623,0.0033745437394827604
1761507821928858000,3.746858154296875,-0.02475596033036709,0.00889038760215044,0.02642856165766716
1761507821949013000,3.767012939453125,-0.03188818320631981,0.017480771988630295,0.03405014052987099
1761507821969169200,3.787169189453125,-0.023099226877093315,0.003838133066892624,-0.005523285828530788
1761507821989325000,3.807324951171875,0.00022583315148949623,0.007046585902571678,-0.024640893563628197
1761507822009480000,3.82747998046875,0.009955421090126038,-0.0020594000816345215,-0.04038996249437332
1761507822029636000,3.847635986328125,0.018064212054014206,0.012937779538333416,-0.02492307499051094
1761507822049791000,3.867791015625,0.02098064124584198,0.00249513890594244,-0.00611667986959219
1761507822069947000,3.88794677734375,0.021540937945246696,0.01338869333267212,0.024457864463329315
1761507822090102000,3.90810205078125,0.024871256202459335,0.016763702034950256,0.03652261197566986
1761507822110258200,3.928258056640625,0.03159014880657196,-0.0011668698862195015,0.03197018802165985
1761507822130414000,3.9484140625,0.034344643354415894,-0.018281765282154083,0.011795587837696075
1761507822150569000,3.96856884765625,0.03334248438477516,-0.014162333682179451,0.013243678957223892
1761507822170725000,3.98872509765625,0.024063775315880775,-0.008491184562444687,0.014318134635686874
1761507822190880000,4.0088798828125,0.012917371466755867,-0.008078648708760738,0.01842404343187809
1761507822211034000,4.0290341796875,0.012875844724476337,-0.007046475540846586,0.01698675937950611
1761507822231189000,4.04918896484375,0.012645751237869263,-0.008250079117715359,0.012250545434653759
1761507822251345200,4.06934521484375,0.01103215478360653,-0.01663978584110737,-0.006254889070987701
1761507822271501000,4.0895009765625,0.0026895327027887106,-0.016382096335291862,-0.014760163612663746
1761507822291656000,4.109656005859375,-0.00822015106678009,0.0021391957998275757,0.00044545624405145645
1761507822311812000,4.12981201171875,-0.01395498402416706,0.0008164169266819954,-0.005589744076132774
1761507822331967200,4.14996728515625,-0.01870979182422161,-0.0047592176124453545,-0.015923891216516495
1761507822352123100,4.170123046875,-0.024950094521045685,-0.006119283847510815,-0.02020779624581337
1761507822372279000,4.190279052734375,-0.03010198473930359,0.0014301799237728119,-0.012637946754693985
1761507822392434200,4.21043408203125,-0.022828103974461555,-0.007083091884851456,-0.014837588183581829
1761507822412590000,4.230590087890625,-0.014466834254562855,-0.0035637393593788147,-0.017884623259305954
1761507822432745000,4.250744873046875,-0.006542573217302561,-0.012685151770710945,-0.017156869173049927
1761507822452901000,4.270901123046875,0.00011637154966592789,0.0011380314826965332,0.006575961597263813
1761507822473057000,4.29105712890625,0.0019014698918908834,-0.018997035920619965,0.013617586344480515
1761507822493212000,4.3112119140625,0.005312727764248848,-0.013210161589086056,0.034835610538721085
1761507822513368000,4.3313681640625,0.009319995529949665,-0.004967733286321163,0.03273238241672516
1761507822533523200,4.351523193359375,0.019506562501192093,-0.02173157036304474,0.03355454280972481
1761507822553679000,4.37167919921875,0.023036057129502296,-0.027407005429267883,0.018563246354460716
1761507822573835000,4.3918349609375,0.017645034939050674,-0.025247663259506226,0.018718048930168152
1761507822593992000,4.411991943359375,0.008516253903508186,-0.007430091500282288,0.026203911751508713
1761507822614147000,4.43214697265625,0.0018604444339871407,-0.01687120832502842,-0.0002693198621273041
1761507822634303000,4.452302978515625,0.006054188124835491,-0.016866758465766907,-0.012164950370788574
1761507822654458000,4.4724580078125,0.0067524537444114685,-0.01770074851810932,-0.024398457258939743
1761507822674614000,4.492614013671875,0.006621143780648708,-0.0009483294561505318,0.000012319069355726242
1761507822694770200,4.512770263671875,-0.005936192348599434,-0.004846970550715923,0.012425296008586884
1761507822714925000,4.532925048828125,-0.009385772049427032,-0.012645148672163486,0.02303355559706688
1761507822735081000,4.5530810546875,-0.01164760161191225,-0.004050886258482933,0.03349428251385689
1761507822755236000,4.573236083984375,-0.010798347182571888,0.0006707143038511276,0.03328957408666611
1761507822775392000,4.59339208984375,-0.005321010947227478,0.004605134017765522,0.025429893285036087
1761507822795548000,4.6135478515625,0.0010234187357127666,-0.0008146362379193306,0.013463737443089485
1761507822815703000,4.633703125,0.009377258829772472,-0.006226276978850365,0.006715616211295128
1761507822835859700,4.653859619140625,0.013004470616579056,0.002331208437681198,0.015397981740534306
1761507822856014800,4.674014892578125,0.019739357754588127,0.01129578985273838,0.01994239166378975
1761507822876170800,4.694170654296875,0.032843418419361115,-0.011450797319412231,0.002485161181539297
1761507822896326700,4.71432666015625,0.04427983984351158,-0.022449586540460587,-0.007437591440975666
1761507822916481800,4.734481689453125,0.04753769561648369,-0.01581765152513981,0.006616546772420406
1761507822936638000,4.754637939453125,0.04465000703930855,-0.008998170495033264,0.026321833953261375
1761507822956792800,4.774792724609375,0.05143042281270027,-0.01940254308283329,0.02982513979077339
1761507822976948700,4.79494873046875,0.044398628175258636,-0.01788526587188244,0.025384560227394104
1761507822997105000,4.81510498046875,0.039049141108989716,-0.008450032211840153,0.020922668278217316
1761507823017259800,4.835259765625,0.02713307924568653,-0.01112434733659029,0.004003033973276615
1761507823037415700,4.855415771484375,0.019360646605491638,-0.013447850942611694,-0.012407428584992886
1761507823057570800,4.87557080078125,0.003619215916842222,0.004736056551337242,-0.008122410625219345
1761507823077726700,4.895726806640625,-0.010760508477687836,0.00813380815088749,-0.0056114946492016315
1761507823097882600,4.915882568359375,-0.01124307420104742,-0.006675457116216421,-0.01967829465866089
1761507823118037800,4.936037841796875,-0.01627165824174881,-0.010454361326992512,-0.023136360570788383
1761507823138194000,4.95619384765625,-0.023634253069758415,0.0007136715576052666,-0.015250232070684433
1761507823158348800,4.976348876953125,-0.02941916324198246,0.020747020840644836,-0.007065652869641781
1761507823178504700,4.996504638671875,-0.02045307867228985,0.003906679339706898,-0.011365851387381554
1761507823198660900,5.016660888671875,-0.019131887704133987,-0.012019209563732147,-0.011486992239952087
1761507823218815700,5.036815673828125,-0.02615705318748951,0.0025055790320038795,0.006417883560061455
1761507823238971600,5.0569716796875,-0.03317553550004959,0.0186748243868351,0.015338246710598469
1761507823259126800,5.077126708984375,-0.02376553602516651,0.01611490547657013,0.0017158223781734705
1761507823279282700,5.09728271484375,-0.008404936641454697,0.000046652741730213165,-0.02522602304816246
1761507823299438600,5.1174384765625,0.004494885914027691,-0.013420007191598415,-0.04007026180624962
1761507823319594000,5.137593994140625,0.004863978363573551,-0.00653607863932848,-0.03118327260017395
1761507823339750000,5.15775,-0.0008777758339419961,0.0033582132309675217,-0.011816771700978279
1761507823359904800,5.17790478515625,-0.005631531588733196,0.006255376152694225,0.017714399844408035
1761507823380061000,5.19806103515625,-0.008531186729669571,0.019616082310676575,0.035197582095861435
1761507823400216800,5.218216796875,-0.0013110816944390535,0.011593029834330082,0.02472325786948204
1761507823420371700,5.238371826171875,0.012460652738809586,0.00249339547008276,0.00579515565186739
1761507823440528000,5.25852783203125,0.014244445599615574,0.006180299445986748,-0.0027028219774365425
1761507823460682800,5.278682861328125,0.009906698018312454,0.015879210084676743,0.010388616472482681
1761507823480838700,5.298838623046875,0.002260478911921382,0.01765267923474312,0.01290634460747242
1761507823500994600,5.31899462890625,-0.0064696455374360085,0.01680893823504448,0.006265680305659771
1761507823521150000,5.33914990234375,-0.0035058052744716406,0.006819447502493858,-0.011889718472957611
1761507823541305900,5.359305908203125,-0.0015819352120161057,0.0014448417350649834,-0.020460601896047592
1761507823561460700,5.379460693359375,-0.0011387777049094439,0.006958941929042339,-0.00934572983533144
1761507823581617000,5.399616943359375,-0.005906620062887669,0.0071850549429655075,0.002759458962827921
1761507823601772800,5.419772705078125,-0.008931443095207214,0.005750078707933426,0.01280205324292183
1761507823621927700,5.439927734375,-0.011758144944906235,0.001546734943985939,0.018254900351166725
1761507823642083800,5.460083740234375,-0.008557014167308807,0.013451770879328251,0.03375861421227455
1761507823662238700,5.48023876953125,-0.007570318877696991,0.005404162220656872,0.027965253219008446
1761507823682394600,5.50039453125,-0.006326081231236458,0.008900079876184464,0.019975390285253525
1761507823702550800,5.52055078125,-0.009220686741173267,0.005077061243355274,0.006352184806019068
1761507823722706000,5.540705810546875,-0.014947793446481228,0.015105310827493668,0.012508871965110302
1761507823742861800,5.56086181640625,-0.015060706995427608,0.007285844534635544,-0.007059568073600531
1761507823763016700,5.5810166015625,-0.00876951776444912,0.002681383863091469,-0.013040277175605297
1761507823783172900,5.6011728515625,-0.00937511958181858,0.0016456395387649536,-0.011671428568661213
1761507823803328800,5.621328857421875,-0.014201325364410877,0.005827912129461765,0.0008755950257182121
1761507823823483600,5.641483642578125,-0.016009613871574402,-0.0028746845200657845,-0.00039363489486277103
1761507823843639600,5.6616396484375,-0.011945076286792755,-0.01558716781437397,0.0012258247006684542
1761507823863794700,5.681794677734375,-0.009805204346776009,-0.014724924229085445,0.018377292901277542
1761507823883950600,5.70195068359375,-0.017188850790262222,0.006378107704222202,0.03858477622270584
1761507823904106500,5.7221064453125,-0.028553614392876625,0.01274779997766018,0.04047496244311333
1761507823924261600,5.74226171875,-0.027505647391080856,0.00975579023361206,0.01166682131588459
1761507823944417800,5.762417724609375,-0.02449788711965084,0.001866697333753109,-0.021542854607105255
1761507823964572700,5.78257275390625,-0.015876976773142815,-0.0013568177819252014,-0.03697977215051651
1761507823984728600,5.802728515625,-0.014962448738515377,0.0028348127380013466,-0.028441645205020905
1761507824004884700,5.822884765625,-0.020339379087090492,0.01768164336681366,-0.0017833050806075335
1761507824025039600,5.84303955078125,-0.023916790261864662,0.01367238536477089,0.01433531567454338
1761507824045195500,5.863195556640625,-0.020659225061535835,0.011077268980443478,0.022479424253106117
1761507824065350700,5.8833505859375,-0.008594287559390068,0.0013667820021510124,0.02014172449707985
1761507824085506600,5.903506591796875,-0.0005499465623870492,0.008042914792895317,0.019282106310129166
1761507824105662500,5.923662353515625,0.002865819027647376,0.010769885033369064,0.014023225754499435
1761507824125817900,5.94381787109375,-0.0021869931370019913,0.0071665095165371895,0.0021510717924684286
1761507824145973800,5.963973876953125,-0.0035289600491523743,-0.0007782336324453354,-0.00836148951202631
1761507824166128600,5.984128662109375,-0.00302323279902339,-0.003958339802920818,-0.008473511785268784
1761507824186284800,6.004284912109375,-0.003047451376914978,-0.000848863273859024,-0.011538770981132984
1761507824206440700,6.024440673828125,0.0012378182727843523,-0.00536668486893177,-0.01042020320892334
1761507824226595600,6.044595703125,-0.0018447779584676027,0.0006492612883448601,0.0034935870207846165
1761507824246751700,6.064751708984375,-0.0017678224248811603,0.00007087737321853638,0.016429755836725235
1761507824266906600,6.08490673828125,-0.0025739455595612526,-0.007723385933786631,0.02104933187365532
1761507824287062500,6.1050625,-0.0015425217570737004,-0.015855012461543083,0.012354351580142975
1761507824307218700,6.12521875,-0.004248286597430706,-0.0023593781515955925,0.008343550376594067
1761507824327373800,6.145373779296875,-0.0020578433759510517,0.0025767264887690544,0.004075915552675724
1761507824347529700,6.16552978515625,-0.007165496237576008,-0.00402472261339426,-0.004592463374137878
1761507824367684600,6.1856845703125,-0.01080071646720171,-0.0013690833002328873,0.0005629640072584152
1761507824387840800,6.2058408203125,-0.009245706722140312,0.0003561675548553467,-0.0006750102620571852
1761507824407996700,6.22599658203125,-0.008443545550107956,-0.005942238494753838,-0.0005239688325673342
1761507824428151600,6.246151611328125,-0.007114076055586338,-0.006601952016353607,0.0019018339226022363
1761507824448307700,6.2663076171875,-0.011711250990629196,-0.008826999925076962,0.004972625989466906
1761507824468462600,6.286462646484375,-0.014259368181228638,-0.005324781872332096,0.01825440675020218
1761507824488618500,6.306618408203125,-0.015567508526146412,-0.0042895060032606125,0.016189327463507652
1761507824508773600,6.326773681640625,-0.0075306398794054985,0.005221511237323284,0.003407728625461459
1761507824528929800,6.3469296875,0.0018426112364977598,-0.03668886795639992,-0.020604267716407776
1761507824549085700,6.367085693359375,-0.008143707178533077,-0.023147571831941605,-0.0063358815386891365
1761507824569240600,6.387240478515625,-0.02248639613389969,0.0061626676470041275,0.023238101974129677
1761507824589396700,6.407396728515625,-0.028055857867002487,0.013265075162053108,0.028641292825341225
1761507824609551600,6.427551513671875,-0.0215242151170969,0.010476832278072834,0.01448321808129549
1761507824629707500,6.44770751953125,-0.005842454731464386,0.005233027972280979,-0.0038822228088974953
1761507824649863700,6.46786376953125,0.0028668856248259544,0.004063473083078861,-0.015700865536928177
1761507824670018600,6.4880185546875,0.004200883209705353,0.008317907340824604,-0.017402930185198784
1761507824690174500,6.508174560546875,0.00027111824601888657,0.02091512642800808,-0.005012492649257183
1761507824710330600,6.52833056640625,-0.005356967449188232,0.01654660329222679,0.009413955733180046
1761507824730485800,6.54848583984375,-0.004916207864880562,0.013951417990028858,0.016192685812711716
1761507824750641700,6.5686416015625,-0.001662070513702929,0.010007085278630257,0.024481216445565224
1761507824770796800,6.588796875,0.003008569125086069,0.01546381413936615,0.023535970598459244
1761507824790952700,6.60895263671875,0.0016471489798277617,0.0026027439162135124,0.01765667274594307
1761507824811108600,6.629108642578125,0.006408374756574631,-0.003307201899588108,0.009621812030673027
1761507824831263700,6.649263671875,0.0053199357353150845,0.001285887323319912,0.005711573176085949
1761507824851419100,6.669419189453125,0.005739091895520687,0.0069696493446826935,0.007349223364144564
1761507824871574500,6.689574462890625,0.0025236038491129875,0.012129656039178371,0.003018495161086321
1761507824891730400,6.70973046875,0.0015110827516764402,0.0010259626433253288,-0.009346205741167068
1761507824911885300,6.72988525390625,-0.004822175018489361,-0.0026438087224960327,-0.020906802266836166
1761507824932041500,6.75004150390625,-0.007556459866464138,-0.000712146982550621,-0.020896440371870995
1761507824952197400,6.770197265625,-0.005127384327352047,0.0008400082588195801,-0.01829914003610611
1761507824972352300,6.790352294921875,-0.01298131886869669,0.002651425078511238,-0.01250481978058815
1761507824992508400,6.81050830078125,-0.021420340985059738,0.004341920837759972,0.00034063844941556454
1761507825012663300,6.830663330078125,-0.01919528655707836,0.005960538052022457,0.01427928451448679
1761507825032819200,6.850819091796875,-0.010554112493991852,0.0067244237288832664,0.014631976373493671
1761507825052975400,6.870975341796875,-0.006952167488634586,-0.0014285026118159294,-0.0010082595981657505
1761507825073130500,6.891130615234375,-0.005877852439880371,-0.005223878659307957,-0.011231805197894573
1761507825093286400,6.911286376953125,-0.0005313069559633732,-0.009779145009815693,-0.012340502813458443
1761507825113441300,6.931441162109375,-0.0062618921510875225,-0.00577178131788969,-0.014094792306423187
1761507825133597400,6.951597412109375,-0.013680689036846161,0.0037526050582528114,-0.01788782700896263
1761507825153753300,6.97175341796875,-0.01063215546309948,0.006695264019072056,-0.0020621540024876595
1761507825173908200,6.991908203125,-0.009936257265508175,-0.006721383426338434,-0.0024189292453229427
1761507825194064400,7.012064453125,-0.004361474886536598,-0.010567385703325272,-0.007350408937782049
1761507825214219300,7.03221923828125,0.004329231102019548,-0.025656193494796753,-0.014817276038229465
1761507825234375200,7.052375244140625,0.005837376229465008,-0.025400182232260704,-0.010706920176744461
1761507825254531300,7.07253125,-0.003910575062036514,-0.009165889583528042,0.009292112663388252
1761507825274686500,7.0926865234375,-0.00858017522841692,-0.00715818302705884,0.011641213670372963
1761507825294842400,7.11284228515625,-0.008791903965175152,-0.004686794243752956,0.01015233714133501
1761507825314997200,7.132997314453125,0.0023672888055443764,-0.008665280416607857,-0.008170153945684433
1761507825335153400,7.1531533203125,0.0073372721672058105,-0.01196119375526905,-0.015965646132826805
1761507825355309300,7.173309326171875,0.01026514358818531,-0.01451142132282257,-0.012943378649652004
1761507825375464200,7.193464111328125,-0.0040173945017158985,-0.0014308793470263481,0.010413674637675285
1761507825395620400,7.213620361328125,-0.02151329442858696,0.000958654098212719,0.025921745225787163
1761507825415775200,7.233775146484375,-0.026667293161153793,0.00954594649374485,0.036693722009658813
1761507825435931100,7.25393115234375,-0.02395806647837162,0.01174839586019516,0.03466983139514923
1761507825456087300,7.27408740234375,-0.01800297573208809,0.01660989224910736,0.01888187974691391
1761507825476242200,7.2942421875,-0.015328900888562202,0.008351589553058147,0.005013001151382923
1761507825496398300,7.3143984375,-0.010117648169398308,-0.0060680280439555645,-0.014862192794680595
1761507825516553500,7.334553466796875,-0.01026780903339386,-0.0010152049362659454,-0.016415616497397423
1761507825536709400,7.35470947265625,-0.008019834756851196,0.013716336339712143,-0.012282921932637691
1761507825556865300,7.374865234375,0.0011643411125987768,0.007943176664412022,-0.0025330735370516777
1761507825577020400,7.3950205078125,0.006758298259228468,0.002665500156581402,-0.003979790955781937
1761507825597176300,7.41517626953125,0.002027193084359169,-0.0002967333421111107,0.000605905894190073
1761507825617331200,7.435331298828125,-0.002252250211313367,-0.0022200141102075577,0.011364140547811985
1761507825637487400,7.4554873046875,-0.007799066603183746,0.0013941721990704536,0.018141942098736763
1761507825657643300,7.475643310546875,-0.012347482144832611,-0.0028396407142281532,0.016478562727570534
1761507825677798100,7.495798095703125,-0.004042436368763447,-0.0044445376843214035,0.0067210327833890915
1761507825697954300,7.515954345703125,-0.002319107763469219,0.00371733121573925,0.01058264821767807
1761507825718109400,7.536109375,-0.0013896437594667077,0.01879097893834114,0.016604594886302948
1761507825738265300,7.556265380859375,0.004272769205272198,0.013240154832601547,0.014659421518445015
1761507825758421200,7.576421142578125,0.01006487850099802,-0.0029960740357637405,-0.002486008685082197
1761507825778576400,7.596576416015625,0.003989150747656822,-0.005201452411711216,-0.0009255087934434414
1761507825798732300,7.616732177734375,0.004620022140443325,0.006252473220229149,0.010927027091383934
1761507825818887200,7.63688720703125,0.003822965081781149,0.006617816165089607,0.018737206235527992
1761507825839042800,7.657042724609375,0.009001197293400764,0.003105936571955681,0.005163300782442093
1761507825859198700,7.67719873046875,0.021846987307071686,-0.009016260504722595,-0.0019459112081676722
1761507825879354000,7.69735400390625,0.0293876975774765,-0.01067698746919632,-0.007019329816102982
1761507825899510000,7.717510009765625,0.036650147289037704,-0.015199396759271622,-0.021590162068605423
1761507825919665000,7.737664794921875,0.050361424684524536,-0.03625627979636192,-0.029658392071723938
1761507825939821000,7.757821044921875,0.039877649396657944,-0.026343876495957375,-0.006786908023059368
1761507825959977000,7.77797705078125,0.020658137276768684,-0.005007147789001465,0.017611755058169365
1761507825980131800,7.7981318359375,0.004425103310495615,-0.0008392194285988808,0.01622827537357807
1761507826000288000,7.8182880859375,0.001685235882177949,-0.015333766117691994,-0.019309116527438164
1761507826020443000,7.83844287109375,0.01538616232573986,-0.02112235315144062,-0.040777258574962616
1761507826040598800,7.858598876953125,0.017399217933416367,-0.024135513231158257,-0.04756605625152588
1761507826060755000,7.8787548828125,0.012042801827192307,-0.0055272080935537815,-0.03732353821396828
1761507826080910000,7.89891015625,0.0032988402526825666,-0.008191274479031563,-0.012916665524244308
1761507826101066000,7.91906591796875,-0.006314088590443134,0.000678621232509613,0.012887008488178253
1761507826121220900,7.939220947265625,-0.012569044716656208,0.0011900784447789192,0.019116513431072235
1761507826141377000,7.959376953125,-0.012646300718188286,-0.002158801071345806,0.013286660425364971
1761507826161533000,7.979532958984375,-0.013711855746805668,0.00745806097984314,0.007821081206202507
1761507826181687800,7.999687744140625,-0.009125872515141964,0.013570521958172321,-0.012278555892407894
1761507826201842000,8.019842041015625,-0.00536947138607502,0.0024354439228773117,-0.034691084176301956
1761507826221998000,8.039998046875,-0.0018176088342443109,0.00009462982416152954,-0.035381171852350235
1761507826242154000,8.060154052734376,-0.00432976009324193,0.007894440554082394,-0.017815357074141502
1761507826262308900,8.080308837890625,0.0025875207502394915,0.0030961744487285614,0.001176903024315834
1761507826282465000,8.100465087890624,0.012361036613583565,0.0018293755128979683,0.01644211821258068
1761507826302620000,8.120619873046875,0.016095876693725586,-0.0014078859239816666,0.027973048388957977
1761507826322775800,8.14077587890625,0.011258773505687714,0.0035507753491401672,0.02937578409910202
1761507826342932000,8.160931884765626,0.011857717297971249,-0.013226833194494247,0.022583141922950745
1761507826363086800,8.1810869140625,0.01099751703441143,-0.007500544190406799,0.016810724511742592
1761507826383242800,8.20124267578125,0.014493172988295555,-0.013429750688374043,0.0021261831279844046
1761507826403398100,8.221398193359375,0.015503029339015484,-0.008737394586205482,0.0015787994489073753
1761507826423554000,8.241553955078125,0.01610599271953106,0.0003706943243741989,0.0021787844598293304
1761507826443710000,8.2617099609375,0.014075604267418385,-0.007390224374830723,-0.009778889827430248
1761507826463865000,8.281864990234375,0.015553649514913559,-0.013651793822646141,-0.017098458483815193
1761507826484021000,8.30202099609375,0.013537906110286713,-0.027497954666614532,-0.022057047113776207
1761507826504175900,8.32217578125,0.007468296214938164,-0.010283813811838627,0.013099076226353645
1761507826524331800,8.342331787109375,-0.00559502886608243,-0.0007014041766524315,0.028710616752505302
1761507826544488000,8.362488037109374,-0.007709352765232325,-0.012883815914392471,0.03358525037765503
1761507826564642800,8.382642822265625,-0.011693145148456097,-0.017600396648049355,0.02345794066786766
1761507826584798700,8.402798828125,-0.014695323072373867,-0.018275629729032516,0.005365442484617233
1761507826604957000,8.42295703125,-0.009736523032188416,-0.02465849183499813,-0.020962487906217575
1761507826625111800,8.44311181640625,-0.0025135036557912827,-0.03290397301316261,-0.025716416537761688
1761507826645268000,8.46326806640625,-0.007895220071077347,-0.012684719637036324,-0.01272951066493988
1761507826665422800,8.4834228515625,-0.012659589760005474,0.006085910834372044,0.018689295276999474
1761507826685578800,8.503578857421875,-0.014064693823456764,0.01145880576223135,0.0194278284907341
1761507826705735000,8.52373486328125,-0.0015390508342534304,0.00038359779864549637,-0.0076468996703624725
1761507826725890000,8.54389013671875,0.019763048738241196,-0.022223643958568573,-0.039090655744075775
1761507826746046000,8.5640458984375,0.03895615041255951,-0.02103399485349655,-0.048364680260419846
1761507826766201000,8.584201171875,0.04674086719751358,-0.016259536147117615,-0.03283410891890526
1761507826786357000,8.60435693359375,0.047580815851688385,-0.021100373938679695,-0.01285699475556612
1761507826806513000,8.624512939453124,0.04525935649871826,-0.011245190165936947,0.014961861073970795
1761507826826668000,8.64466796875,0.042991407215595245,-0.011942591518163681,0.032376304268836975
1761507826846825200,8.6648251953125,0.04247928410768509,-0.013347369618713856,0.04013410583138466
1761507826866980000,8.68497998046875,0.04275544732809067,-0.012286058627068996,0.04272085428237915
1761507826887136000,8.705135986328125,0.035140689462423325,-0.015470285899937153,0.0346919484436512
1761507826907292200,8.725292236328125,0.029732853174209595,-0.008057598024606705,0.03528004512190819
1761507826927447000,8.745447021484376,0.02040593884885311,0.00019712187349796295,0.02224322408437729
1761507826947603000,8.76560302734375,0.019402720034122467,-0.0014676852151751518,-0.00024069752544164658
1761507826967757800,8.7857578125,0.019905244931578636,-0.006759784184396267,-0.022018268704414368
1761507826987914000,8.8059140625,0.021084491163492203,-0.00032923556864261627,-0.024162348359823227
1761507827008070000,8.82606982421875,0.011294465512037277,0.002299460582435131,-0.028215404599905014
1761507827028225000,8.84622509765625,0.00909682922065258,0.004778663627803326,-0.013387003913521767
1761507827048381200,8.866381103515625,-0.002505793934687972,0.0009241672232747078,-0.00639608409255743
1761507827068536000,8.8865361328125,-0.015425839461386204,0.009601372294127941,0.010806958191096783
1761507827088692000,8.90669189453125,-0.028205275535583496,0.00884026475250721,0.010109646245837212
1761507827108848000,8.92684814453125,-0.03387141972780228,0.00542856939136982,0.004878430627286434
1761507827129003000,8.9470029296875,-0.03155633807182312,0.0022411933168768883,-0.015105864964425564
1761507827149159000,8.967158935546875,-0.03215101361274719,0.01166332233697176,-0.02387608215212822
1761507827169314000,8.98731396484375,-0.03082049824297428,0.008709384128451347,-0.027905162423849106
1761507827189470000,9.007469970703125,-0.03163382411003113,0.012164488434791565,-0.02523910440504551
1761507827209625900,9.0276259765625,-0.026690980419516563,0.008117889985442162,-0.034119173884391785
1761507827229781200,9.04778125,-0.023842478170990944,0.010297798551619053,-0.02922428958117962
1761507827249937200,9.067937255859375,-0.02170690894126892,0.010572479106485844,-0.02890019118785858
1761507827270092000,9.088092041015624,-0.0162064116448164,-0.00702660670503974,-0.02739022672176361
1761507827290248200,9.108248291015625,-0.01489214226603508,-0.014566775411367416,-0.010431468486785889
1761507827310404000,9.128404052734375,-0.026800990104675293,0.0003964472562074661,0.006427026819437742
1761507827330559000,9.14855908203125,-0.03862781077623367,0.00935213454067707,0.03027649037539959
1761507827350715100,9.168715087890625,-0.03770929574966431,0.012564389035105705,0.023708529770374298
1761507827370870000,9.1888701171875,-0.03300695866346359,0.002031974494457245,-0.010545533150434494
1761507827391026000,9.20902587890625,-0.012048672884702682,-0.0061427997425198555,-0.03719985857605934
1761507827411182000,9.22918212890625,0.003791528521105647,-0.00565659673884511,-0.04601740837097168
1761507827431337200,9.249337158203126,-0.0017736601876094937,0.005903009325265884,-0.025737697258591652
1761507827451493000,9.2694931640625,-0.0028914152644574642,0.006067144684493542,0.0009009276982396841
1761507827471648000,9.28964794921875,-0.011987701058387756,0.0021541882306337357,0.026821376755833626
1761507827491804200,9.30980419921875,-0.012269706465303898,0.0016750795766711235,0.04271826148033142
1761507827511960000,9.3299599609375,-0.009212676435709,-0.009596265852451324,0.036975350230932236
1761507827532115000,9.350114990234376,-0.0013329049106687307,-0.0016761617735028267,0.02816411852836609
1761507827552271000,9.37027099609375,0.0034203026443719864,0.002785246819257736,0.01680763252079487
1761507827572426000,9.390426025390624,0.014421013183891773,0.0049818772822618484,-0.0016103931702673435
1761507827592582000,9.410581787109376,0.02260996401309967,-0.0007563149556517601,-0.027425162494182587
1761507827612738000,9.430738037109375,0.025728538632392883,-0.009371058084070683,-0.03839411959052086
1761507827632893200,9.45089306640625,0.029242856428027153,-0.012013277038931847,-0.03524906933307648
1761507827653049000,9.471049072265625,0.03284556046128273,-0.004596141166985035,-0.013136272318661213
1761507827673204000,9.491203857421874,0.02160968817770481,0.0017829937860369682,0.00964272953569889
1761507827693360000,9.511360107421876,0.004640565253794193,0.0009126970544457436,0.01216358132660389
1761507827713516000,9.53151611328125,-0.005774262826889753,-0.006586069706827402,0.008929768577218056
1761507827733671000,9.5516708984375,-0.012178118340671062,-0.010803915560245514,-0.003170061158016324
1761507827753827000,9.5718271484375,-0.017989637330174446,-0.005716538522392511,-0.01594196818768978
1761507827773982000,9.59198193359375,-0.020595544949173927,0.008173871785402298,-0.017240727320313454
1761507827794137900,9.612137939453126,-0.02203976921737194,0.004323417320847511,-0.015175307169556618
1761507827814294000,9.6322939453125,-0.02117960900068283,-0.0017436398193240166,-0.01725091226398945
1761507827834449200,9.65244921875,-0.019208334386348724,0.0014624996110796928,-0.01311477180570364
1761507827854604500,9.6726044921875,-0.015010644681751728,0.008791796863079071,0.005119414534419775
1761507827874759400,9.692759521484374,-0.012471312656998634,0.002573259174823761,0.002480093389749527
1761507827894915600,9.71291552734375,-0.010644147172570229,0.0005350792780518532,0.0004423803184181452
1761507827915071500,9.733071533203125,-0.014250030741095543,0.01393512636423111,0.014749445952475071
1761507827935226400,9.753226318359374,-0.017684180289506912,0.00067190732806921,-0.00007499195635318756
1761507827955382500,9.773382568359375,-0.011413530446588993,-0.012865266762673855,-0.004780127666890621
1761507827975537700,9.79353759765625,-0.012825538404285908,-0.008511532098054886,-0.0012394546065479517
1761507827995693600,9.813693603515626,-0.022382810711860657,-0.0008170753717422485,0.012394404038786888
1761507828015849500,9.833849365234375,-0.029513411223888397,0.010628973133862019,0.017669133841991425
1761507828036004600,9.854004638671874,-0.028111252933740616,0.018058542162179947,0.0028837479185312986
1761507828056160500,9.874160400390625,-0.017833318561315536,0.008168214000761509,-0.019259056076407433
1761507828076316700,9.894316650390625,-0.006967624649405479,-0.008075883612036705,-0.030879976227879524
1761507828096471600,9.914471435546876,-0.008938897401094437,0.009517000056803226,-0.023332830518484116
1761507828116627500,9.93462744140625,-0.015037539415061474,0.006649961695075035,-0.020860034972429276
1761507828136782600,9.954782470703124,-0.01826608180999756,0.0073998915031552315,-0.004102208185940981
1761507828156938500,9.9749384765625,-0.027477679774165154,0.021427955478429794,0.016259094700217247
1761507828177094400,9.995094482421875,-0.03198482096195221,0.022702375426888466,0.027074337005615234
1761507828197249500,10.01524951171875,-0.026988200843334198,0.005158082582056522,0.022453252226114273
1761507828217405400,10.035405517578125,-0.016279906034469604,0.017875531688332558,0.018953455612063408
1761507828237560600,10.055560546875,-0.011212711222469807,0.00045769941061735153,-0.00445997528731823
1761507828257716700,10.075716796875,-0.008680025115609169,0.0022817719727754593,0.006854440551251173
1761507828277872600,10.09587255859375,-0.0007329070940613747,0.011551403440535069,0.006885639391839504
1761507828298027500,10.116027587890626,0.003542801830917597,0.011538765393197536,0.006560951471328735
1761507828318183700,10.13618359375,0.005632851272821426,0.007612427696585655,-0.0008261408656835556
1761507828338338600,10.156338623046874,0.008383086882531643,-0.00018121767789125443,-0.017480870708823204
1761507828358494500,10.176494384765626,0.009458465501666069,-0.0104914465919137,-0.02617148496210575
1761507828378650600,10.196650634765625,0.004213650710880756,-0.007114240899682045,-0.02093563787639141
1761507828398805500,10.216805419921876,-0.012529129162430763,0.006256495602428913,-0.009479009546339512
1761507828418961400,10.23696142578125,-0.013559768907725811,0.004617464728653431,0.006269811652600765
1761507828439116500,10.257116455078124,-0.016994163393974304,-0.002060706727206707,0.009531425312161446
1761507828459272700,10.277272705078126,-0.01515658013522625,0.006255466490983963,0.006029069889336824
1761507828479428600,10.2974287109375,-0.01397654041647911,0.005892719142138958,-0.010129828937351704
1761507828499583500,10.31758349609375,-0.006661091931164265,-0.001245221123099327,-0.02221062034368515
1761507828519739600,10.33773974609375,-0.0015425177989527583,0.00007110275328159332,-0.019695241004228592
1761507828539894500,10.35789453125,-0.00058723334223032,0.001768854446709156,-0.014505119994282722
1761507828560050400,10.378050537109376,-0.007730366662144661,0.002713024616241455,-0.01190957147628069
1761507828580206600,10.39820654296875,-0.009037444368004799,-0.007533793803304434,-0.012093878351151943
1761507828600361500,10.418361572265624,-0.004023500718176365,-0.01127935852855444,0.0006982041522860527
1761507828620517400,10.438517333984375,-0.004507133737206459,-0.007379039190709591,0.002905480330809951
1761507828640672500,10.458672607421875,0.00043327873572707176,-0.00787276029586792,0.007984887808561325
1761507828660828700,10.47882861328125,-0.003949742764234543,-0.018943535163998604,0.006907525472342968
1761507828680984600,10.498984619140625,-0.014701444655656815,-0.007681735325604677,0.013158319517970085
1761507828701139500,10.519139404296874,-0.018164630979299545,0.011248189955949783,0.021850256249308586
1761507828721295600,10.539295654296875,-0.01686236262321472,0.007854551076889038,0.005645946599543095
1761507828741450500,10.559450439453125,-0.007654196582734585,0.004366994835436344,-0.011261939071118832
1761507828761606400,10.5796064453125,0.005615536123514175,0.004583775065839291,-0.04005550593137741
1761507828781762600,10.599762451171875,0.012692103162407875,0.008180076256394386,-0.05268150940537453
1761507828801917400,10.61991748046875,0.02006877213716507,0.024879660457372665,-0.03334026038646698
1761507828822073300,10.6400732421875,0.00886085070669651,0.03387685865163803,0.0050687422044575214
1761507828842228000,10.66022802734375,-0.02845587395131588,0.16202771663665771,0.14279089868068695
1761507828862384000,10.680384033203126,-0.04088938608765602,0.057495005428791046,0.18723653256893158
1761507828882540000,10.7005400390625,-0.052237123250961304,-0.016451479867100716,0.15454162657260895
1761507828902695000,10.72069482421875,-0.07585401833057404,-0.04826376587152481,0.07001105695962906
1761507828922850800,10.740850830078125,-0.08998741954565048,0.019070997834205627,0.0852779820561409
