time,seconds_elapsed,z,y,x
1761505960637572000,0.092572021484375,-0.02728080563545227,-0.5298468811690807,-0.4243291357733309
1761505960657728000,0.11272802734375,0.053850248131155964,-0.5523422060936689,-0.33865868501141666
1761505960677884200,0.13288427734375,0.15430208843946455,-0.507347902982682,-0.2643849497936666
1761505960698040000,0.1530400390625,0.2457587213873863,-0.49258580265864726,-0.2030531137354672
1761505960718196000,0.173196044921875,0.11258417665064334,-0.4388929370462894,-0.07271803020834923
1761505960738352000,0.19335205078125,0.0967740285784006,-0.3355354384243488,-0.20539763103500008
1761505960758508000,0.213508056640625,-0.06287234349846839,-0.1685845885530114,-0.31246099843755365
1761505960778664200,0.233664306640625,-0.1752916849762201,-0.1112222406476736,-0.4076860440082848
1761505960798820000,0.253820068359375,-0.30039573598206043,0.01179798982143402,-0.5192478918738663
1761505960818976000,0.27397607421875,-0.3119984954923391,0.004110650189220905,-0.5135102250047028
1761505960839132200,0.294132080078125,-0.36217677711248397,-0.07195829788222909,-0.46609673192277545
1761505960859288000,0.3142880859375,-0.31808921358287334,-0.05668327959999442,-0.3524598313488066
1761505960879444200,0.3344443359375,-0.23444062403738497,-0.10210954438745976,-0.29843218082413075
1761505960899600100,0.35460009765625,-0.0850929431349039,-0.19670783636197448,-0.21636516138166187
1761505960919756000,0.374756103515625,-0.15521335806548595,-0.26219138527214525,-0.03429302248507738
1761505960939912200,0.394912109375,-0.20210311953425406,-0.3711268301568925,0.14119184697568415
1761505960960068000,0.415068115234375,-0.2612099730193615,-0.3937131943657994,0.22759105040356514
1761505960980224300,0.435224365234375,-0.4378378750354051,-0.3533582414932549,0.2706457637540996
1761505961000380200,0.455380126953125,-0.48656128167212004,-0.15640563658997417,0.11532324622571467
1761505961020536000,0.4755361328125,-0.49388592547178267,-0.011981237433850765,0.03887392053455114
1761505961040692000,0.49569189453125,-0.41977556412219996,0.08382453063428401,-0.013016279570013283
1761505961060847900,0.515847900390625,-0.4073509668350219,0.13970248520076273,0.004881342300772667
1761505961081004000,0.536004150390625,-0.3434124554097652,0.15919760539606212,-0.0740437258541584
1761505961101160000,0.556159912109375,-0.30733167272508144,0.17653204042613505,-0.07780790069326758
1761505961121315800,0.57631591796875,-0.1824690292596817,0.14342062894105911,-0.16279387632235884
1761505961141472000,0.596471923828125,0.05926058274209499,0.14448738138973713,-0.18804229934737085
1761505961161628000,0.6166279296875,0.16563479883670806,0.0951220235876739,-0.1657451273433864
1761505961181783800,0.63678369140625,0.26302842061817644,0.03358925812989473,-0.13959917095676064
1761505961201940000,0.65693994140625,0.3256979350209236,-0.013746347410231828,-0.04520283129513263
1761505961222096000,0.677095947265625,0.35563773073256016,-0.025627777731418607,-0.006892535992711782
1761505961242252000,0.697251953125,0.3187099758297205,0.007143734274804592,0.04713496840149164
1761505961262408000,0.717407958984375,0.31022680964469906,0.04375964674949646,0.07898395873531698
1761505961282563800,0.737563720703125,0.28121815730333327,0.052063364714384074,0.1356510178528726
1761505961302720000,0.757719970703125,0.31251930449604987,0.07038783369511366,0.16214315732866524
1761505961322876000,0.7778759765625,0.30286475644409655,0.09943272639364004,0.16962269942909478
1761505961343032000,0.798031982421875,0.2635480605781078,0.1819850451350212,0.12174670340195297
1761505961363188000,0.81818798828125,0.25301672969162464,0.28022037843763825,0.008432312780618668
1761505961383343000,0.838343017578125,0.19509704016447066,0.3133314976617694,-0.009800970785319805
1761505961403500000,0.8585,0.17495675393342972,0.3323252442061901,-0.059292000793665645
1761505961423655000,0.878655029296875,0.12491057426035404,0.40495764195770023,-0.07369388950318098
1761505961443810800,0.898810791015625,0.15553659867048264,0.3668172963947057,-0.012948621161282061
1761505961463967000,0.918967041015625,0.16799977440237998,0.314294497475028,0.132999188169837
1761505961484123000,0.939122802734375,0.07524725642502307,0.21204554461687802,0.2932639844059944
1761505961504279000,0.959279052734375,-0.011826631394028663,0.07841010437011718,0.3179391375876963
1761505961524435000,0.97943505859375,-0.17313830633461474,0.04998568165749311,0.3713229372508824
1761505961544590800,0.9995908203125,-0.28750527474880216,0.06527618976980447,0.288449277600646
1761505961564747000,1.0197470703125,-0.27829087167978284,-0.01731178480684757,0.20020897635072468
1761505961584903000,1.03990283203125,-0.14780220502614974,-0.0032128245666623112,0.11010054314136504
1761505961605058800,1.060058837890625,0.042592356535792346,-0.03333192236796021,0.1058566219612956
1761505961625215000,1.080215087890625,0.18837503843307493,-0.1520300518542528,0.17804361403286456
1761505961645371000,1.100370849609375,0.3065525050461292,-0.22704481469765303,0.310586875128746
1761505961665527000,1.120527099609375,0.2851215944826603,-0.31849735599234696,0.4333269734822213
1761505961685683000,1.140682861328125,0.3094827132791281,-0.29888781563714145,0.44627106459885835
1761505961705838800,1.1608388671875,0.12645137396156786,-0.2277737134940922,0.41915334057062864
1761505961725995000,1.1809951171875,0.056501639422774315,-0.12366904976665972,0.31715646277740595
1761505961746151000,1.20115087890625,-0.1171867020100355,-0.03413885483667254,0.2712235636420548
1761505961766307000,1.22130712890625,-0.16181553280949593,-0.016244301705807446,0.12902794645130633
1761505961786463000,1.241462890625,-0.2246837846547365,-0.09973258612304925,0.1218656536065042
1761505961806619000,1.261618896484375,-0.24525135638713835,-0.06352320862263441,0.06748232151195406
1761505961826775000,1.281775146484375,-0.23553894066810607,-0.09362477076724171,0.08719473771974444
1761505961846931000,1.301930908203125,-0.14978841040730476,-0.1213236556842923,0.04212985359057784
1761505961867087000,1.322087158203125,-0.03766951318085193,-0.14897943211197853,0.06604746640324592
1761505961887243000,1.342242919921875,0.01656242774426937,-0.17582739928811789,0.0947419382289052
1761505961907399000,1.36239892578125,0.06485153461694718,-0.2991165098264813,0.1270361881121993
1761505961927555000,1.38255517578125,0.029613047975301742,-0.35260260082036254,0.16083368216529487
1761505961947711000,1.4027109375,0.039438860940933226,-0.3466898696452379,0.08054492444172501
1761505961967867100,1.4228671875,0.033382045120000835,-0.3286258051663637,0.013513415437191725
1761505961988023000,1.44302294921875,0.13152443944215775,-0.31408553089946506,-0.054245531059056516
1761505962008179000,1.463178955078125,0.13105389932096004,-0.2994255757756531,-0.07560176895111799
1761505962028335000,1.483335205078125,0.15957096875309942,-0.33142171949520705,-0.07057561135217547
1761505962048491000,1.503490966796875,0.2486123572528362,-0.45420346503332254,0.0245030114851892
1761505962068646400,1.523646484375,0.3460328670412302,-0.5706754429027437,0.11824220241233706
1761505962088802300,1.54380224609375,0.37489597343206404,-0.6584735533431172,0.2512989659883082
1761505962108958500,1.56395849609375,0.41700259227752684,-0.750568922585994,0.3295674699306488
1761505962129114400,1.5841142578125,0.3603741116046905,-0.7722999851398169,0.440340067114681
1761505962149270300,1.604270263671875,0.3074468235373497,-0.7791692863874137,0.427519017855823
1761505962169426400,1.624426513671875,0.22755203356742856,-0.775691527274251,0.4594155005931854
1761505962189582300,1.644582275390625,0.11299743362665175,-0.6925763139531016,0.4539847077161073
1761505962209738500,1.664738525390625,0.027755437409877775,-0.6247307120867073,0.4623252505600452
1761505962229894400,1.684894287109375,-0.08899170413911342,-0.5121783918790519,0.36483372136205433
1761505962250050300,1.70505029296875,-0.19984277338683604,-0.5574275465339422,0.4126210161924362
1761505962270206500,1.72520654296875,-0.4199018208503723,-0.7246681731320918,0.5775237013623118
1761505962290362400,1.7453623046875,-0.7001683765172958,-0.44085707672610874,0.5068037131033838
1761505962310518500,1.7655185546875,-0.9166700237601995,-0.3280727013282478,0.2689560571014881
1761505962330674400,1.78567431640625,-0.8655705356419086,-0.13741276682838796,0.09528992750048637
1761505962350830300,1.805830322265625,-0.8314116609305143,-0.09559709375351667,-0.09478183184787631
1761505962370986500,1.825986572265625,-0.5746458078384399,0.03977481489703059,-0.18457082384452222
1761505962391142400,1.846142333984375,-0.27759762871861454,0.0226087221711874,-0.23118322967663407
1761505962411298600,1.866298583984375,0.04813479309380054,-0.047441696263104675,-0.07615998735576868
1761505962431454500,1.886454345703125,0.3314402780652046,-0.19660583729222417,0.1508181918464601
1761505962451610400,1.9066103515625,0.4826479076206684,-0.3572982112906873,0.40282355253845453
1761505962471766500,1.9267666015625,0.49390287660658355,-0.5184110026583075,0.6125219495072961
1761505962491922400,1.94692236328125,0.4045335713267326,-0.6222451788812875,0.699263536632061
1761505962512078300,1.967078369140625,0.3320212928235531,-0.6128637486822903,0.6526312570556998
1761505962532234500,1.987234375,0.3037812867671251,-0.5227146912015974,0.5320443912133574
1761505962552390400,2.007390380859375,0.23883447508215902,-0.41066958986371754,0.34118542701005933
1761505962572546600,2.027546630859375,0.25144261224269865,-0.26720292982384564,0.20336276420652866
1761505962592702500,2.047702392578125,0.2855646620750427,-0.07375394912734627,0.10574687797650695
1761505962612858400,2.0678583984375,0.3052992901146412,-0.012547639144957065,0.09816066063120961
1761505962633014500,2.0880146484375,0.3765981011748314,0.030932021619379517,0.1064433358080685
1761505962653170400,2.10817041015625,0.39106443342268465,0.03591507072895765,0.19709128272160886
1761505962673326600,2.12832666015625,0.4014899658471346,0.06453384696990251,0.26531419346779583
1761505962693482500,2.148482421875,0.30426351732611656,0.11049012698084115,0.27988413222059605
1761505962713638400,2.168638427734375,0.18877251331806183,0.1489806011557579,0.24807269741818308
1761505962733793500,2.18879345703125,0.03358604325950146,0.23243425265103576,0.14801833199486136
1761505962753949400,2.208949462890625,-0.03347849123179912,0.4162698940888047,-0.12814619518071413
1761505962774105300,2.229105224609375,-0.11727964099049568,0.6131956109851598,-0.4048195486612618
1761505962794261500,2.249261474609375,-0.08416296880841255,0.7318941788628697,-0.6631370151095092
1761505962814417400,2.26941748046875,-0.10140694907605648,0.6515478457331657,-0.7778732552275062
1761505962834573600,2.289573486328125,-0.11160276439785957,0.47437604609876866,-0.8014419084720313
1761505962854729500,2.3097294921875,-0.12472411177754401,0.21253274361193178,-0.728604635798186
1761505962874885400,2.329885498046875,-0.138096219047904,-0.1083612982586026,-0.7624363243818283
1761505962895041500,2.35004150390625,-0.4381394883304834,-0.24331658893227576,-0.7630901121154428
1761505962915197400,2.370197509765625,-0.627570757818222,-0.20373247430175542,-0.8783389779306948
1761505962935353600,2.390353515625,-0.5087655146956443,-0.08008008340895176,-1.0627651326075196
1761505962955509500,2.410509521484375,-0.23414368691742418,0.10618892265558243,-1.216429799926281
1761505962975665400,2.43066552734375,0.17853052076697348,0.221514214707911,-1.3189027707986534
1761505962995821600,2.450821533203125,0.44223698677718637,0.20582418588399887,-1.114916321735829
1761505963015977500,2.4709775390625,0.7163251460701227,0.06692044984549284,-0.7334058986000717
1761505963036133400,2.49113330078125,0.848656225720048,-0.19198153849244118,-0.35687867070436474
1761505963056289000,2.5112890625,0.9082347883701324,-0.4200421061038971,-0.11546893830671906
1761505963076445200,2.531445068359375,0.7763099514335393,-0.6294122940316796,0.14624533097296952
1761505963096601000,2.55160107421875,0.6097896019339561,-0.783897630083561,0.30301132530793545
1761505963116757200,2.57175732421875,0.3343418447256088,-0.8578641990482807,0.3795459911949932
1761505963136913200,2.5919130859375,0.08858370786011219,-0.7865655341185629,0.3182610630184412
1761505963157069000,2.612069091796875,-0.2011860046893358,-0.7562393694378435,0.23474486768096683
1761505963177225200,2.63222509765625,-0.47834465746879573,-0.5632045225001872,0.10826017597168683
1761505963197381000,2.652381103515625,-0.5288736522227525,-0.3548664540991187,-0.010884528238326311
1761505963217537300,2.672537353515625,-0.5579489400595427,-0.23129764983654022,-0.06524988628476858
1761505963237693200,2.692693115234375,-0.5504717360466719,-0.20352000059485434,-0.061482788836210965
1761505963257849000,2.71284912109375,-0.6053975044548511,-0.13063538164794444,-0.007270867785811424
1761505963278005200,2.733005126953125,-0.9320745136409997,-0.1485027545109391,0.19620763175487518
1761505963298161200,2.7531611328125,-1.2238210792213677,-0.24366072619482873,0.2899050293669104
1761505963318317000,2.773317138671875,-1.396559572583437,-0.2403362579472363,0.15516995731517672
1761505963338473000,2.793472900390625,-1.2625778031170367,-0.3176914464369416,0.1553277782253921
1761505963358628900,2.81362890625,-1.1525479871243238,-0.43519568996354935,0.272897926595062
1761505963378785000,2.833784912109375,-1.0998194364994764,-0.3082382661759853,0.3279673412576318
1761505963398941000,2.85394091796875,-1.1709592576056718,-0.35741657697334883,0.39208193990215656
1761505963419097000,2.87409716796875,-1.0540952116787432,-0.1773512478545308,0.13778802988156674
1761505963439253000,2.8942529296875,-0.8986211568504572,0.0861710937604308,-0.27851167482361194
1761505963459409000,2.914408935546875,-0.6128174253225326,0.3025106823094189,-0.4883383743472397
1761505963479565000,2.93456494140625,-0.17181787138581275,0.4007867860138416,-0.6747166860051452
1761505963499721000,2.954720947265625,0.21204992853105067,0.35387320527806876,-0.8314401563726365
1761505963519876900,2.974876953125,0.4447925164788961,0.45729383226409553,-0.7873406101442874
1761505963540033000,2.995032958984375,0.48140696764886376,0.4515433059133589,-0.5698889687001705
1761505963560189000,3.01518896484375,0.7589923214077949,0.2927463902726769,-0.5291577298611402
1761505963580345000,3.035344970703125,0.5230342785447836,0.18711802410930395,-0.4405981335289776
1761505963600501000,3.0555009765625,0.3253893074631691,0.271481483925879,-0.3121701987974346
1761505963620657000,3.075656982421875,0.27576982876956463,0.3678516078785062,-0.2644255740649998
1761505963640813000,3.09581298828125,0.29351474429666996,0.4912579150557518,-0.2011237531080842
1761505963660969000,3.115968994140625,0.30620588356554507,0.582838758905232,-0.11464037852808832
1761505963681125000,3.136125,0.3487204986900091,0.6056611238270998,-0.04332578537687659
1761505963701281000,3.156281005859375,0.3942793038159609,0.5278288193449377,0.11696575273573398
1761505963721437000,3.17643701171875,0.3696469668626785,0.5266711737424135,0.23601517987772822
1761505963741593000,3.196593017578125,0.3527028463244438,0.5217044912457466,0.3619115503050387
1761505963761749000,3.2167490234375,0.4462386236339807,0.452821509155631,0.4988482240542769
1761505963781905200,3.2369052734375,0.4041197298288345,0.4388464675560593,0.7538419529072939
1761505963802061000,3.25706103515625,0.34339199714362617,0.25854309189766644,0.9650668287910521
1761505963822217000,3.277217041015625,0.07295359252989292,0.025027473750710485,1.2470613772943615
1761505963842373000,3.297373046875,-0.29026421806812286,0.04835194297581911,1.2119080847181378
1761505963862529000,3.317529052734375,-0.5557189890503883,0.16547522436082363,0.989592636629939
1761505963882685200,3.337685302734375,-0.6254810920625925,0.49861149268895383,0.46685324937850237
1761505963902841000,3.357841064453125,-0.6581219634264707,0.7757000028416514,0.11782879930585623
1761505963922997000,3.3779970703125,-0.24014497315883634,0.778140089470148,-0.10533800491467117
1761505963943153200,3.398153076171875,0.21528701075613496,0.7441366975814103,-0.3316998057842254
1761505963963309000,3.41830908203125,0.48006198278069495,0.4996621707856655,-0.2871025391668081
1761505963983465000,3.43846484375,0.7408318108171225,0.11416823097169398,-0.19112872105538845
1761505964003621000,3.45862109375,0.8849497743725776,-0.21858254517018794,0.14311214751377702
1761505964023777000,3.478777099609375,0.7173416296362877,-0.5378180061787367,0.3360628232993185
1761505964043933200,3.49893310546875,0.47758302544653414,-0.766008337649703,0.435975003772974
1761505964064089000,3.519089111328125,0.27047113783955573,-0.752969992378354,0.43202465871199963
1761505964084245000,3.539244873046875,0.13520458925962447,-0.8016711871832609,0.38363384503051634
1761505964104401200,3.559401123046875,0.07537117506563663,-0.8042287627115845,0.2678691386476159
1761505964124557000,3.57955712890625,0.09766659350395201,-0.7698994998693466,0.08374225917831063
1761505964144713200,3.599713134765625,0.06960135949254036,-0.7406158299788832,0.13471987448260186
1761505964164869000,3.619869140625,0.03412380339801311,-0.7165010871589184,0.1583183383435011
1761505964185025000,3.64002490234375,0.06168751762807369,-0.6714253893747926,0.08407032208889723
1761505964205181200,3.66018115234375,0.18993337379097938,-0.5777408512443304,-0.002932254059612751
1761505964225337000,3.680337158203125,0.29581425341069695,-0.6116098030984402,-0.0803841809220612
1761505964245493200,3.7004931640625,0.38131402378082274,-0.6844748405620456,-0.06402180579453706
1761505964265649200,3.720649169921875,0.37865444918274876,-0.9625020928695798,0.042342765688896174
1761505964285805000,3.74080517578125,0.3111152829170227,-1.2004063013643025,0.19064722114875912
1761505964305961200,3.760961181640625,0.2080447845429182,-1.3113093930602073,0.37994916516840455
1761505964326117000,3.7811171875,0.10520634135901927,-1.3156570668756962,0.4396963623836636
1761505964346273300,3.801273193359375,0.0035591537863016126,-1.1256830688133834,0.3795955294251442
1761505964366429200,3.82142919921875,-0.051883331972360607,-0.8982070230916142,0.3521132098682225
1761505964386585000,3.841585205078125,-0.0989700773179531,-0.67484308886379,0.38145723164379597
1761505964406741200,3.8617412109375,-0.08447334993183613,-0.5430222968235612,0.4298723029837012
1761505964426897200,3.881897216796875,-0.27919278895556926,-0.795400728611648,0.7420538999579847
1761505964447053000,3.902052978515625,-0.4158060759693384,-0.7643219919979571,0.85782795869112
1761505964467209200,3.922209228515625,-0.7039104856550693,-0.8022232681080699,0.9495502568379044
1761505964487365000,3.942365234375,-0.721087830427289,-0.6934729705318808,0.8046760680876672
1761505964507521300,3.962521240234375,-0.7926976071327925,-0.40621144141107796,0.5371386456124484
1761505964527677200,3.98267724609375,-0.8765724066495895,-0.10400982505083084,0.23079306131526828
1761505964547833000,4.0028330078125,-0.8012135065436363,0.248068167373538,-0.04462678497284651
1761505964567988200,4.02298828125,-0.5052209739565849,0.5356999911114573,-0.20873422811180353
1761505964588144000,4.04314404296875,-0.2149234381407499,0.7055062304139137,-0.1647559701755643
1761505964608300000,4.063300048828125,0.09208908563256263,0.7730103253662586,-0.00882847249135375
1761505964628456200,4.083456298828125,0.25851591162979604,0.7344850721389055,0.12022446227073669
1761505964648612000,4.103612060546875,0.35672084979414936,0.6300210735797882,0.24226591083556412
1761505964668768300,4.123768310546875,0.4457470407247543,0.5001937934443355,0.22160656916648147
1761505964688924200,4.143924072265625,0.4460924931615591,0.45177346140742297,0.1667084194175899
1761505964709080000,4.164080078125,0.4304834206193685,0.33714638075232506,0.1644705773629248
1761505964729236200,4.184236328125,0.3519961593598127,0.3321262145027518,0.07180909866988658
1761505964749392100,4.20439208984375,0.28164836541414257,0.45717532045096154,-0.047923634561151264
1761505964769548300,4.22454833984375,0.11552023010253906,0.5817299208804965,-0.1823440877057612
1761505964789704200,4.2447041015625,0.03174947548210621,0.834912947049737,-0.2862567359924316
1761505964809860000,4.264860107421875,-0.022615736433863637,1.0148369680017233,-0.5207140189036726
1761505964830016300,4.285016357421875,-0.1337999831587076,1.1918033081918955,-0.6375109909437596
1761505964850172200,4.305172119140625,-0.14875146857500077,1.1568269796177744,-0.7382739430278539
1761505964870328000,4.325328125,-0.27676293146014214,0.9344795289561152,-0.6585210457466543
1761505964890484000,4.34548388671875,-0.4843605567574501,0.6442413221120834,-0.5161339976370334
1761505964910640000,4.36564013671875,-0.6432692622095346,0.45698272048830985,-0.4697076158963144
1761505964930796000,4.385796142578125,-0.7571610143274068,0.38873189882189035,-0.5121623175270855
1761505964950952000,4.405951904296875,-0.7188169628858566,0.44705432393103833,-0.6365789707906544
1761505964971109000,4.426109130859375,-0.584244826310873,0.5101549232274294,-0.6361439403742551
1761505964991267000,4.44626708984375,-0.36262335183620453,0.5366492546603083,-0.6267711318731307
1761505965011423200,4.46642333984375,-0.14401041152775287,0.4873132690832019,-0.5953787992656231
1761505965031579100,4.4865791015625,0.06300152283608913,0.30926673244088887,-0.46164209060147404
1761505965051735600,4.506735595703125,0.26948154228031634,0.09182868113070726,-0.31203941202461716
1761505965071891500,4.526891357421875,0.3999865755468607,-0.08179828550368547,-0.14833718868568538
1761505965092047600,4.547047607421875,0.5344318708717822,-0.19594372012168168,-0.04829729017913341
1761505965112203500,4.56720361328125,0.5819646064192057,-0.26422113753408194,-0.0325298122048378
1761505965132359700,4.587359619140625,0.5097305603355169,-0.23786650683283805,-0.04572144834175706
1761505965152515600,4.607515625,0.38447102650702,-0.1639756334528327,-0.0940033948212862
1761505965172671500,4.62767138671875,0.35134032579958435,-0.05664981572180986,-0.18131021461337804
1761505965192827600,4.64782763671875,0.2401221768051386,-0.09683628015965223,-0.1796000496946275
1761505965212983600,4.667983642578125,0.06655190879404545,-0.19581337174028157,-0.0988121102772653
1761505965233139700,4.6881396484375,-0.13725275396108627,-0.2869280593827367,-0.09916238501965999
1761505965253295600,4.708295654296875,-0.282805718755722,-0.42362113363444803,-0.10367957018315792
1761505965273451500,4.728451416015625,-0.3323854499608278,-0.5006362765148282,-0.15228753374665974
1761505965293607700,4.748607666015625,-0.35264380961358543,-0.6021218437850475,-0.2276581242904067
1761505965313763600,4.768763671875,-0.25323241826891896,-0.6437509082466364,-0.29445772423520683
1761505965333919700,4.788919677734375,-0.31007951012849805,-0.7514186712831258,-0.286281139781326
1761505965354075600,4.80907568359375,-0.23889818796813486,-0.8652357507295906,-0.2001820883437991
1761505965374231600,4.8292314453125,-0.2373720013141632,-0.9714398709543048,-0.14990326895862816
1761505965394387700,4.8493876953125,-0.2553185768932104,-0.9538865324765443,-0.19083572945818303
1761505965414543600,4.869543701171875,-0.2571089674413204,-0.8498620943784714,-0.24452479567825794
1761505965434699500,4.889699462890625,-0.25095512098670003,-0.7781038491129875,-0.3017867519490421
1761505965454855700,4.909855712890625,-0.25705752951502797,-0.7540957815378904,-0.39109015238583084
1761505965475011600,4.930011474609375,-0.4758493335217237,-0.8569915078669786,-0.17235124761015175
1761505965495167700,4.950167724609375,-0.5523293466120958,-0.8817010017096996,-0.18366934496015308
1761505965515323600,4.97032373046875,-0.6504781706750392,-1.0463938435211777,-0.010388853675872087
1761505965535479600,4.9904794921875,-0.9257885652393102,-0.9810127320721745,0.04922229606956243
1761505965555635700,5.0106357421875,-0.9565040214985608,-0.5622764478698372,-0.1386241884447634
1761505965575791600,5.03079150390625,-0.9423790500342846,-0.3758893683835864,-0.29545433405712246
1761505965595947800,5.05094775390625,-0.7487690335571765,-0.111503103415668,-0.3528662201926112
1761505965616103700,5.071103759765625,-0.5539397044181823,0.08811901295781135,-0.3468243096798658
1761505965636259600,5.091259521484375,-0.4663222112417221,0.2683215585902333,-0.33237638987153767
1761505965656415700,5.111415771484375,-0.3349041547834873,0.41618046223968264,-0.27597864921465515
1761505965676571600,5.131571533203125,-0.14629296950697898,0.43561347698420283,-0.22894977153614163
1761505965696727800,5.151727783203125,0.00803483789563179,0.5081456292316318,-0.09930749257877468
1761505965716883700,5.1718837890625,0.0788011495143175,0.6773147396743298,-0.09105506640970706
1761505965737039600,5.19203955078125,0.16958733585476873,0.8206485671147704,-0.08582154967039823
1761505965757195800,5.21219580078125,0.21657295891344547,0.800613494823873,-0.09025003363713621
1761505965777351700,5.2323515625,0.3421586559563875,0.6722156629696489,-0.038073271676152945
1761505965797507800,5.2525078125,0.3963075947731733,0.6596352905988693,-0.05151055313721299
1761505965817663700,5.272663818359375,0.4545142845481634,0.6803665284603834,0.048711862329393625
1761505965837819600,5.292819580078125,0.5393780951023102,0.6616442923337221,0.18633432638570666
1761505965857975800,5.312975830078125,0.6443167254358529,0.6126978905960917,0.33739217220693823
1761505965878131700,5.333131591796875,0.663500149333477,0.6746347068101167,0.4560517232485115
1761505965898287600,5.35328759765625,0.5283014052927494,0.6303326237469912,0.528806578335911
1761505965918443800,5.37344384765625,0.34483225907981396,0.5786556280016899,0.6114927525900304
1761505965938599700,5.393599609375,0.10516484030485153,0.40839258484244345,0.6501976001679897
1761505965958755800,5.413755859375,-0.12346154449582099,0.17734452585279942,0.5723562355965376
1761505965978911700,5.433911865234375,-0.32556057237684727,0.1115706156939268,0.5910311254501343
1761505965999067600,5.454067626953125,-0.5110685309410095,0.13442600610256195,0.4788249883316457
1761505966019223800,5.474223876953125,-0.5546814626961947,0.28409108239114284,0.4160037904985249
1761505966039379700,5.494379638671875,-0.6002630641758442,0.46927813843786714,0.2715922508239746
1761505966059535600,5.51453564453125,-0.36076691031455993,0.597930237314105,0.11052461377233266
1761505966079691500,5.53469140625,-0.043431729969382285,0.6071127839401363,-0.02037877116203308
1761505966099847400,5.554847412109375,0.08575812904536724,0.5355053453221917,-0.2020060889005661
1761505966120003600,5.575003662109375,0.1850304041802883,0.4651186806708574,-0.07966507286727428
1761505966140159500,5.595159423828125,0.3056523413360119,0.36318536963313813,-0.030360651472210884
1761505966160315400,5.6153154296875,0.4142050705134868,0.2809185898348689,0.15357961938381195
1761505966180471300,5.63547119140625,0.35378012016713617,0.29864860005378724,0.21626374683380126
1761505966200627200,5.655627197265625,0.3301291954666376,0.3282005654916167,0.2526519880324602
1761505966220783400,5.675783447265625,0.30920740346908565,0.324742241731286,0.3282598944634199
1761505966240939300,5.695939208984375,0.2934878562897444,0.23048107275664806,0.3852712369740009
1761505966261095200,5.71609521484375,0.168870712018013,0.12139321378916501,0.39949791524708267
1761505966281251300,5.736251220703125,0.1475941152334213,0.02206803942322731,0.3800596398055553
1761505966301407200,5.7564072265625,0.12075929979979991,-0.08009557323902845,0.3761784144580364
1761505966321563400,5.7765634765625,0.11476152068972587,-0.1532809286981821,0.39911856054067607
1761505966341719300,5.79671923828125,0.15109657039642332,-0.21111615481227636,0.42159488850384946
1761505966361875200,5.816875244140625,0.1740419771760702,-0.326737799462676,0.44246991875022645
1761505966382031400,5.83703125,0.19035130694210528,-0.4515595263957977,0.5348395748898387
1761505966402187300,5.857187255859375,0.14243103338181973,-0.4659107078313827,0.510284394825995
1761505966422343400,5.877343505859375,0.139368138679862,-0.4853180036127567,0.5577198074787855
1761505966442499300,5.897499267578125,0.14361527473032473,-0.5329781649321317,0.5795736196294426
1761505966462655200,5.9176552734375,0.13171557810008525,-0.5972185819134116,0.5551081636756658
1761505966482811400,5.937811279296875,0.11087678821086883,-0.6146645144939422,0.5285873826272786
1761505966502967300,5.95796728515625,0.1585784505844116,-0.6134191906079649,0.5081636032797396
1761505966523123500,5.97812353515625,0.20389058747291564,-0.6155161628872156,0.5289711212478577
1761505966543280400,5.9982802734375,0.1998749220907688,-0.6485349276527762,0.5747244260326028
1761505966563435300,6.018435302734375,0.18240005567669867,-0.6551762653633951,0.6452760719873011
1761505966583592400,6.038592529296875,0.14354220949411392,-0.6906210882321,0.7654669242493808
1761505966603748400,6.058748291015625,0.039220249754190445,-0.7175295534238219,0.844367442484945
1761505966623904500,6.078904541015625,-0.0541319876819849,-0.5260451507985592,0.7569317356161773
1761505966644060400,6.099060302734375,-0.03685644323229789,-0.30108664085566994,0.5905693531572819
1761505966664216600,6.119216552734375,0.023630466434359548,-0.18394056311696766,0.4620436571396887
1761505966684372500,6.13937255859375,0.024130232650041578,-0.0021329203754663468,0.3881887318558991
1761505966704528400,6.1595283203125,0.032626258316636084,0.09491524896919727,0.3183706608727574
1761505966724684500,6.1796845703125,0.06645896981358528,0.13581453785151243,0.36692061063870784
1761505966744840400,6.19984033203125,0.1175964518547058,0.12170534847825765,0.4351799078725278
1761505966764996400,6.219996337890625,0.09703764795064926,0.11505115128606558,0.5105355931080877
1761505966785152500,6.240152587890625,0.08291326100826263,0.055877954566478726,0.5973631049506366
1761505966805308400,6.260308349609375,0.08805120841860771,0.011892390106618404,0.6611670302107929
1761505966825464600,6.280464599609375,0.11006196469664573,-0.0369651643037796,0.7360539288908243
1761505966845620500,6.300620361328125,0.06888181304633617,-0.03369476433098316,0.7621424560017883
1761505966865776400,6.3207763671875,0.03769230953454971,-0.002027998696267605,0.6823885358072816
1761505966885932500,6.3409326171875,0.0023556232154369355,0.07532119844406843,0.5570459998704492
1761505966906088400,6.36108837890625,-0.02336333993077278,0.15650573596358297,0.4625603744901716
1761505966926244600,6.38124462890625,0.0313403101593256,0.23430004652291536,0.3688527477450669
1761505966946400500,6.401400390625,-0.04919043962657451,0.357208341050148,0.31131825814321634
1761505966966556400,6.421556396484375,-0.06848959885835647,0.40751843235641716,0.26533611303865906
1761505966986712600,6.441712646484375,-0.1379565183162689,0.3517684880837798,0.2399285539291799
1761505967006868500,6.461868408203125,-0.2975438536822796,0.32402766372114417,0.29607889569625256
1761505967027024400,6.4820244140625,-0.3831634510397911,0.37942280320674177,0.20222119295597074
1761505967047180300,6.50218017578125,-0.39237434697747225,0.5294385926291346,0.11385536563023924
1761505967067336400,6.52233642578125,-0.3260995015591383,0.7183411620676518,0.022629911089688537
1761505967087492600,6.54249267578125,-0.19252572837173937,0.8215195047304034,-0.08173515713959932
1761505967107648500,6.5626484375,-0.06286708280146122,0.9125605426147579,-0.1338511288240552
1761505967127804700,6.5828046875,0.11382044044733047,0.9575734042957424,-0.07472045607194304
1761505967147960600,6.602960693359375,0.335326179587841,0.916475085709989,-0.02435863457843661
1761505967168116500,6.623116455078125,0.3525228135824203,0.8373942424714564,0.07428352595940232
1761505967188272600,6.643272705078125,0.2632704126805067,0.664857993683219,0.1297607907705009
1761505967208428500,6.663428466796875,0.01899111619591713,0.43512130955308675,0.10701543660759925
1761505967228584700,6.683584716796875,-0.2127630452364683,0.23287965833097696,0.17261523230858147
1761505967248740600,6.70374072265625,-0.45378363218605516,0.16835750179886816,0.17389635816030202
1761505967268896500,6.723896484375,-0.5835059906423091,0.19031272849738598,0.12524148671515284
1761505967289052700,6.744052734375,-0.5617582692146301,0.25340923614054917,0.12094795423969626
1761505967309209600,6.764209716796875,-0.3810059807449579,0.3450365494802594,0.16374891202487052
1761505967329365800,6.78436572265625,-0.2606213594764471,0.3357411901295185,0.22014095359332858
1761505967349521700,6.804521728515625,-0.10398819774091243,0.35149551636129617,0.34143604077026246
1761505967369677600,6.824677490234375,0.009406126248836516,0.23881343229413032,0.4592893169302493
1761505967389833700,6.844833740234375,0.12899521322548388,0.18554156857281923,0.5799386535495519
1761505967409989600,6.86498974609375,0.05560322927832603,0.21282617360055445,0.6465667693849653
1761505967430145800,6.885145751953125,-0.014522446349263191,0.276050691537559,0.5960969574723393
1761505967450301700,6.9053017578125,-0.17828385252952575,0.40986733357012267,0.5242929003037512
1761505967470457600,6.92545751953125,-0.2551876439899206,0.6299924320071936,0.3787842130422592
1761505967490613800,6.94561376953125,-0.3415601055413484,0.7667007038280368,0.2554975136566907
1761505967510769700,6.965769775390625,-0.3934638957798481,0.8141448843091725,0.2478596391893923
1761505967530925800,6.98592578125,-0.3855547300904989,0.8602528477504849,0.2373234859973192
1761505967551081700,7.006081787109375,-0.3469809615463018,0.8372200549483299,0.22264994073957203
1761505967571237600,7.026237548828125,-0.25590309878289696,0.8105985900044441,0.17024002760984003
1761505967591393800,7.046393798828125,-0.21292788040935992,0.818370100788772,0.09797522106170654
1761505967611549700,7.0665498046875,-0.11546996122002601,0.7761614828735589,-0.004093918250128626
1761505967631705900,7.086705810546875,-0.14627718741595744,0.7018707965210079,-0.027398440665751693
1761505967651861800,7.10686181640625,-0.23411562986671924,0.5305798716187476,-0.11925627482570707
1761505967672017700,7.127017578125,-0.48754620105624197,0.19693243889808654,-0.21008739628642797
1761505967692173800,7.147173828125,-0.726097183021903,0.15072802934497595,-0.3939449572950601
1761505967712329700,7.167329833984375,-0.8629273276567458,0.19661562803387642,-0.5013459591541439
1761505967732486000,7.18748583984375,-0.8150999930769205,0.39105975724756714,-0.5490932142350823
1761505967752641800,7.207641845703125,-0.8527917180895804,0.5916390282154083,-0.6179678668882698
1761505967772797700,7.227797607421875,-0.8024287275522947,0.9530755083546042,-0.585130303908512
1761505967792953900,7.247953857421875,-0.7795452800929545,0.9538003154978155,-0.5426208033505827
1761505967813109800,7.26810986328125,-0.8620943839639424,0.7859279668673872,-0.39483942191675303
1761505967833265700,7.288265625,-0.9855600201129913,0.5576148857995867,-0.3225920048948377
1761505967853422600,7.308422607421875,-0.9227379454970359,0.5591995246425271,-0.30085290516503155
1761505967873578500,7.32857861328125,-0.6883487593859434,0.6705252256646752,-0.3268579187110066
1761505967893734700,7.348734619140625,-0.47182548483312126,0.8200397875666617,-0.3595918021205812
1761505967913890600,7.368890625,-0.14221008410751818,0.9623124155163765,-0.39994390544891356
1761505967934046700,7.389046630859375,0.09807342073917388,1.0961489312931894,-0.38543227275460956
1761505967954202600,7.40920263671875,0.31982699716091156,1.1727981634706257,-0.31984073342531916
1761505967974358500,7.429358642578125,0.4879319855034351,1.1415265346333383,-0.2729417657367885
1761505967994514700,7.4495146484375,0.6051894146621227,1.0878136491462587,-0.24336115872636435
1761505968014670600,7.469670654296875,0.6335153454363346,0.9984987044021487,-0.28048911237642166
1761505968034826800,7.48982666015625,0.633439942112565,0.8433119420826435,-0.37199323772788045
1761505968054983200,7.509983154296875,0.5691197378933429,0.6672703155219555,-0.2780651000998914
1761505968075139000,7.53013916015625,0.44958267336487767,0.5013876794040203,-0.19173676995113492
1761505968095295000,7.550294921875,0.38659868618547916,0.434126745557785,-0.15659385263845324
1761505968115451100,7.570451171875,0.18135551505982875,0.36773674932718275,-0.21254414178878067
1761505968135607000,7.59060693359375,-0.005912438914179801,0.34471944635510443,-0.17256415970847008
1761505968155763000,7.610762939453125,-0.1591068583726883,0.2742912806496024,-0.19148264905959367
1761505968175919000,7.630919189453125,-0.3175841866701841,0.2289887883722782,-0.17275135284364224
1761505968196075000,7.651074951171875,-0.4174398146510124,0.2512242933169007,-0.1462767490245402
1761505968216231200,7.671231201171875,-0.48089375742971896,0.286248552685976,-0.06975479648858308
1761505968236387000,7.691386962890625,-0.5044365455806255,0.3355082581564784,0.0013579904802143573
1761505968256543000,7.71154296875,-0.39163141965568066,0.28404256707429887,-0.07567308062165976
1761505968276699100,7.73169921875,-0.4034972140163183,0.07878215255290269,-0.06746361681148409
1761505968296855000,7.75185498046875,-0.3960556658387184,0.08734627501964569,-0.13111205924898386
1761505968317011200,7.77201123046875,-0.13937924459576606,-0.028418577493727205,0.01286065061688423
1761505968337167000,7.7921669921875,-0.07155775425732136,0.0032058103039860723,0.15562076982259748
1761505968357324000,7.812323974609375,-0.028962475112080572,-0.15498188739717006,0.17778993153274059
1761505968377480000,7.83247998046875,0.09382219303548335,-0.24359365230798719,0.2377547170214355
1761505968397635800,7.8526357421875,0.15966507677733896,-0.24758359872698782,0.29951120823249217
1761505968417792000,7.8727919921875,0.22977555483579634,-0.3557338845834136,0.3277528217241168
1761505968437948000,7.892947998046875,0.20577683961093424,-0.33822511589974164,0.30410744998157024
1761505968458104000,7.91310400390625,0.2842407199949026,-0.39427667346745726,0.20945450521036982
1761505968478260000,7.933260009765625,0.26080723743736745,-0.45370004555583,0.28671339371874927
1761505968498415900,7.953415771484375,0.27331425231099127,-0.3806125975131988,0.19926073571518063
1761505968518572000,7.973572021484375,0.24151743055582045,-0.23638678966909646,0.1515264862462878
1761505968538728000,7.99372802734375,0.24591712681949138,-0.15400982749462128,0.03001154577359557
1761505968558884000,8.013884033203125,0.2275432657390833,-0.10659487310796975,0.0048236207641661165
1761505968579038200,8.0340380859375,0.10153145223855972,-0.21059213093817233,-0.06141235394850373
1761505968599194000,8.054194091796875,0.02842880662679672,-0.37514322619140145,0.01965966310724616
1761505968619350000,8.07435009765625,-0.0709147801786661,-0.6230187936022877,0.030081250008940696
1761505968639506200,8.094506103515625,-0.23713000925183295,-0.811909964863956,0.1165958965100348
1761505968659662000,8.114662109375,-0.21407529687881469,-0.7155500700443983,-0.018166355809569358
1761505968679818000,8.13481787109375,-0.38399697925448417,-0.8243561894610524,0.06020341655015945
1761505968699974100,8.15497412109375,-0.1740899079710245,-0.752953333504498,0.006782353616505861
1761505968720130000,8.175130126953125,-0.03251695272326469,-0.7428177239373326,0.16373028038963675
1761505968740286200,8.1952861328125,0.018487258327007292,-0.6904328721836209,0.18672902479171752
1761505968760442000,8.215442138671875,0.08622866916656494,-0.6640837944403291,0.2888875228874385
1761505968780598000,8.235597900390625,0.14361995090544222,-0.7014870579004288,0.3096647918477654
1761505968800754200,8.255754150390626,0.17634323985576628,-0.7370473238423466,0.3539430556438863
1761505968820910000,8.27591015625,0.15321780033409593,-0.7672776269331574,0.40012496110424395
1761505968841066200,8.296066162109375,0.1511678820669651,-0.7141185759365558,0.4241622547738254
1761505968861222100,8.31622216796875,0.12992811016142367,-0.6609773528575896,0.4502295929662883
1761505968881378000,8.3363779296875,0.10786474691331385,-0.5751639864936471,0.45662893861457704
1761505968901534200,8.3565341796875,0.04304653004407882,-0.4760729131445288,0.4024452207453549
1761505968921691000,8.37669091796875,0.05027823486328125,-0.3804349028587341,0.4128676844298839
1761505968941847000,8.396846923828125,0.09517711477577685,-0.28578619587123394,0.3787316060721874
1761505968962005200,8.417005126953125,0.1591711557805538,-0.17779314640313384,0.33150954390913245
1761505968982161200,8.4371611328125,0.1933569184988737,-0.13111264377087353,0.33234131855815646
1761505969002317000,8.457317138671876,0.20216098720133305,-0.14151654888540505,0.31727453619912266
1761505969022473200,8.47747314453125,0.165623692920804,-0.17368424977958202,0.31755744479373094
1761505969042629000,8.497629150390624,0.09685878425240516,-0.2319929386243224,0.3279784471735358
1761505969062784500,8.517784423828125,-0.0015676877081394194,-0.2615785140708089,0.2904366520255804
1761505969082940700,8.537940673828125,-0.09708148709237575,-0.241499602638185,0.2912025218315422
1761505969103096600,8.5580966796875,-0.14119126245379446,-0.19526509020775557,0.1977145291864872
1761505969123252700,8.578252685546875,-0.1678331856638193,-0.10749679038375616,0.09084595370367168
1761505969143408600,8.59840869140625,-0.07256897712647914,-0.12736322810947895,0.008901829988509417
1761505969163564500,8.618564453125,-0.004345920249819756,-0.11716682826578616,0.017593816618621347
1761505969183720700,8.638720703125,0.04560030618011951,-0.1598231899484992,0.06183306357860565
1761505969203876600,8.658876708984375,0.008842062625288962,-0.15100889211297033,0.07629618095606565
1761505969224032800,8.67903271484375,0.045916532522439955,-0.1935878046452999,0.04229264293685555
1761505969244188700,8.699188720703125,0.0005699088424444198,-0.2181879928946495,0.07933087247684598
1761505969264345600,8.719345703125,-0.07070902847349643,-0.277458804769814,0.09728723879754543
1761505969284501500,8.73950146484375,-0.09077508042454718,-0.22083149314075706,0.13519582143127917
1761505969304657400,8.759657470703125,-0.10580898342728615,-0.1601446769878268,0.14740604531541465
1761505969324813600,8.7798134765625,-0.08908347407579421,-0.07526333077698946,0.15977978919818997
1761505969344969500,8.799969482421876,-0.12729834617972374,0.02670388253033161,0.14237974158599973
1761505969365125400,8.82012548828125,-0.14527356333136557,0.11593056446909904,0.09554302547872066
1761505969385281500,8.840281494140624,-0.23871231000721455,0.24810849938392637,0.05416267508119344
1761505969405437400,8.8604375,-0.22812778762876987,0.40902796013653275,-0.07564239322245121
1761505969425593600,8.880593505859375,-0.20879297256171703,0.5359375992596149,-0.17156331210285425
1761505969445749500,8.90074951171875,-0.18660218354165553,0.5824959368169307,-0.24175533096492288
1761505969465905400,8.920905517578126,-0.16092472144961356,0.5630386644139885,-0.21523148117661475
1761505969486061600,8.9410615234375,-0.11495967361032962,0.5330114826798439,-0.18978285940438508
1761505969506217500,8.961217529296874,-0.11248889958262442,0.4914867553755641,-0.14703750426396728
1761505969526373600,8.98137353515625,-0.1756242779314518,0.5082572729125618,-0.13778539953306315
1761505969546529500,9.001529541015625,-0.21595395023226738,0.6066735157400369,-0.32748058065399527
1761505969566685400,9.021685546875,-0.16193711336255073,0.7194993921920657,-0.4733635080553591
1761505969586841600,9.041841552734375,-0.012159808871150016,0.846871095868945,-0.544599483012408
1761505969606997500,9.06199755859375,0.1257750821352005,0.7531953255668282,-0.5021501882091164
1761505969627153700,9.082153564453124,0.14921090278029442,0.5669140445426106,-0.3525220829300582
1761505969647309600,9.1023095703125,0.11742635598480701,0.3101806324154138,-0.212130446421355
1761505969667465500,9.122465576171875,0.022964111480116844,0.015538637654483317,-0.07505173385292291
1761505969687621600,9.14262158203125,-0.09997194783687591,-0.14002134189158677,-0.03260463100671768
1761505969707777500,9.162777587890625,-0.19047405653893945,-0.21475538809746503,-0.0816824040390551
1761505969727934700,9.182934814453125,-0.2219827090024948,-0.1484384571030736,-0.2183107424914837
1761505969748090600,9.203090576171874,-0.18868366599082945,-0.11859978367835283,-0.3435777289740741
1761505969768246500,9.22324658203125,-0.0947352162271738,-0.111008890157938,-0.3528947156347334
1761505969788402400,9.24340234375,0.018103227445483205,-0.17238982605487108,-0.3475591998256743
1761505969808558600,9.26355859375,0.10599661495387554,-0.2041103677034378,-0.32330241818651556
1761505969828714500,9.283714599609375,0.2637058814883232,-0.14127952525913715,-0.39479821312353014
1761505969848870400,9.303870361328125,0.4254734835028648,-0.10839666183292865,-0.43265521170049903
1761505969869026300,9.3240263671875,0.4463976135879755,-0.0540314499169588,-0.45101957430019973
1761505969889182500,9.344182373046875,0.45885202149152754,-0.08673661868870258,-0.42895372683405875
1761505969909338400,9.36433837890625,0.4373772717863321,-0.1870677552267909,-0.3084742668889463
1761505969929494500,9.38449462890625,0.3067448127478361,-0.22586393435001373,-0.28858064889535306
1761505969949650400,9.404650390625,0.2926765399068594,-0.28393004661053417,-0.25943492617085573
1761505969969806300,9.424806396484374,0.23830957442522047,-0.3842579682782292,-0.18955606491118668
1761505969989962500,9.44496240234375,0.16536241163611412,-0.47830344867557284,-0.1643691628150642
1761505970010118400,9.465118408203125,0.06031798284053802,-0.640234132297337,-0.14932313098311423
1761505970030274600,9.485274658203124,-0.07325871295630931,-0.7814357700146735,-0.14966259207054972
1761505970050430500,9.505430419921876,-0.1367103176474571,-0.9072894703440367,-0.19653335657790302
1761505970070586600,9.525586669921875,-0.216335058504343,-0.9524036004424095,-0.21832681684345007
1761505970090742500,9.545742431640624,-0.17940730360150337,-0.9299529914423823,-0.2502488724134862
1761505970110898400,9.5658984375,-0.1643435899823904,-0.9061175039552152,-0.3760109489366412
1761505970131054600,9.5860546875,-0.06518763470351696,-0.8083703925609588,-0.36767259804978963
1761505970151210500,9.60621044921875,-0.07941139036715031,-0.744652245888114,-0.4324148270733654
1761505970171366400,9.626366455078125,-0.15195464853048324,-0.728060153657943,-0.35655265362039207
1761505970191522600,9.6465224609375,-0.26045360169410703,-0.6545008503198624,-0.29188451274633403
1761505970211678500,9.666678466796874,-0.40528468195497985,-0.6232787597127258,-0.30895664357841013
1761505970231834600,9.686834716796875,-0.5209773460149765,-0.5776574107445777,-0.33769437002390623
1761505970251991600,9.706991455078125,-0.5736392611443996,-0.7421959387771785,-0.18633374186381696
1761505970272147700,9.727147705078124,-0.8936538898319005,-0.882093800419569,0.13034867366105318
1761505970292303600,9.7473037109375,-0.8925754469454288,-0.5474675857946276,0.03818959153220057
1761505970312459500,9.76745947265625,-1.0247194795906542,-0.48803033131137485,0.003331190249323845
1761505970332615700,9.78761572265625,-0.745731857818365,0.007281389179825782,-0.14015680483952164
1761505970352771600,9.807771484375,-0.5326239446669817,0.38939766925424335,-0.11318535741418599
1761505970372927700,9.827927734375,-0.15104045629501342,0.5957914717197418,-0.028641572594642638
1761505970393083600,9.848083740234374,0.06452069522738456,0.610181523860991,0.07394874104708432
1761505970413239600,9.868239501953125,0.008952537262439728,0.38471389535218475,0.3592560673601925
1761505970433395700,9.888395751953125,-0.13294833476543425,0.22943156370371579,0.5264538777299225
1761505970453551600,9.908551513671876,-0.3214110514819622,0.17046090381890536,0.590192336538434
1761505970473707800,9.928707763671875,-0.4885720369726419,0.4423512608066201,0.30388503940254447
1761505970493863700,9.94886376953125,-0.47842765957713124,0.831046627010405,0.026021745485067367
1761505970514019600,9.96901953125,-0.3964157313227653,1.1536787447199224,-0.1304001115873456
1761505970534175700,9.98917578125,-0.13046820838749407,1.158689266358316,-0.31249358553290363
1761505970554331600,10.00933154296875,0.2663812381774187,1.0250181702762842,-0.27782354642897844
1761505970574487800,10.02948779296875,0.34946751766502854,0.937676571431756,0.1422154909349978
1761505970594643700,10.049643798828125,0.4509989699035883,0.7241302668631077,0.46391748818755146
1761505970614799600,10.069799560546874,0.34315117412507534,0.5759352631270885,0.4151837062872946
1761505970634955500,10.08995556640625,0.3086012542694807,0.5220291931554675,0.6843800018854439
1761505970655111400,10.110111328125,0.445602079296112,0.6471659773871302,0.6705481681488454
1761505970675267600,10.130267578125,0.4062608335107565,0.7103297050476074,0.6747834676310419
1761505970695423500,10.150423583984375,0.25081366668939586,0.581505172213912,0.6236985925599933
1761505970715579400,10.170579345703125,0.04726034834682941,0.45952334488183255,0.5641299667820334
1761505970735735600,10.190735595703124,-0.07851707187592982,0.4016989324226975,0.5610358001589775
1761505970755891500,10.210891357421875,-0.1884334906220436,0.36799481574147935,0.4736749120920896
1761505970776047400,10.23104736328125,-0.3094435503125191,0.3674643621265888,0.4366096484147012
1761505970796204500,10.25120458984375,-0.44770226644575595,0.5480442166388034,0.3942066769711673
1761505970816360400,10.2713603515625,-0.3619055589556694,0.5945180907830596,0.2539965345092118
1761505970836516600,10.2915166015625,-0.08882862253189086,0.4254997869879007,0.07814429304078221
1761505970856672500,10.311672607421874,0.24381927775740622,0.3127767863884568,-0.022916180685162543
1761505970876828700,10.33182861328125,0.39886896969377994,0.24398557423502204,-0.02046294231414795
1761505970896984600,10.351984619140625,0.34679625262916086,0.16898644735217094,0.24870208136290312
1761505970917140500,10.372140380859374,0.43337037423253055,-0.0011614449948072433,0.33109614080265165
1761505970937296600,10.392296630859375,0.34839725808501243,-0.27606325875818727,0.3873217397630214
1761505970957452500,10.41245263671875,0.25571663630008695,-0.40477351756244895,0.4616020508520305
1761505970977608700,10.432608642578124,0.09068681761920451,-0.48995706159025426,0.4247250032231211
1761505970997764600,10.4527646484375,0.044804187366366384,-0.3836842600435018,0.3347622620947659
1761505971017920500,10.47292041015625,0.39805356165766714,-0.3056143474131822,0.22257965198233723
1761505971038076700,10.49307666015625,0.04487900616824626,-0.2103077610388398,0.17312603137493132
1761505971058232800,10.51323291015625,-0.011617957079410553,-0.3160492321878671,0.07469663680493831
1761505971078388700,10.533388671875,-0.20893442685902117,-0.4948869192078709,-0.011868863100558518
1761505971098545000,10.553544921875,-0.11438216598331928,-0.7337912446558476,-0.0549292755395174
1761505971118700800,10.57370068359375,0.21452070255875585,-0.6742474610581993,-0.09964724592715501
