time,seconds_elapsed,z,y,x
1761507239643049500,0.090049560546875,2.155510977458954,2.3804411380901933,-1.3723857930526135
1761507239663205600,0.11020556640625,1.2987912722706794,2.4473662641108036,-1.8381430638879537
1761507239683361500,0.130361572265625,2.1177076087653637,3.0709201875030994,-2.598800103637576
1761507239703517400,0.150517333984375,4.686752041086554,2.896541233457625,-2.020820182940364
1761507239723673600,0.170673583984375,5.26088288514018,2.289180904497206,-0.6274667129218578
1761507239743829500,0.19082958984375,0.37257191439867016,2.1608111296936867,0.5843298011805862
1761507239763985700,0.210985595703125,-3.1588737807661293,1.686724421930313,1.6076611143484711
1761507239784141600,0.2311416015625,4.163250729551911,2.0292446046754717,0.6850927532646804
1761507239804297500,0.25129736328125,4.539151496112346,1.5628317925408481,-0.3824423702236265
1761507239824453600,0.27145361328125,-0.7451490894943475,0.5474748923182488,-0.7360400464959442
1761507239844609500,0.291609619140625,1.3865320995658634,-0.07215425884574651,-0.17337576835229992
1761507239864765700,0.311765625,2.89782805839777,-0.9254735079407691,0.000206043966114521
1761507239884921600,0.331921630859375,0.6628115825474262,-2.070131472467631,0.19139424012377856
1761507239905077500,0.352077392578125,-3.4118747283667323,2.2506169266946614,-0.7034962057657539
1761507239925233700,0.372233642578125,-6.531813506060838,1.7977144612573086,0.0351633755788207
1761507239945389600,0.3923896484375,-12.619587944358587,-0.08259864210113882,-0.8504544342484325
1761507239965546500,0.41254638671875,-15.522860239636897,-0.9969869115997105,-0.06614478929787874
1761507239985702400,0.432702392578125,-16.444418619960544,0.1934352078994736,0.9104813251879066
1761507240005862400,0.4528623046875,-17.594253840994835,-0.7376489429973065,1.011691363452375
1761507240026018300,0.473018310546875,-15.461265660989284,-2.575317521241307,2.1673909464754164
1761507240046174200,0.49317431640625,-11.838361579310893,-1.6170571575947106,2.2209192691758273
1761507240066330400,0.513330322265625,-7.454514626678824,-2.157854325714707,2.392285597401857
1761507240086486300,0.533486328125,-4.371813400489091,-2.6792531120121477,1.025804863674566
1761507240106642400,0.553642333984375,-0.7067986083120107,-1.6130105125524103,0.16635281091295182
1761507240126798300,0.57379833984375,2.8157594315201044,-0.2574053200393915,-0.5594142999043688
1761507240146954200,0.593954345703125,6.287989552128314,1.1747324925340712,-2.5070506252229214
1761507240167110400,0.6141103515625,9.24110461346209,1.0540359557721763,-2.6842349920779465
1761507240187266300,0.634266357421875,9.335111515414715,0.5062677795957774,-1.9805828650981188
1761507240207422500,0.65442236328125,11.021448983854055,-1.40377564144209,-1.4081306217812002
1761507240227578400,0.674578369140625,10.436340234190226,-1.8403370668008923,-0.13804901890531182
1761507240247734300,0.694734375,10.650853922486304,-2.871464075346291,-0.5235108830805868
1761507240267890400,0.714890380859375,10.375184046959877,-2.3116481723710893,-0.945251244469732
1761507240288046300,0.73504638671875,9.553005493798851,-1.838113691662997,-0.7158681960828602
1761507240308202200,0.7552021484375,8.51451409396529,-1.3483930691771209,-0.6125805478267371
1761507240328358400,0.7753583984375,7.690774282836913,-0.802484622457996,-0.9535521859556436
1761507240348514300,0.795514404296875,7.331192782914638,-0.6628308717697858,-1.2517941049046815
1761507240368670500,0.81567041015625,7.438886849436163,-0.813214106265083,-2.416652853678167
1761507240388826400,0.835826416015625,6.701964321017265,-1.4574471720054745,-3.5058109031707048
1761507240408982300,0.855982177734375,6.105792910069227,-2.4273421516053375,-3.9049037447482347
1761507240429138400,0.876138427734375,3.5763118418514726,-3.1403540814742446,-3.0639877578914163
1761507240449294300,0.89629443359375,-0.05054886849820613,-2.5206740769058467,-1.6089475008971987
1761507240469450500,0.916450439453125,-4.944106507721543,-2.0725660061381754,0.101730481941998
1761507240489607400,0.936607421875,-10.526199953335523,-2.6354110476762056,2.7809707344725725
1761507240509763600,0.956763671875,-18.173152630102635,0.32406390407830477,4.661033370201289
1761507240529919500,0.97691943359375,-23.910330838966367,3.7273295017927883,1.6833233813151716
1761507240550075400,0.997075439453125,-22.75758586796522,4.869426529790461,-0.07172178571261466
1761507240570231600,1.0172314453125,-20.134819782328606,5.305893993255496,0.41096798828840253
1761507240590387500,1.037387451171875,-15.28911461212635,3.042152942702174,2.789452147091925
1761507240610543600,1.057543701171875,-8.936894287627934,0.5259584954284131,4.039069930870831
1761507240630699500,1.077699462890625,-2.9758745901525017,-0.5790243151836096,2.8313515529274937
1761507240650855400,1.09785546875,1.6645575983077288,-1.1583820270400493,1.0892933663100004
1761507240671011300,1.11801123046875,4.8438493132025,-1.96167855040282,0.1551644043572247
1761507240691167200,1.138167236328125,7.031044299691915,-2.4682579532310367,-0.7930072576038539
1761507240711323400,1.158323486328125,8.98356485338807,-2.264867424234748,-2.6262580194056033
1761507240731479300,1.178479248046875,10.65091705085039,-2.703311448469758,-3.7937384949848054
1761507240751635200,1.19863525390625,11.619778449618815,-3.537326862157881,-2.891251018095016
1761507240771791400,1.218791259765625,10.497674116075038,-4.620742860867082,-1.5377819608278571
1761507240791947300,1.238947265625,9.516273553729057,-5.616762607935071,-0.839163297970593
1761507240812103200,1.259103271484375,8.388268471708892,-5.739031143254041,-0.6671060648709535
1761507240832259300,1.27925927734375,7.349279059225321,-5.508591571551561,-0.29371611208766696
1761507240852415200,1.299415283203125,6.2176248070478435,-4.904135731860995,-0.030281741017103195
1761507240872571400,1.3195712890625,4.524703284043073,-4.21955713866353,0.8985977759748697
1761507240892727300,1.339727294921875,3.8212136541485786,-3.344084217688441,1.0806734220027923
1761507240912883200,1.35988330078125,2.1537059738636017,-2.3924437105730174,1.0459317789673805
1761507240933039400,1.380039306640625,-2.473581486341357,-1.3790604485109448,3.089843206898868
1761507240953195300,1.4001953125,-7.074691133716702,-0.4233589755669236,5.590120100203156
1761507240973351400,1.420351318359375,-12.88752576432824,0.6959998586609959,5.4933501632779835
1761507240993508400,1.44050830078125,-17.92882014212608,1.874762921885401,4.367257052358985
1761507241013661200,1.4606611328125,-20.225862573778628,0.7638936835832894,5.540377287390828
1761507241033817000,1.480817138671875,-20.012537803006172,2.440116146852076,3.426320310087502
1761507241053973200,1.50097314453125,-17.426214319103956,5.06757565100193,0.12640928838551044
1761507241074129200,1.521129150390625,-11.805476377797126,4.583816275008022,-1.975761144030094
1761507241094285300,1.541285400390625,-6.454824958926439,2.9744372508257624,-2.325638411539793
1761507241114441200,1.561441162109375,-1.1087491774082183,1.3442483705878256,-1.8535653816863893
1761507241134597000,1.58159716796875,3.50369376488626,0.8283103339143096,-1.5930129957929253
1761507241154753300,1.601753173828125,6.407144923862814,0.8705771848227828,-2.1329683062613007
1761507241174909200,1.6219091796875,8.610464531201124,1.219993995213881,-4.103936955317855
1761507241195065000,1.642065185546875,9.51048678702116,1.0123637097559868,-5.327011015564203
1761507241215221200,1.66222119140625,10.00846202763319,0.1039174523259513,-5.5683601038157935
1761507241235377200,1.682377197265625,10.295013362658024,-1.37394062127918,-4.995121824687719
1761507241255533300,1.702533203125,10.518342810094357,-2.886782932770252,-4.497653656814992
1761507241275689200,1.722689208984375,10.317105952000617,-3.8040047451943155,-4.077709458127617
1761507241295845000,1.74284521484375,9.700075292897225,-4.231328240478039,-3.903516966564953
1761507241316001300,1.763001220703125,9.22114903614819,-4.042483830967545,-3.830147778971493
1761507241336157200,1.7831572265625,8.516721248620748,-3.5291432634413242,-2.8646465042859313
1761507241356313300,1.803313232421875,7.544181453600525,-2.9007924611613154,-2.2559455743715167
1761507241376469200,1.82346923828125,6.49012657393217,-2.0179044416241347,-1.8960747361138461
1761507241396625200,1.843625244140625,6.474354419782757,-2.042583978720009,-2.0629995747610925
1761507241416781300,1.86378125,5.78657264662981,-2.662583132240176,-1.602392818556726
1761507241436937200,1.883937255859375,3.920630890712142,-3.9947099801406263,1.5325114730790257
1761507241457093000,1.904093017578125,0.47336803810000416,-5.649088422000408,5.39507040631175
1761507241477249000,1.9242490234375,-6.215905728170275,-4.653701127617061,8.046561066651345
1761507241497406200,1.94440625,-15.586292555105686,-0.6497812744520605,9.182552471250295
1761507241517562000,1.96456201171875,-23.34537874214649,1.9880299662336707,12.248932092714309
1761507241537718000,1.984718017578125,-27.055215257346628,7.274633275824785,7.955285635489225
1761507241557874200,2.004874267578125,-26.097674878537653,9.329126595786214,3.4383088540449736
1761507241578030000,2.025030029296875,-19.99012255758047,8.008246825826168,1.5240800370812415
1761507241598186000,2.04518603515625,-12.346784564179181,5.10974247560203,0.8901011657863854
1761507241618342100,2.065342041015625,-4.904585813716054,1.9123970714919267,0.7161480359375476
1761507241638498000,2.085498046875,0.509821745750308,-0.09372289737947284,0.0205740014731884
1761507241658654200,2.105654296875,4.727930439171195,-0.949689811439067,0.2837266329929232
1761507241678810000,2.12581005859375,7.728778727060556,-1.6232998513765633,-0.8549610249526798
1761507241698966000,2.145966064453125,7.8535455089360475,-0.6225948691017925,-4.014050055904686
1761507241719122200,2.1661220703125,7.8791440605729814,1.6688555877625941,-4.918050275444984
1761507241739278000,2.186278076171875,10.434604204177855,1.1289131367757916,-3.424401032462716
1761507241759434200,2.206434326171875,13.187152854025364,-2.064880566202104,-2.3291243539594113
1761507241779590100,2.226590087890625,13.415774562650919,-4.128103720586002,-1.0904146254248916
1761507241799746000,2.24674609375,12.370946361011265,-3.7209003455281255,0.10222747167870402
1761507241819902200,2.266902099609375,11.711205856472253,-2.9993928283840416,-0.37383024389669295
1761507241840058000,2.28705810546875,10.235324325370788,-2.5819065442427993,0.26342282676324247
1761507241860214300,2.30721435546875,9.218838421118258,-1.6508555284306405,0.33194355141222476
1761507241880370200,2.3273701171875,7.70215726211667,-0.6274827872738242,1.132079930243641
1761507241900526000,2.347526123046875,5.535190240141749,-0.12191394972763955,3.514605619522929
1761507241920682200,2.36768212890625,4.2827164824098345,-0.04863280574381351,3.526224745646119
1761507241940838100,2.387838134765625,3.29563319825232,-0.07238901744969188,1.4140879227504133
1761507241960995000,2.4079951171875,1.032435753056407,-1.001127226274833,0.5725460590802133
1761507241981151000,2.42815087890625,-3.5897418167889117,-1.7596847364619372,2.2219138331711292
1761507242001309200,2.44830908203125,-8.689443375369907,-0.829708875600621,2.713082608638704
1761507242021465300,2.46846533203125,-15.003924044060707,0.6132234488401561,2.871529834058881
1761507242041621200,2.488621337890625,-20.913751314437388,1.6450208309277892,2.746559054043889
1761507242061777400,2.50877734375,-25.919196964740753,4.0004847641497845,0.31355405437126754
1761507242081933300,2.528933349609375,-25.435979732799527,5.755066332253813,-2.308838375647366
1761507242102089200,2.549089111328125,-19.902643011569975,4.735184940344095,-3.897442907348275
1761507242122245400,2.569245361328125,-13.062198440623282,2.0275920151628553,-2.558231069622934
1761507242142401300,2.5894013671875,-5.799433297246694,-0.3268232857890427,-0.26557445183917877
1761507242162557400,2.609557373046875,0.48363516509234905,-0.6938020563557744,0.1938455787986517
1761507242182713300,2.62971337890625,3.977662106966972,0.23930720716044304,-1.613443643272668
1761507242202869200,2.649869140625,6.5191311346203085,0.8757271879971027,-2.923661003312468
1761507242223025400,2.670025390625,8.532888539567589,2.0904287028260526,-3.0635733318716287
1761507242243181300,2.690181396484375,10.851885028874873,1.413290050370991,-1.6531262498416006
1761507242263337500,2.71033740234375,12.195799052941798,0.601857932151854,-1.1870311253540218
1761507242283493400,2.730493408203125,12.749039669179915,-1.0252761636253447,-0.6545230621516704
1761507242303649300,2.750649169921875,12.826114725553989,-2.8376404239386317,-0.6951151847809552
1761507242323805400,2.770805419921875,12.14810791196227,-3.1715438772469757,-1.204193126426637
1761507242343961300,2.79096142578125,11.381532003557682,-3.1409818579837676,-0.8097636004850268
1761507242364117200,2.8111171875,10.65520861056447,-2.51831786916852,-0.7131016539789736
1761507242384274200,2.831274169921875,9.564786532485485,-1.5502023203313349,-1.1221560637310146
1761507242404430000,2.85143017578125,8.243038747519254,-0.6584620821010321,-1.5671863344885408
1761507242424586200,2.871586181640625,6.690705844900012,-0.3578416705176234,-1.464658126297593
1761507242444742100,2.8917421875,5.3946711778610945,-1.017806631462276,-1.0594463634483515
1761507242464898300,2.911898193359375,2.9709558384507893,-1.886601828239113,-0.06788081931024789
1761507242485054200,2.93205419921875,-0.14097908100783824,-2.5947452752888203,1.5137474436372518
1761507242505210000,2.952210205078125,-4.797990648347139,-2.5208526483431455,4.433211872042715
1761507242525366300,2.9723662109375,-10.86789391438961,-1.5847677300170062,7.641833434057236
1761507242545522200,2.992522216796875,-17.491826901221273,-1.583691186826676,11.266340274757146
1761507242565678300,3.01267822265625,-22.738051146411895,3.09824074062705,9.293750746500491
1761507242585834200,3.032834228515625,-25.84387079786062,6.670501261261105,5.9472460236668585
1761507242605990100,3.052990234375,-22.317120567035673,8.099474326193333,0.795712278778851
1761507242626146300,3.073146240234375,-16.03258203214407,6.390901645070314,0.046082536739110946
1761507242646302200,3.09330224609375,-8.429220659822224,3.3144390210092065,1.121562189491093
1761507242666458400,3.113458251953125,-1.3728303219497202,0.7623078756965697,0.611253829267621
1761507242686614300,3.1336142578125,2.7603309742867945,-1.0031298713341354,-1.6533771558627486
1761507242706770200,3.153770263671875,4.8666404062032695,-1.7802689670681953,-3.0121202080100775
1761507242726926300,3.17392626953125,6.153069040507078,-1.9462337285116313,-4.119308419711888
1761507242747082200,3.194082275390625,7.6681375036150214,-1.5235181654147802,-5.529198306250572
1761507242767238400,3.21423828125,9.169595959043502,-2.0370950259149074,-7.442341958326101
1761507242787395300,3.234395263671875,9.990655152785777,-3.8039378174379466,-8.338894492208958
1761507242807551200,3.25455126953125,9.740947401511669,-5.281346996498107,-6.939989817804098
1761507242827707400,3.274707275390625,9.722436762309075,-5.680412950068712,-5.363391073456406
1761507242847863300,3.29486328125,9.151201639696955,-4.894065588745475,-4.699322184324264
1761507242868019500,3.31501953125,9.240725258755683,-4.078405039176345,-4.472590234968066
1761507242888175400,3.33517529296875,9.198467248740792,-3.666366791307926,-3.4207366647362707
1761507242908331300,3.355331298828125,8.928954142278432,-3.2399694709584117,-2.6787802338033915
1761507242928487400,3.3754873046875,7.617381714367866,-2.6263661559551954,-2.065350229540467
1761507242948643300,3.395643310546875,6.372312095412612,-2.0498814422518015,-1.933671768580377
1761507242968799200,3.41579931640625,4.871777184569836,-0.8818867335401475,-1.0668456799194217
1761507242988955100,3.435955078125,3.09495923473835,-0.4441422358766198,0.535708174417913
1761507243009108200,3.456108154296875,-0.4505038798630237,-1.706631483927369,4.118992777891457
1761507243029264100,3.47626416015625,-6.517125055494904,-1.8668676385909317,9.150125534898041
1761507243049420300,3.496420166015625,-13.441762405866383,-1.6999824013017117,11.90768821351528
1761507243069576200,3.516576171875,-20.011506706392765,3.1806983668223023,10.413609346944092
1761507243089732000,3.536732177734375,-24.0473147128582,7.058176636767387,6.136511873459815
1761507243109888300,3.55688818359375,-21.869643341517445,7.741756282055378,2.179820950590074
1761507243130044200,3.577044189453125,-16.79521709396839,6.6328492837369435,0.8789803445741534
1761507243150200300,3.597200439453125,-11.091987916457652,4.934368373039365,1.3378531165927647
1761507243170357200,3.617357177734375,-5.394577654358744,2.991588584373891,0.7933221687719225
1761507243190513400,3.637513427734375,-1.5421891097456215,1.3755663227848707,-1.4361001403331757
1761507243210669300,3.65766943359375,0.9273527458161115,-0.34525768141765145,-3.1042592702642082
1761507243230825200,3.6778251953125,2.7147710001170635,-1.7638174523524939,-4.243838470222055
1761507243250981400,3.6979814453125,4.586877708405256,-2.2326988465577364,-4.7789001634299755
1761507243271137300,3.71813720703125,6.372435429531335,-2.5030045647025108,-5.421248219141364
1761507243291293200,3.738293212890625,7.394496503567695,-2.8179391136467453,-5.167728800624609
1761507243311449300,3.758449462890625,8.037152602314949,-3.742299107387662,-4.5581563485726715
1761507243331605200,3.778605224609375,7.842661126828193,-4.6065854484379285,-3.8668040234565733
1761507243351761400,3.798761474609375,7.58753368859291,-4.522859702003002,-3.9319115786612033
1761507243371917300,3.818917236328125,6.928539033985137,-3.8566561389297243,-3.8531776491642
1761507243392073200,3.8390732421875,6.341246510541438,-3.086714845745265,-3.4079251139581204
1761507243412229400,3.8592294921875,5.54290943621695,-2.8101418838992713,-2.542034844842553
1761507243432385300,3.87938525390625,4.125906210541725,-2.4551450814187525,-1.6247212624818086
1761507243452541400,3.89954150390625,2.5701409953862426,-2.0502935301840304,0.11279343548715114
1761507243472697300,3.919697265625,1.1308271537035703,-1.8358907549165189,1.752562629497051
1761507243492853200,3.939853271484375,-1.3505530236899852,-1.5480619473017752,3.60468394985497
1761507243513009400,3.960009521484375,-3.718825877341628,-0.6398395800217985,4.692980121821165
1761507243533166000,3.980166015625,-5.288039772135019,0.6815890559926628,6.348118149876594
1761507243553319200,4.000319091796875,-6.42045098015964,1.0557542309321462,7.833494654554128
1761507243573475300,4.020475341796875,-8.58628286062479,2.4178914555624127,8.249566103461385
1761507243593631200,4.04063134765625,-9.937930109292267,3.620844226539135,6.975422950235009
1761507243613788400,4.060788330078125,-7.502779183632135,4.676140046179294,2.517265145245194
1761507243633944300,4.0809443359375,-4.022023226740956,3.165265527629852,-0.6561521246582269
1761507243654100200,4.101100341796875,-1.9614029483318327,-0.1904465840101242,-0.19909107823669908
1761507243674256400,4.12125634765625,-1.5417086327522993,-3.536984332330525,0.44451808345168825
1761507243694412300,4.141412353515625,-1.0537287164539098,-3.334423532156646,-0.6182876734271645
1761507243714568400,4.161568359375,0.6741606595575809,-1.4687493411339818,-2.6561986919000744
1761507243734724400,4.181724365234375,3.5131852313309904,0.11805252505913376,-4.069541933763027
1761507243754880300,4.20188037109375,5.448289370802044,1.0543109002560376,-4.9933857946753495
1761507243775036400,4.222036376953125,4.997235455840825,0.8281174416907131,-4.380336898684502
1761507243795192300,4.2421923828125,5.455666037049889,-0.7706193385764956,-4.178418488067388
1761507243815348200,4.26234814453125,5.518215724465251,-2.02751383536011,-4.08590124015063
1761507243835504400,4.28250439453125,5.409101854273676,-2.5180177171781657,-3.8373996497958895
1761507243855660300,4.302660400390625,5.510312988516688,-2.0885348519034683,-3.6378143583014606
1761507243875816400,4.32281640625,5.9233133594155305,-1.3756475713275371,-3.5888930910050867
1761507243895972400,4.342972412109375,6.065030691570043,-0.3078586192086339,-3.3286502094522117
1761507243916128300,4.363128173828125,5.947120935982466,-0.14981314298976212,-2.873483890736103
1761507243936284400,4.383284423828125,4.290533878162503,-0.21641959498263894,-2.534340198686719
1761507243956440300,4.4034404296875,2.801327001541853,0.12618844870906323,-2.2239143593385813
1761507243976597200,4.42359716796875,1.0261042119473218,-0.6365898575108498,-0.6763353732481598
1761507243996755500,4.44375537109375,-3.2972979165941476,-1.464362504351884,3.2333301790744065
1761507244016910800,4.463910888671875,-5.777356489995122,-1.026445280469954,4.847357029062509
1761507244037067000,4.48406689453125,-8.528118256425858,-2.0170615610592066,8.070418912100791
1761507244057223000,4.504222900390625,-11.7894102091372,-2.6998452336639165,9.394785355132818
1761507244077379000,4.524379150390625,-13.57487557580471,-2.4753075794816017,8.360495498642324
1761507244097535000,4.544534912109375,-12.573065847158432,-1.3938919608093798,6.468801461830735
1761507244117691000,4.56469091796875,-9.426078903540969,-0.9007380028739571,4.345286043569446
1761507244137847000,4.584846923828125,-5.019870481497049,-0.8722162572667003,3.3300849184304475
1761507244158003000,4.6050029296875,-0.6920452758163214,-0.4422529149986803,1.8462854538112878
1761507244178159000,4.6251591796875,2.48840320789814,-0.20132789737805723,-0.15526158112138508
1761507244198315000,4.64531494140625,3.9450983924925325,0.57535212947689,-2.3533009099692106
1761507244218471000,4.665470947265625,5.656667332822084,1.3548852076753972,-4.32790499291867
1761507244238627800,4.6856279296875,6.483903169372677,1.3571001072458921,-5.155998615342378
1761507244258783700,4.70578369140625,8.522409231129288,0.553867150638625,-5.540245769965648
1761507244278940000,4.72593994140625,8.009563169121742,-1.0966358380272985,-3.8942037792965767
1761507244299095800,4.746095703125,7.26397451916635,-3.103750443959236,-2.097575798101723
1761507244319251700,4.766251708984375,6.758927148211002,-4.337796272335947,-1.2272212430536746
1761507244339408000,4.786407958984375,6.871164703381061,-4.464789205828309,-1.1685244316741823
1761507244359563800,4.806563720703125,6.733185973232984,-4.013738213476539,-1.075394020295143
1761507244379720000,4.826719970703125,6.664406451517343,-3.604659399935603,-1.1339610678151248
1761507244399875800,4.846875732421875,5.85917727959156,-3.088950057451427,-1.7656953750535844
1761507244420031700,4.86703173828125,5.582631790274381,-3.4206209294021126,-2.460755907037854
1761507244440188000,4.88718798828125,4.160564266946912,-3.9016888743549583,-1.936611329163611
1761507244460343800,4.90734375,2.0780349390685555,-4.413140267133713,0.1772749677479267
1761507244480500000,4.9275,-1.0315940415352582,-5.490305388754606,5.432852732217311
1761507244500655900,4.94765576171875,-8.826243709388375,-4.994118200603127,12.08298165205717
1761507244520811800,4.967811767578125,-16.505273193895817,-0.9136378895226865,14.48764625403881
1761507244540968000,4.987968017578125,-22.4212098870635,2.806706356492638,11.615720698660612
1761507244561123800,5.008123779296875,-25.36736621530056,4.342604841661453,6.542504411423206
1761507244581280000,5.028280029296875,-21.91223394448757,5.811691890317201,-0.42584582394659515
1761507244601437000,5.04843701171875,-14.924798484897613,5.058174200928211,-2.303744851900637
1761507244621593000,5.068593017578125,-7.058856435725093,2.212364499059319,-0.9645724694028496
1761507244641749000,5.0887490234375,1.4471528647452592,0.43930473271757364,-2.036360574160516
1761507244661905000,5.10890478515625,5.08497628313601,-0.29807839895039795,-3.9265897991165515
1761507244682061000,5.12906103515625,6.243640707314014,-0.1802061988942325,-5.556314276713133
1761507244702217000,5.149217041015625,8.247267178869247,-1.2349258260816336,-6.234907365760207
1761507244722372900,5.169372802734375,8.224606434249877,-1.7138715181834994,-5.903509757792949
1761507244742529000,5.189529052734375,8.40442757934928,-1.514766119160503,-6.156230134886503
1761507244762685000,5.209684814453125,9.094516460400818,-0.2952198311815038,-6.103952250638604
1761507244782841000,5.229841064453125,9.219721049171685,-0.2722881606662646,-4.822689328534901
1761507244802997000,5.2499970703125,8.18596076951325,-0.5035247644979507,-3.7870021724671123
1761507244823153000,5.27015283203125,7.367540107581019,-0.030440584840625524,-2.970238045570254
1761507244843308800,5.290308837890625,6.9463295422196385,0.06024579438716173,-2.2931807877883315
1761507244863465000,5.31046484375,6.956103917258978,0.16993461492247877,-2.0489263334840535
1761507244883620900,5.330620849609375,6.932028629666567,-0.22515414211284368,-1.7472046095952392
1761507244903776800,5.35077685546875,6.085260409650206,-1.0648758411511778,-0.9836132699593901
1761507244923932700,5.3709326171875,5.081461553013324,-1.3887635118797421,-0.6662134999454021
1761507244944088800,5.3910888671875,3.6873651556730267,-2.1528578326016663,-0.48962476089596746
1761507244964245800,5.411245849609375,1.0311550655961037,-4.119441690702736,0.7464601720929145
1761507244984402000,5.43140185546875,-4.224828357064724,-4.3169194885239,1.9748428601413963
1761507245004557600,5.4515576171875,-8.638643746981025,-1.1920318562507628,2.401321721294522
1761507245024713700,5.471713623046875,-13.142479015040397,-0.5687929901570081,3.0267993062257763
1761507245044869600,5.49186962890625,-15.876680691814421,1.5592372751802206,2.0459201374053952
1761507245065025500,5.512025634765625,-18.73084964122772,1.4257127479620277,2.9349484132632613
1761507245085181700,5.532181640625,-16.165288374847172,1.1103896380916236,2.8153061347946524
1761507245105337600,5.552337646484375,-11.79765547491312,1.623960653372854,2.0640088979341087
1761507245125493800,5.57249365234375,-6.162920572435856,0.6180505036704241,1.8037319679811596
1761507245145649700,5.592649658203125,-2.7342864324480294,1.073867687510699,1.0439197084926068
1761507245165805600,5.6128056640625,-0.07060849070847033,1.0477630129825324,0.6157074476756155
1761507245185961700,5.632961669921875,3.1357080092340706,0.7439298498976975,0.5376137157782912
1761507245206117600,5.65311767578125,5.500352150994539,0.1822943302799016,0.6938222223609686
1761507245226273800,5.673273681640625,7.501821152254939,-0.782051856086403,0.9221309925798327
1761507245246429700,5.6934296875,8.7350734921664,-2.2325115072920916,1.290168405354023
1761507245266585600,5.713585693359375,8.99384133273065,-3.710664782717824,1.7179523577563465
1761507245286741800,5.73374169921875,8.656548236984014,-4.730689382490516,1.9766335429504513
1761507245306897700,5.753897705078125,8.573046362432837,-5.247320808255672,1.899534813439846
1761507245327054800,5.774054931640625,8.352248479300737,-5.385089110523462,1.7736838895894587
1761507245347210800,5.794210693359375,8.327166645014286,-5.0958869687289,1.0166866875216365
1761507245367367000,5.814366943359375,7.704047021386027,-4.465573634204268,-0.19755787732005117
1761507245387522800,5.834522705078125,6.6268029893100255,-4.353208068740368,-1.1588925338454543
1761507245407678700,5.8546787109375,5.300549709618092,-4.282945907251537,-2.030462456032634
1761507245427834600,5.874834716796875,2.8109605068057775,-4.469713218227029,-2.554683898535371
1761507245447990500,5.894990478515625,-2.005107065501809,-5.430401247411966,-2.0235458085119724
1761507245468146700,5.915146728515625,-6.807710760602355,-4.590525417257846,1.6897367554888127
1761507245488302600,5.935302490234375,-14.97230608600378,0.6160266696926207,7.5491639181882135
1761507245508458500,5.95545849609375,-22.968544494128224,1.9736742547534405,10.9327033634305
1761507245528614700,5.97561474609375,-24.745341401171682,9.212789788603782,6.106192723041772
1761507245548770600,5.9957705078125,-26.073908218502996,9.5727202480942,-1.082791217874363
1761507245568926500,6.015926513671875,-21.303807447600363,7.503827231380343,-3.8844969165354963
1761507245589082600,6.03608251953125,-13.6494558927536,5.838501571309566,-1.1242450718995183
1761507245609238500,6.056238525390625,-4.928310388174653,4.993951027342677,-0.07358962541110813
1761507245629394700,6.076394775390625,2.783541754004359,3.2143513378381727,1.0116760197527706
1761507245649550600,6.096550537109375,6.081105043536424,2.7785706875935197,-0.12848887113854288
1761507245669706500,6.11670654296875,8.486953302344679,2.602705878904462,-1.4872104421064256
1761507245689863700,6.13686376953125,11.509984195947647,0.9437593254115432,-1.2485446015894412
1761507245710019600,6.15701953125,12.512116580677032,-0.22069887973703442,-0.6771086957082152
1761507245730175700,6.17717578125,14.215052132695913,-2.0414552669510244,-0.6284903568811714
1761507245750331600,6.19733154296875,14.083029680603742,-5.0992608290761705,-0.04921455115452408
1761507245770487800,6.21748779296875,15.271481924802064,-7.949310068210959,-0.07336378076598048
1761507245790643700,6.237643798828125,14.39863058450222,-9.92006127512455,-1.8233821326076984
1761507245810799600,6.257799560546875,12.324003408050537,-6.426584368348121,-2.413501257779449
1761507245830955800,6.277955810546875,11.055200446808337,-6.035520519447326,0.009063596421480179
1761507245851111700,6.298111572265625,9.028302989780903,-4.746556521447003,0.2705418649882078
1761507245871267600,6.318267578125,8.625940917274356,-3.536448325757682,-0.13351122934520243
1761507245891423700,6.338423828125,5.8434594859778874,-1.407626325520873,-0.8064499458923935
1761507245911579600,6.35857958984375,0.5637795459091663,-0.9279443550337105,-0.7672241431802511
1761507245931735800,6.37873583984375,-4.130566019046307,-1.2800957780204714,-0.030571810004860162
1761507245951891700,6.3988916015625,-8.605762637120485,-0.9899646848127245,0.8513280752778053
1761507245972047600,6.419047607421875,-15.887619434458017,-0.007963014768436551,3.223018043896556
1761507245992203800,6.439203857421875,-20.569708744430542,0.3438953435558825,5.983139759346843
1761507246012360000,6.45935986328125,-22.617702765500542,2.3062622415490446,5.674004252070188
1761507246032516900,6.479516845703125,-22.566187682318684,3.6784833455592394,2.7512136018514632
1761507246052672800,6.4996728515625,-18.94277155946493,3.7488492596834897,1.0387906750410794
1761507246072828700,6.51982861328125,-14.13432030737996,3.4008842555359005,0.2550877638120204
1761507246092984800,6.53998486328125,-8.57347014080286,2.7555282501801845,-0.3816829301584512
1761507246113140700,6.560140625,-3.4378836143702265,2.3146581678420306,-1.084204153412208
1761507246133297000,6.580296875,0.7913286568671465,2.4711150962278245,-1.4972425912991165
1761507246153452800,6.600452880859375,2.9078268898427484,2.0503283092364666,-2.944919187657535
1761507246173608700,6.620608642578125,5.938114038184285,0.8785852077767252,-3.2669936714842915
1761507246193764900,6.640764892578125,8.490054775491357,2.1386574578136206,-1.6919539931468666
1761507246213920800,6.660920654296875,11.66358018194437,2.511111006529629,-0.3516815404526889
1761507246234077000,6.681076904296875,11.943354570180176,0.9463134668737649,-0.18410839396454393
1761507246254232800,6.70123291015625,10.71939963544607,-0.5753679846331476,-0.7791613953419029
1761507246274388700,6.721388671875,11.002855342543125,-1.2997215388581156,-1.610295408374816
1761507246294545000,6.741544921875,10.784258184325694,-1.3874819476366043,-1.699424913549423
1761507246314700800,6.76170068359375,9.957598101836442,-0.6232064251288771,-1.3796180823937059
1761507246334857000,6.78185693359375,9.673644382089376,0.0784958829574287,-0.4327656863376498
1761507246355014000,6.802013916015625,9.104424106431006,0.5329577066659927,-0.3330148339055478
1761507246375170000,6.822170166015625,8.229551489436625,0.6368775153458118,-0.5470077862631529
1761507246395326000,6.842325927734375,7.2369684388190505,0.7493933029353618,-1.1053532513596116
1761507246415481900,6.86248193359375,5.544369571897387,0.2605200910590589,-1.25739630882591
1761507246435638000,6.882637939453125,1.539862712624669,-0.8681992767103016,0.1829544016238302
1761507246455794000,6.9027939453125,-6.792286396977305,1.1790450950361788,0.1909123383583501
1761507246475950000,6.9229501953125,-12.337487159001826,3.2929861908748745,-1.6217697191998361
1761507246496106000,6.94310595703125,-15.681373223769663,2.849731259226799,-0.6139602386821061
1761507246516262000,6.963261962890625,-15.649752927625178,3.678776191025972,-1.424000391086191
1761507246536418000,6.98341796875,-15.54047772939205,1.3047253384947777,0.04243285512514412
1761507246556574000,7.003573974609375,-19.141836334216592,-0.07752206948921084,-3.850433611153066
1761507246576729900,7.023729736328125,-15.166259801352023,-0.6369935429409146,-2.4479019784227014
1761507246596886000,7.043885986328125,-12.440580453729629,-0.9847766146503388,-0.588231082935445
1761507246617042000,7.0640419921875,-7.15086251924932,-0.9754199535664171,0.49432000604011117
1761507246637198000,7.084197998046875,-1.7321762595504522,-1.5991631889857352,0.08223945339992642
1761507246657354000,7.10435400390625,2.150924234190583,-2.0846061341524122,-0.6391000867661089
1761507246677510000,7.124510009765625,5.528068425437808,-2.07130753050968,-0.40400194866806266
1761507246697666000,7.144666015625,7.352163674750924,-1.9601642003171145,-0.42123482301980253
1761507246717822700,7.16482275390625,9.79325568089783,-2.0294887886948882,-1.0390766523756085
1761507246737979000,7.184978759765625,10.881978553843497,-3.014253712907433,-1.4034184985674918
1761507246758134800,7.205134765625,10.822188978791237,-3.2385651571184395,-0.6714527888383716
1761507246778291000,7.225291015625,10.586507414782046,-2.9784713286474345,0.0036046003632247445
1761507246798446800,7.24544677734375,10.16866544907093,-2.206168420898169,-0.02433810324706137
1761507246818602800,7.265602783203125,9.045285688763856,-1.4015209943830966,-0.3827414993006736
1761507246838759000,7.285759033203125,7.645373883143067,-0.35720041347201914,-0.56746765983738
1761507246858914800,7.305914794921875,7.308126380103826,-0.006782974671013653,-0.6899923618745059
1761507246879071000,7.326071044921875,7.045606493529677,-0.3639629298768937,-0.8856703437320887
1761507246899227000,7.346226806640625,6.891162366271018,-0.3250081991910934,-0.6824393892116845
1761507246919382800,7.3663828125,6.32649200900197,0.43770979167632756,-0.6388393900033086
1761507246939539000,7.3865390625,4.797070026370883,0.4992915839076042,-0.2295646154988557
1761507246959694800,7.40669482421875,0.36444706013202666,-2.6561574831068513,2.064218010640144
1761507246979850800,7.426850830078125,-6.936212052831054,-4.390540605051815,0.9047039108302444
1761507247000007000,7.4470068359375,-12.826103035116194,-3.4280163003504276,-0.39325200659483667
1761507247020163000,7.4671630859375,-18.37258448460102,1.092174620834738,-3.1163550739884376
1761507247040319000,7.487319091796875,-24.29834114551544,2.31652396171391,-4.440042887106538
1761507247060476200,7.50747607421875,-24.929858595132828,4.100599627588689,-2.1948436015464363
1761507247080632000,7.527632080078125,-21.161562876701353,3.925734935852885,0.9627490533679723
1761507247100788200,7.547788330078125,-15.495203001904487,2.3255326130777596,2.912273640118539
1761507247120944000,7.567944091796875,-8.171916462069749,0.5452488868318498,2.818106579168141
1761507247141100000,7.58810009765625,-1.1482517512351273,-1.6392003080807624,1.1578399560526014
1761507247161256200,7.608256103515625,3.221348649379611,-2.263404950466752,-0.6175142048366368
1761507247181412000,7.628412109375,6.263635447594523,-1.833563188751787,-1.9028402847260235
1761507247201568000,7.648568115234375,9.381617830523847,-1.444346575152874,-1.2825969471864402
1761507247221724200,7.66872412109375,12.684826432466506,-1.7268704082272945,-0.5903600212555379
1761507247241880000,7.688880126953125,13.850284754568337,-2.1820364346824586,-0.39771943433247503
1761507247262036000,7.709035888671875,13.604382240796088,-2.197102047997713,0.03942483241558075
1761507247282192000,7.72919189453125,13.110409806084633,-1.3449307998940347,0.1633033602144569
1761507247302347800,7.74934765625,11.411015287673473,0.5704397344507277,0.5236401354834437
1761507247322504000,7.76950390625,10.092547839552163,1.2549046381406486,0.45482678456343706
1761507247342659800,7.789659912109375,9.021920595267414,1.4071703984469175,0.18314203315041958
1761507247362816000,7.80981591796875,8.73542595886588,1.1675114552393555,-0.12802739110663533
1761507247382973000,7.829972900390625,8.869078057986497,1.0233606123276053,0.19851684027900918
1761507247403129000,7.850129150390625,9.015225481542945,1.2524741961233317,1.4372691841125487
1761507247423285000,7.870284912109375,8.069792304635047,0.8381085282206535,2.017006908262521
1761507247443441000,7.89044091796875,6.205242879858613,-1.1662370513893663,1.6108476354300976
1761507247463597000,7.91059716796875,1.0062380664825439,-3.493700194138288,2.1469545999072492
1761507247483753000,7.9307529296875,-7.9585560354620215,-1.4037829479657113,0.8379675853800028
1761507247503909000,7.9509091796875,-15.814408067774771,-1.0738267709784208,-0.1590563337618485
1761507247524065000,7.97106494140625,-22.844899409759044,2.970397035524249,-2.629940215049684
1761507247544221000,7.991220947265625,-26.936615765929222,4.0863276488691564,-2.922457180480659
1761507247564375000,8.011375,-27.06136442762613,4.793439560914039,-3.2598350319012996
1761507247584531000,8.031531005859375,-23.42835279343128,3.3364819259911775,-3.8677754988372324
1761507247604686800,8.051686767578126,-16.89831974104643,1.0975891932293773,-2.1513680324353275
1761507247624843000,8.071843017578125,-10.412202987277507,-0.8538217917896807,-0.7166641687661409
1761507247644999000,8.0919990234375,-4.494407514500618,-2.2930552617125213,-1.1263858102552593
1761507247665154800,8.11215478515625,-0.8092617884427309,-2.1340916112028063,-0.7035895100723951
1761507247685311000,8.13231103515625,2.30593008698523,-0.9625596682757138,0.5903806621847674
1761507247705467000,8.152466796875,5.3089188940346235,-0.2009638863712549,0.7261271397687494
1761507247725622800,8.172622802734375,7.184389525797963,-0.13070318618714807,0.14709138987567275
1761507247745779000,8.192779052734375,9.067896749022603,0.31681130260154605,-0.014013272984419017
1761507247765934800,8.212934814453124,11.191537839490175,0.5584652190186083,0.11002320358883588
1761507247786091000,8.233091064453125,12.196584650361537,0.5060270296424627,0.5480929876839742
1761507247806247000,8.253246826171875,12.216839502882957,0.24343276265785097,0.4949015322551131
1761507247826404000,8.273404052734374,12.36909342662096,-0.261421569943428,0.3227295136693865
1761507247846560000,8.29356005859375,11.877399458235502,0.48808776058703657,-0.8252513847351074
1761507247866716000,8.3137158203125,10.669631103670596,1.0028951857954262,-1.0262312723930924
1761507247886872000,8.3338720703125,9.897703312844037,1.8513231557175516,-0.7950741270057856
1761507247907028000,8.354028076171875,8.79037160101831,2.3028134162694216,-0.6151034173678607
1761507247927184100,8.37418408203125,7.617389313152432,2.2914012108951805,-0.5839520904419944
1761507247947341000,8.394341064453124,6.013192367783189,1.8666347066178917,-0.07392891296860761
1761507247967497200,8.414497314453126,3.9055326903015373,-0.5934925471276045,1.6823162500992417
1761507247987653000,8.434653076171875,-0.8593214121192693,-4.556048854899406,2.4641329822555185
1761507248007808500,8.45480859375,-7.342104637551307,-3.6041245624065397,0.06913841815590858
1761507248027964700,8.474964599609375,-15.07124226105213,-4.230329292568564,-1.4632691561572253
1761507248048120600,8.49512060546875,-21.533613397574424,-2.065234494206309,-2.972185380245745
1761507248068276500,8.5152763671875,-26.45844412693977,-0.5055012522026896,-2.6138746309116483
1761507248088432600,8.5354326171875,-24.222612827575205,2.0478148651108143,-2.7711279703721403
1761507248108588500,8.555588623046875,-17.891197975218294,0.4591434056535363,-1.0639682978522031
1761507248128744700,8.57574462890625,-10.045422515761851,-3.035237464225292,1.2242486569836735
1761507248148900600,8.595900634765625,-3.80686890245378,-5.969497018441557,2.4256666196085512
1761507248169056500,8.616056396484375,1.025949313646555,-5.064351428258418,1.3395922153450548
1761507248189212700,8.636212646484376,3.3037668203473087,-2.4795544232711193,0.8175998470686375
1761507248209368600,8.65636865234375,4.144959286057949,-0.7617175085879861,-0.28502500224038957
1761507248229524700,8.676524658203125,6.000193185478449,2.4827020736470815,-1.2173185654595493
1761507248249680600,8.6966806640625,8.729729793050884,4.063618388932943,-1.2986644310206175
1761507248269836500,8.71683642578125,9.821603238981961,2.8847432436361906,-1.25289227540493
1761507248289993500,8.736993408203125,12.29870763875246,2.201772524026781,-0.8774163101278245
1761507248310149400,8.7571494140625,12.802656693077086,0.8181094040259719,-0.8293305438075214
1761507248330305500,8.777305419921875,11.93333586499095,1.0548851930126548,-0.9372025972444563
1761507248350461400,8.79746142578125,10.859293259304762,1.0495146058902143,-0.7575234909642488
1761507248370617600,8.81761767578125,9.660626495084166,1.1736375369042158,0.11703129225261509
1761507248390773500,8.8377734375,8.983082622829079,1.7488079531386493,0.1699032882024534
1761507248410929400,8.857929443359374,7.839993368923664,1.7862383968666196,0.08122671442711725
1761507248431085600,8.87808544921875,6.918999636745452,1.4271090246260165,0.09584501323313452
1761507248451241500,8.898241455078125,6.568127512979507,0.8513792209431529,-0.29615850027110424
1761507248471397400,8.9183974609375,5.534877520930767,-0.9799570855394005,0.24417185405474154
1761507248491553500,8.938553466796876,1.7527572752863168,-3.2861002307534215,1.7114071738965808
1761507248511709400,8.95870947265625,-5.352798952293396,-2.549660517415404,0.7288024233926087
1761507248531865600,8.978865478515624,-13.921144005167484,-2.508379535739124,-2.1935526849530635
1761507248552021500,8.999021484375,-20.857546027612685,-3.9768180573582645,-4.367666802203655
1761507248572177400,9.019177490234375,-23.508635705935955,-3.392740404307842,-5.118828868377208
1761507248592333600,9.03933349609375,-24.322521647047996,0.7263768767461181,-5.022811211124062
1761507248612489500,9.059489501953125,-19.83101803729534,1.5597425943538545,-3.046021600829065
1761507248632645600,9.079645751953125,-11.964673252540827,-0.26579291689544915,-0.507587410826981
1761507248652801500,9.099801513671874,-5.236186250779032,-1.2248647430554032,1.4124188204944133
1761507248672958700,9.119958740234376,0.182194303971529,-1.7656684870466588,1.768974104463309
1761507248693114600,9.140114501953125,4.405336315384507,-1.441343593944609,1.1115236105576156
1761507248713270500,9.1602705078125,5.61982199550569,-0.286186154974252,-0.2607759655162692
1761507248733426700,9.1804267578125,7.614343369585275,-0.35400749918222424,-0.6012664690647274
1761507248753582600,9.20058251953125,10.192476532769202,-0.34593218314573165,-0.8005543850477784
1761507248773738500,9.220738525390624,11.303234127390384,-1.1913714926458894,-0.658280441923812
1761507248793894700,9.240894775390625,11.43614271466732,-1.7191843837693332,-1.011137602027133
1761507248814050600,9.261050537109375,11.84090191144347,-1.4342942599549888,-1.4004004659205673
1761507248834206500,9.28120654296875,10.134400775897502,-0.5691743906900286,-1.1743554028499872
1761507248854362400,9.3013623046875,8.432652972358465,0.9089183867201208,-1.0459462458841502
1761507248874518300,9.321518310546875,7.387377611473203,2.1067299954161047,-0.8412799247983842
1761507248894674400,9.34167431640625,6.561448765867948,3.0342654043227433,-0.7508486893754452
1761507248914830300,9.361830322265625,5.633992559677362,3.264234143643081,-0.6564918780066072
1761507248934986500,9.381986572265625,4.805075053650141,2.794611137290299,0.07735712471846491
1761507248955142400,9.402142333984376,2.4182389538258313,1.3497139425173401,0.6300456965643912
1761507248975298300,9.42229833984375,-1.2939566917210816,-1.9204434536948798,0.9148285606119781
1761507248995454500,9.442454345703124,-6.246582021462917,-2.1226535407349467,0.34925972013324497
1761507249015611000,9.46261083984375,-11.424027913981675,-2.7800232244893905,0.6719635879047214
1761507249035766800,9.482766845703125,-15.377447560095787,-4.022859677565098,1.5115053637988864
1761507249055924000,9.502924072265625,-15.920833137273787,-3.743168291437626,1.1242036439105867
1761507249076079900,9.523079833984376,-15.738567521631717,-1.778958176730573,0.7525375923104584
1761507249096236000,9.543236083984375,-12.822772429388761,-0.9472691601634025,0.5104916809011251
1761507249116392000,9.563391845703125,-7.856478639778494,-2.1549419453993437,1.173645208754018
1761507249136547800,9.5835478515625,-3.871979380267858,-2.9465388978138565,1.0713805468700826
1761507249156704000,9.6037041015625,-1.3502034795999527,-2.344073647418618,0.7381786659598351
1761507249176860000,9.62385986328125,1.2091384738743305,-1.0479951412379742,0.8728399421229958
1761507249197016000,9.64401611328125,3.3848505278408525,0.10050620084404945,0.902777545877546
1761507249217172000,9.664171875,5.277031471386551,1.0056412696331738,0.6450408019267022
1761507249237328000,9.684327880859374,7.639576595041155,1.6578958023309707,-0.02112630159370601
1761507249257484000,9.704484130859376,9.177968066069484,2.2843495388180015,-0.42867783250212665
1761507249277640000,9.724639892578125,10.30755252623558,3.1168548402041196,-0.5026137140676379
1761507249297795800,9.7447958984375,10.813609366494417,3.1123142741650343,-0.5393726882748305
1761507249317952000,9.764951904296876,10.878605862540006,2.7960648432299493,-0.5238153459198772
1761507249338108000,9.78510791015625,10.497737244439124,2.8997330152362584,-0.5405895897839218
1761507249358264000,9.80526416015625,10.061934090101719,2.759058470132947,-0.5278505197200923
1761507249378420000,9.825419921875,9.078082042950392,2.553273447215557,-0.566513208656758
1761507249398575900,9.845575927734375,7.768001314902305,2.0761834659829734,-0.8313078352298587
1761507249418732000,9.86573193359375,6.33009207932055,1.0012710917249321,-0.2049752409044653
1761507249438888700,9.885888671875,3.4589375083148477,-1.3043462760493159,0.6666182082887738
1761507249459044900,9.906044921875,-3.2698563674390315,-2.3885344281747938,-0.6091879827789962
1761507249479200800,9.92620068359375,-11.483348702478407,-2.0514400698706505,-1.60734605704993
1761507249499357000,9.94635693359375,-18.456457530552147,-4.424825736491382,-0.42197475466690954
1761507249519512800,9.966512939453125,-21.449196746265887,-3.9959029893174765,-0.9886512641265988
1761507249539668700,9.986668701171874,-22.323798145103453,-2.0641800167173145,0.8115044528029859
1761507249559825000,10.006824951171875,-19.392431389719246,0.39758828223347664,0.5946862138915807
1761507249579980800,10.026980712890625,-13.066004847168921,-0.9276216258853673,1.3960627289772032
1761507249600137000,10.047136962890624,-6.985028982970118,-2.405309329625964,1.6229022303611038
1761507249620292900,10.06729296875,-2.4491116464734075,-2.8114447831913827,0.7257352178417146
1761507249640448800,10.08744873046875,1.1520821231782437,-2.1332931543014944,-0.2940964897073805
1761507249660605000,10.10760498046875,3.7963755654901266,-0.43457799645662304,-0.10521437853500247
1761507249680760800,10.1277607421875,5.366718756574392,0.7045045060254633,-0.20219401268810033
1761507249700916700,10.147916748046875,7.226531215956807,1.239338235696405,-0.610353081035614
1761507249721073000,10.168072998046876,8.912205836573243,1.2469386276975274,-1.1691074191939086
1761507249741228800,10.188228759765625,10.444673178249596,0.7809259207963943,-1.6653008178904651
1761507249761385000,10.208385009765625,11.241868681323528,0.6208861654877662,-1.7058569924235343
1761507249781540900,10.228540771484376,10.504788916516304,1.1060410874933004,-1.6866589554786682
1761507249801696800,10.24869677734375,9.95939492212534,1.5772276899009943,-1.5980375459566711
1761507249821853000,10.26885302734375,9.665434772148728,1.738804737779498,-0.8770503994248807
1761507249842009900,10.289009765625,8.829543335455655,2.1930606636524197,0.3850396201752126
1761507249862166000,10.309166015625,7.602306894832849,2.7474811373248693,0.3734686440426856
1761507249882322000,10.329322021484375,5.685495952421427,2.977948766078055,-0.2716002879999578
1761507249902478000,10.34947802734375,4.08111897431016,1.8193445476546883,-0.2200505718961358
1761507249922634000,10.369634033203125,1.3803010962218045,0.05835545059591531,0.44326106912791724
1761507249942790000,10.389789794921874,-3.4007547839373347,-0.879011031973362,-0.08056786692589521
1761507249962946000,10.409946044921876,-8.691623642018437,-2.157276233565807,-1.0531748088981956
1761507249983102000,10.43010205078125,-13.245875092107056,-4.202727292154729,-0.7333226772960275
1761507250003258000,10.450258056640624,-14.67970378037691,-5.197572150224447,-0.13294212422035634
1761507250023417600,10.47041748046875,-16.308165398430823,-3.8669524920165537,0.8005423292838036
1761507250043573500,10.490573486328126,-15.866011998283863,-2.6279151389628645,-0.10510521907210349
1761507250063729400,10.5107294921875,-12.388441101169585,-2.961400074598193,0.3925466348044574
1761507250083885300,10.53088525390625,-6.69201458941102,-3.2574238791063426,0.9666954529061913
1761507250104041500,10.55104150390625,-1.5075947662264109,-3.080138974486291,0.49277664905562996
1761507250124197400,10.571197265625,2.3989058923244473,-2.208058618558943,0.32031872620061036
1761507250144353500,10.591353515625,5.208209279572963,-1.5601643268972634,0.35624409912787375
1761507250164509400,10.611509521484376,7.129601120033859,-0.9083201285660266,-0.1001389567005448
1761507250184665300,10.631665283203125,8.390258768743276,-0.03717003922611475,-0.3133735101725906
1761507250204821500,10.651821533203124,9.347137468773125,0.8311635313883423,-0.30537219095407053
1761507250224977400,10.671977294921875,9.419316569799184,1.1535983729600905,-0.008954327360726893
1761507250245133300,10.69213330078125,9.075537619164585,1.5911191448703408,0.42923122860118745
1761507250265290500,10.71229052734375,8.412897886052727,2.065332109361887,0.6489159628596156
1761507250285446400,10.7324462890625,7.74895057747364,2.5028347610935566,0.60970429827068
1761507250305602600,10.7526025390625,6.694824386134743,2.8012901766628024,0.4263739029413089
1761507250325758500,10.772758544921874,4.926763158732652,2.370347614099085,0.17910276769697664
1761507250345914600,10.79291455078125,2.2418559664815665,1.5401137647762895,0.34684213759750127
1761507250366070500,10.813070556640625,-0.8054793472945689,0.6377458226129412,0.45139253579843786
1761507250386226400,10.833226318359374,-3.1697178308635947,-0.5025301274374127,0.3062643905534409
1761507250406382600,10.853382568359375,-3.80996511490345,-2.6565081962406634,0.5128146074233576
1761507250426538500,10.87353857421875,-4.550758931797742,-2.8728298107415435,1.5646917411938308
1761507250446694700,10.893694580078124,-6.013225101009011,-1.7319409894898532,0.9136025990135968
1761507250466850600,10.9138505859375,-7.414342775288223,0.06570522883683443,-0.9377095238532871
1761507250487006500,10.93400634765625,-6.232174141404032,0.7103942947164178,0.3904569690488279
1761507250507162600,10.95416259765625,-4.374617936515808,-0.7269773268572985,0.6174355866424739
1761507250527318500,10.974318603515625,-1.7811410737276077,-1.8389317300476133,0.677856153074652
