time,seconds_elapsed,z,y,x
1761507239643049500,0.090049560546875,-0.37857282161712646,-1.5791620016098022,0.7480029463768005
1761507239663205600,0.11020556640625,-0.1824944168329239,-1.3422220945358276,0.07493427395820618
1761507239683361500,0.130361572265625,-0.00029795756563544273,-1.0836732387542725,-0.3134419023990631
1761507239703517400,0.150517333984375,-0.09147502481937408,-0.30551135540008545,-0.22997400164604187
1761507239723673600,0.170673583984375,-0.5673222541809082,0.47534650564193726,0.1942652314901352
1761507239743829500,0.19082958984375,-1.0320414304733276,0.806771993637085,0.028495248407125473
1761507239763985700,0.210985595703125,-1.5233969688415527,-1.43839430809021,-1.2580033540725708
1761507239784141600,0.2311416015625,-1.6200916767120361,-0.6093723773956299,-1.4447382688522339
1761507239804297500,0.25129736328125,-1.4579185247421265,1.668235421180725,-1.2164300680160522
1761507239824453600,0.27145361328125,-1.1404247283935547,1.1885610818862915,-1.5536866188049316
1761507239844609500,0.291609619140625,-0.730443000793457,-0.24177862703800201,-1.685434341430664
1761507239864765700,0.311765625,-0.3312125504016876,-0.11200506240129471,-1.5790119171142578
1761507239884921600,0.331921630859375,0.26340988278388977,0.13007158041000366,-1.8832347393035889
1761507239905077500,0.352077392578125,0.4903210997581482,-0.5376538038253784,-2.4929277896881104
1761507239925233700,0.372233642578125,0.6969868540763855,-0.9809032082557678,-2.624562978744507
1761507239945389600,0.3923896484375,1.5478609800338745,-0.8936640620231628,-2.332329750061035
1761507239965546500,0.41254638671875,1.823487401008606,-0.2633212208747864,-1.4008461236953735
1761507239985702400,0.432702392578125,0.9522982239723206,0.9376106858253479,-0.27664560079574585
1761507240005862400,0.4528623046875,0.8585962653160095,0.5223729610443115,-0.10994978249073029
1761507240026018300,0.473018310546875,0.9669337272644043,-0.3364098072052002,-0.584960401058197
1761507240046174200,0.49317431640625,0.49377381801605225,-0.8149319887161255,-0.8799161911010742
1761507240066330400,0.513330322265625,-0.3772873878479004,-0.7170976996421814,-0.7584153413772583
1761507240086486300,0.533486328125,-0.9314756393432617,-0.6627963781356812,-1.0141030550003052
1761507240106642400,0.553642333984375,-1.0878368616104126,-0.6847031712532043,-1.6458890438079834
1761507240126798300,0.57379833984375,-1.393178939819336,-0.8112265467643738,-2.028963565826416
1761507240146954200,0.593954345703125,-1.1194003820419312,-0.43776723742485046,-1.6153476238250732
1761507240167110400,0.6141103515625,-0.5817919373512268,0.7505794167518616,-0.5678813457489014
1761507240187266300,0.634266357421875,-0.05847017467021942,1.2251378297805786,0.15064671635627747
1761507240207422500,0.65442236328125,0.26844528317451477,1.190248727798462,0.3069705367088318
1761507240227578400,0.674578369140625,-0.0802985280752182,1.2021733522415161,0.08446625620126724
1761507240247734300,0.694734375,-0.22775506973266602,1.2242592573165894,0.17960113286972046
1761507240267890400,0.714890380859375,-0.03833639621734619,1.3839164972305298,0.5627161264419556
1761507240288046300,0.73504638671875,0.04322582855820656,1.4395127296447754,0.7343144416809082
1761507240308202200,0.7552021484375,-0.093232661485672,1.3855361938476562,0.561271071434021
1761507240328358400,0.7753583984375,-0.3078000545501709,1.0671225786209106,0.19479040801525116
1761507240348514300,0.795514404296875,-0.5874881744384766,0.6428312063217163,0.11043611913919449
1761507240368670500,0.81567041015625,-0.6997990012168884,0.3455989956855774,0.6641621589660645
1761507240388826400,0.835826416015625,-0.5804204940795898,-0.03551268205046654,1.385238766670227
1761507240408982300,0.855982177734375,-0.6594159603118896,-0.08046267181634903,1.9739770889282227
1761507240429138400,0.876138427734375,-0.9656147360801697,-0.014257321134209633,1.976863145828247
1761507240449294300,0.89629443359375,-1.4269161224365234,-0.22051812708377838,1.6625441312789917
1761507240469450500,0.916450439453125,-1.4528138637542725,-0.8684294819831848,1.8920202255249023
1761507240489607400,0.936607421875,-1.0891183614730835,-1.4794409275054932,2.7824089527130127
1761507240509763600,0.956763671875,-1.5289894342422485,-2.5438613891601562,2.3609845638275146
1761507240529919500,0.97691943359375,-1.7464507818222046,-2.9931015968322754,0.6914674639701843
1761507240550075400,0.997075439453125,-0.9278905987739563,-1.095929503440857,0.2950822412967682
1761507240570231600,1.0172314453125,0.32351189851760864,0.853993833065033,-0.006237070541828871
1761507240590387500,1.037387451171875,0.9734277129173279,1.1939669847488403,-0.7218971848487854
1761507240610543600,1.057543701171875,0.5901182293891907,0.7900580763816833,-1.3593782186508179
1761507240630699500,1.077699462890625,-0.022356387227773666,0.3279981017112732,-1.6437424421310425
1761507240650855400,1.09785546875,-0.43838822841644287,0.16858914494514465,-1.9705965518951416
1761507240671011300,1.11801123046875,-1.0304737091064453,0.25075995922088623,-2.7008047103881836
1761507240691167200,1.138167236328125,-1.7452497482299805,0.4490719437599182,-3.518923044204712
1761507240711323400,1.158323486328125,-2.0029006004333496,0.8184086680412292,-3.8638792037963867
1761507240731479300,1.178479248046875,-1.435410499572754,1.1790170669555664,-3.5399651527404785
1761507240751635200,1.19863525390625,-0.8238056898117065,1.4707180261611938,-2.752755641937256
1761507240771791400,1.218791259765625,-0.5189770460128784,1.2720860242843628,-2.0334877967834473
1761507240791947300,1.238947265625,-0.3091762065887451,1.0352545976638794,-1.46986722946167
1761507240812103200,1.259103271484375,-0.07226935029029846,0.9569366574287415,-1.101386547088623
1761507240832259300,1.27925927734375,0.19981490075588226,0.8792749643325806,-0.7128520607948303
1761507240852415200,1.299415283203125,0.4110240936279297,0.8264300227165222,-0.29736003279685974
1761507240872571400,1.3195712890625,0.5035033226013184,0.6202153563499451,0.07662642747163773
1761507240892727300,1.339727294921875,0.6685842871665955,0.2299312800168991,0.8441029787063599
1761507240912883200,1.35988330078125,1.0266993045806885,-0.259328156709671,1.746944546699524
1761507240933039400,1.380039306640625,1.145796298980713,-1.01058828830719,2.205777883529663
1761507240953195300,1.4001953125,1.11431884765625,-1.8361445665359497,3.3546853065490723
1761507240973351400,1.420351318359375,1.3469372987747192,-1.7462563514709473,4.647304058074951
1761507240993508400,1.44050830078125,1.6189777851104736,-0.8202964067459106,4.8478007316589355
1761507241013661200,1.4606611328125,1.8673709630966187,0.41307586431503296,4.406498432159424
1761507241033817000,1.480817138671875,1.8269338607788086,0.7031043171882629,3.022468328475952
1761507241053973200,1.50097314453125,1.1708184480667114,0.6136128306388855,1.2736105918884277
1761507241074129200,1.521129150390625,0.7272997498512268,1.3563839197158813,0.09596269577741623
1761507241094285300,1.541285400390625,0.6134479641914368,1.7767325639724731,-1.0302913188934326
1761507241114441200,1.561441162109375,0.2840285897254944,1.7704639434814453,-1.723166823387146
1761507241134597000,1.58159716796875,-0.6026559472084045,1.1506121158599854,-2.0209121704101562
1761507241154753300,1.601753173828125,-1.5550117492675781,-0.03649210184812546,-2.0083682537078857
1761507241174909200,1.6219091796875,-1.833027958869934,-0.6199547052383423,-1.4918220043182373
1761507241195065000,1.642065185546875,-1.5679610967636108,-0.3964904844760895,-1.0250871181488037
1761507241215221200,1.66222119140625,-1.3137257099151611,0.21634183824062347,-1.1494919061660767
1761507241235377200,1.682377197265625,-1.2453103065490723,0.6623857021331787,-1.5275537967681885
1761507241255533300,1.702533203125,-1.1498697996139526,0.8575472831726074,-1.5807957649230957
1761507241275689200,1.722689208984375,-1.047383189201355,0.8487725853919983,-1.3191837072372437
1761507241295845000,1.74284521484375,-0.860614001750946,0.7082141041755676,-0.9423171877861023
1761507241316001300,1.763001220703125,-0.5717073082923889,0.5763679146766663,-0.41748619079589844
1761507241336157200,1.7831572265625,-0.5506224036216736,0.3805272877216339,-0.06936377286911011
1761507241356313300,1.803313232421875,-0.9244387745857239,0.07710468769073486,-0.21278119087219238
1761507241376469200,1.82346923828125,-1.3367611169815063,-0.17125412821769714,-0.5564345121383667
1761507241396625200,1.843625244140625,-0.9987518191337585,-0.33738836646080017,-0.16481873393058777
1761507241416781300,1.86378125,0.10283485800027847,-0.6080917119979858,0.965246856212616
1761507241436937200,1.883937255859375,0.9429606795310974,-0.8740728497505188,1.923792839050293
1761507241457093000,1.904093017578125,1.0921313762664795,-0.8694559335708618,1.9713577032089233
1761507241477249000,1.9242490234375,1.0175532102584839,-1.0836575031280518,1.3764252662658691
1761507241497406200,1.94440625,1.03580904006958,-1.5772943496704102,0.5141665935516357
1761507241517562000,1.96456201171875,1.050665259361267,-1.3409110307693481,0.8336119651794434
1761507241537718000,1.984718017578125,1.574656367301941,-0.6965144872665405,1.5127283334732056
1761507241557874200,2.004874267578125,2.029677629470825,-0.17040613293647766,1.3296189308166504
1761507241578030000,2.025030029296875,1.8737423419952393,0.7449883818626404,0.9986259937286377
1761507241598186000,2.04518603515625,1.3206229209899902,0.6323990821838379,0.7440356016159058
1761507241618342100,2.065342041015625,0.6500456929206848,-0.3212277293205261,0.8941299319267273
1761507241638498000,2.085498046875,-0.34055307507514954,-2.169908285140991,1.2280915975570679
1761507241658654200,2.105654296875,-1.854705810546875,-4.145645618438721,1.8605552911758423
1761507241678810000,2.12581005859375,-3.0192625522613525,-4.988744735717773,2.216461420059204
1761507241698966000,2.145966064453125,-2.8364031314849854,-2.978736639022827,0.8519379496574402
1761507241719122200,2.1661220703125,-1.8455603122711182,-0.19615322351455688,-1.6591225862503052
1761507241739278000,2.186278076171875,-0.9024493098258972,1.5976285934448242,-3.5012288093566895
1761507241759434200,2.206434326171875,-0.03596918657422066,2.187241554260254,-3.6234281063079834
1761507241779590100,2.226590087890625,0.32327455282211304,1.7733641862869263,-2.728792905807495
1761507241799746000,2.24674609375,-0.055965252220630646,1.2140718698501587,-1.7425569295883179
1761507241819902200,2.266902099609375,-0.22560857236385345,0.6763190627098083,-1.0370761156082153
1761507241840058000,2.28705810546875,-0.14755450189113617,0.15976764261722565,-0.605343759059906
1761507241860214300,2.30721435546875,0.1547580063343048,-0.3614503741264343,-0.03743340075016022
1761507241880370200,2.3273701171875,0.384867787361145,-0.9706721901893616,0.5058602094650269
1761507241900526000,2.347526123046875,0.06554200500249863,-1.850646734237671,0.7592619061470032
1761507241920682200,2.36768212890625,0.05257350578904152,-2.4208946228027344,0.9228245615959167
1761507241940838100,2.387838134765625,1.028844952583313,-1.7132104635238647,1.136372685432434
1761507241960995000,2.4079951171875,2.495879650115967,-0.12217463552951813,1.2056646347045898
1761507241981151000,2.42815087890625,3.0576155185699463,0.7945501804351807,0.49171891808509827
1761507242001309200,2.44830908203125,2.6088850498199463,0.742775022983551,-0.08254043012857437
1761507242021465300,2.46846533203125,2.3612992763519287,0.13305000960826874,0.5160177946090698
1761507242041621200,2.488621337890625,2.1284396648406982,-0.18834248185157776,1.3178461790084839
1761507242061777400,2.50877734375,1.3085459470748901,-0.7268277406692505,1.2041065692901611
1761507242081933300,2.528933349609375,0.048334017395973206,-0.3214532136917114,0.6830934882164001
1761507242102089200,2.549089111328125,-0.12572571635246277,0.8515453338623047,0.70521080493927
1761507242122245400,2.569245361328125,-0.10320621728897095,1.3153502941131592,0.514288067817688
1761507242142401300,2.5894013671875,-0.9037917852401733,0.6224523782730103,0.3741321563720703
1761507242162557400,2.609557373046875,-2.101459264755249,-0.8329498171806335,0.5877830386161804
1761507242182713300,2.62971337890625,-2.5965194702148438,-1.5716456174850464,0.5303614139556885
1761507242202869200,2.649869140625,-2.3476665019989014,-0.8096975684165955,0.1238492950797081
1761507242223025400,2.670025390625,-1.7827948331832886,0.34721556305885315,-0.48786571621894836
1761507242243181300,2.690181396484375,-1.435208797454834,1.103066086769104,-0.8786800503730774
1761507242263337500,2.71033740234375,-1.1354267597198486,1.2435656785964966,-0.9629858732223511
1761507242283493400,2.730493408203125,-0.7646358609199524,1.0852701663970947,-0.7823053002357483
1761507242303649300,2.750649169921875,-0.47446686029434204,0.8212342858314514,-0.5518710613250732
1761507242323805400,2.770805419921875,-0.48471999168395996,0.6483141183853149,-0.5823779702186584
1761507242343961300,2.79096142578125,-0.7751957774162292,0.6554458141326904,-0.9098407626152039
1761507242364117200,2.8111171875,-0.9539591073989868,0.5744897127151489,-1.2339346408843994
1761507242384274200,2.831274169921875,-0.731026291847229,0.43082043528556824,-1.4439624547958374
1761507242404430000,2.85143017578125,-0.40411075949668884,0.4400590658187866,-1.4576833248138428
1761507242424586200,2.871586181640625,-0.14735911786556244,0.5382645726203918,-1.239931344985962
1761507242444742100,2.8917421875,0.08117234706878662,0.6640474796295166,-0.7030807137489319
1761507242464898300,2.911898193359375,0.44861263036727905,0.7911939024925232,-0.3637574315071106
1761507242485054200,2.93205419921875,0.9499580264091492,0.7471439242362976,-0.11229055374860764
1761507242505210000,2.952210205078125,1.2650891542434692,0.2549073100090027,0.41428881883621216
1761507242525366300,2.9723662109375,0.8266164064407349,-0.34607139229774475,0.9762352705001831
1761507242545522200,2.992522216796875,0.40717658400535583,-0.8298738598823547,1.0992604494094849
1761507242565678300,3.01267822265625,0.4670148491859436,-1.5087103843688965,1.1932227611541748
1761507242585834200,3.032834228515625,0.7540287971496582,-1.56416654586792,1.2076168060302734
1761507242605990100,3.052990234375,1.3575589656829834,0.1434243619441986,1.1072611808776855
1761507242626146300,3.073146240234375,1.6841753721237183,1.4053133726119995,0.06503009051084518
1761507242646302200,3.09330224609375,1.3175084590911865,1.7498443126678467,-0.9385875463485718
1761507242666458400,3.113458251953125,0.8151397109031677,1.2536307573318481,-1.121697187423706
1761507242686614300,3.1336142578125,0.48027098178863525,0.5518417954444885,-1.1544482707977295
1761507242706770200,3.153770263671875,-0.2107953131198883,0.4976605474948883,-1.479705572128296
1761507242726926300,3.17392626953125,-0.9147688746452332,1.0931382179260254,-2.0028483867645264
1761507242747082200,3.194082275390625,-1.0330150127410889,1.8080445528030396,-2.329831600189209
1761507242767238400,3.21423828125,-0.36832234263420105,2.164088726043701,-2.1969377994537354
1761507242787395300,3.234395263671875,0.4418860673904419,1.820206880569458,-1.669988989830017
1761507242807551200,3.25455126953125,0.3982600271701813,1.2397083044052124,-1.0172039270401
1761507242827707400,3.274707275390625,-0.25866439938545227,0.9647481441497803,-0.41728678345680237
1761507242847863300,3.29486328125,-0.711025595664978,0.5962426066398621,-0.25050053000450134
1761507242868019500,3.31501953125,-0.654291033744812,0.29121899604797363,-0.17803654074668884
1761507242888175400,3.33517529296875,-0.3927379250526428,-0.06858474761247635,0.14111196994781494
1761507242908331300,3.355331298828125,-0.13105501234531403,-0.5065472722053528,0.6757280826568604
1761507242928487400,3.3754873046875,0.01959337666630745,-0.8471816182136536,0.7917192578315735
1761507242948643300,3.395643310546875,0.25189220905303955,-0.8411576151847839,0.6906015276908875
1761507242968799200,3.41579931640625,0.5513323545455933,-0.5015884041786194,0.9431703686714172
1761507242988955100,3.435955078125,1.1523934602737427,-0.35761237144470215,1.6651153564453125
1761507243009108200,3.456108154296875,1.795167326927185,-0.701898455619812,2.0394492149353027
1761507243029264100,3.47626416015625,1.497644066810608,-1.3621326684951782,1.7267570495605469
1761507243049420300,3.496420166015625,0.7104813456535339,-1.9281545877456665,1.5320103168487549
1761507243069576200,3.516576171875,0.007110064849257469,-2.0835349559783936,0.9412215948104858
1761507243089732000,3.536732177734375,0.047899626195430756,-1.349878191947937,-0.24818424880504608
1761507243109888300,3.55688818359375,0.9487181305885315,0.5581688284873962,-0.605096697807312
1761507243130044200,3.577044189453125,1.7700568437576294,1.7943966388702393,-0.4353107213973999
1761507243150200300,3.597200439453125,1.413250207901001,1.5050959587097168,-0.5634588003158569
1761507243170357200,3.617357177734375,0.6600801348686218,0.4939195513725281,-0.7355468273162842
1761507243190513400,3.637513427734375,0.4105790853500366,-0.1263386309146881,-0.9872780442237854
1761507243210669300,3.65766943359375,0.3840310871601105,0.11716243624687195,-1.348853588104248
1761507243230825200,3.6778251953125,0.23803545534610748,0.6845083832740784,-1.7046452760696411
1761507243250981400,3.6979814453125,0.038366977125406265,1.2560240030288696,-1.7036769390106201
1761507243271137300,3.71813720703125,0.20030835270881653,1.5310215950012207,-1.3040937185287476
1761507243291293200,3.738293212890625,0.6263161897659302,1.4945422410964966,-0.7722353339195251
1761507243311449300,3.758449462890625,1.001308798789978,1.0855218172073364,-0.2765808701515198
1761507243331605200,3.778605224609375,1.0063445568084717,0.6509369611740112,0.012155655771493912
1761507243351761400,3.798761474609375,0.8350789546966553,0.6175316572189331,0.20803110301494598
1761507243371917300,3.818917236328125,0.8348733186721802,0.5208228230476379,0.35469987988471985
1761507243392073200,3.8390732421875,0.943073034286499,0.35463187098503113,0.5674356818199158
1761507243412229400,3.8592294921875,0.9741082191467285,0.2758641242980957,0.7801099419593811
1761507243432385300,3.87938525390625,0.8585956692695618,0.29829737544059753,0.8342636823654175
1761507243452541400,3.89954150390625,0.8021010160446167,0.4132726788520813,1.0833349227905273
1761507243472697300,3.919697265625,0.9858874082565308,0.4867638349533081,1.8276660442352295
1761507243492853200,3.939853271484375,0.9208434224128723,0.5051151514053345,2.2587692737579346
1761507243513009400,3.960009521484375,0.6913529634475708,0.7543957233428955,1.9897454977035522
1761507243533166000,3.980166015625,0.6006133556365967,0.7650046348571777,1.835381031036377
1761507243553319200,4.000319091796875,0.4614610970020294,-0.2604130506515503,1.5394004583358765
1761507243573475300,4.020475341796875,0.13645796477794647,-1.124770998954773,0.3283245265483856
1761507243593631200,4.04063134765625,0.0017987308092415333,-1.135372281074524,-1.022542953491211
1761507243613788400,4.060788330078125,0.5718051791191101,-0.8886740803718567,-1.86703360080719
1761507243633944300,4.0809443359375,1.1293143033981323,-1.0594451427459717,-2.3784587383270264
1761507243654100200,4.101100341796875,0.9932882785797119,-1.47978937625885,-2.9105308055877686
1761507243674256400,4.12125634765625,0.05883727967739105,-1.4340258836746216,-3.589782238006592
1761507243694412300,4.141412353515625,-1.0880649089813232,-0.5683664679527283,-3.8360180854797363
1761507243714568400,4.161568359375,-1.7960128784179688,0.007202060893177986,-3.124269962310791
1761507243734724400,4.181724365234375,-1.7973577976226807,-0.14607146382331848,-1.6415647268295288
1761507243754880300,4.20188037109375,-1.614060401916504,-0.8835123777389526,-0.4574068486690521
1761507243775036400,4.222036376953125,-1.3383731842041016,-1.4955825805664062,-0.004351029172539711
1761507243795192300,4.2421923828125,-0.6750612854957581,-1.1289281845092773,0.38263726234436035
1761507243815348200,4.26234814453125,0.163204625248909,-0.38673579692840576,0.6569175720214844
1761507243835504400,4.28250439453125,0.6670821309089661,0.25168853998184204,0.6901042461395264
1761507243855660300,4.302660400390625,0.7572264671325684,0.6578648090362549,0.8036853671073914
1761507243875816400,4.32281640625,0.7226251363754272,0.7070037126541138,1.3797502517700195
1761507243895972400,4.342972412109375,0.6276788115501404,0.5286843776702881,2.265442132949829
1761507243916128300,4.363128173828125,0.4805079996585846,0.4004956781864166,2.7852120399475098
1761507243936284400,4.383284423828125,0.2530836760997772,0.5287004113197327,2.7154269218444824
1761507243956440300,4.4034404296875,0.06407275795936584,1.029590129852295,2.445988655090332
1761507243976597200,4.42359716796875,0.21922986209392548,1.444150447845459,2.3792247772216797
1761507243996755500,4.44375537109375,0.1864558905363083,1.0455764532089233,2.1359498500823975
1761507244016910800,4.463910888671875,-0.10492156445980072,0.4207078814506531,2.129868268966675
1761507244037067000,4.48406689453125,-0.36417555809020996,-0.2592013478279114,2.4097530841827393
1761507244057223000,4.504222900390625,-0.5627421140670776,-0.9833521246910095,1.8089699745178223
1761507244077379000,4.524379150390625,-0.547065019607544,-1.2507555484771729,0.14054234325885773
1761507244097535000,4.544534912109375,-0.42568689584732056,-1.0109949111938477,-1.3916739225387573
1761507244117691000,4.56469091796875,-0.09206599742174149,-0.5298823714256287,-2.018526792526245
1761507244137847000,4.584846923828125,0.13827741146087646,-0.33436819911003113,-2.0223758220672607
1761507244158003000,4.6050029296875,-0.03844652324914932,-0.958390474319458,-1.9954349994659424
1761507244178159000,4.6251591796875,-0.3702865242958069,-1.8962366580963135,-2.1683437824249268
1761507244198315000,4.64531494140625,-0.5672579407691956,-2.0761682987213135,-2.651202440261841
1761507244218471000,4.665470947265625,-0.5113312005996704,-1.336369276046753,-2.931513547897339
1761507244238627800,4.6856279296875,-0.16119502484798431,-0.5691299438476562,-2.692711114883423
1761507244258783700,4.70578369140625,0.3706704378128052,0.36586180329322815,-1.722030520439148
1761507244278940000,4.72593994140625,0.7162795662879944,0.8895137906074524,-1.0870450735092163
1761507244299095800,4.746095703125,0.7026724815368652,0.8414458632469177,-0.9685821533203125
1761507244319251700,4.766251708984375,0.4776872992515564,0.980198323726654,-0.9353386163711548
1761507244339408000,4.786407958984375,0.22524330019950867,1.2603093385696411,-0.5578553676605225
1761507244359563800,4.806563720703125,0.0011787516996264458,1.2225209474563599,0.057642895728349686
1761507244379720000,4.826719970703125,-0.11136998981237411,0.956531286239624,0.6913299560546875
1761507244399875800,4.846875732421875,-0.09882883727550507,0.5553786158561707,1.1153630018234253
1761507244420031700,4.86703173828125,0.18471737205982208,0.22213758528232574,1.6060385704040527
1761507244440188000,4.88718798828125,0.5494005680084229,0.2495812028646469,1.8790913820266724
1761507244460343800,4.90734375,0.855226457118988,0.5319379568099976,2.0453996658325195
1761507244480500000,4.9275,1.022134780883789,0.8120009899139404,2.4359323978424072
1761507244500655900,4.94765576171875,0.6586607098579407,0.04617622494697571,2.0424888134002686
1761507244520811800,4.967811767578125,0.27932700514793396,-1.5706151723861694,2.0131068229675293
1761507244540968000,4.987968017578125,0.5446068048477173,-2.3676979541778564,2.7884018421173096
1761507244561123800,5.008123779296875,1.3395557403564453,-1.2111519575119019,2.8934197425842285
1761507244581280000,5.028280029296875,2.274883985519409,0.9921464323997498,2.0261731147766113
1761507244601437000,5.04843701171875,2.6142969131469727,2.261875867843628,0.4136839509010315
1761507244621593000,5.068593017578125,1.809108018875122,1.6215848922729492,-1.0146324634552002
1761507244641749000,5.0887490234375,0.8556119203567505,0.7950211763381958,-1.283038854598999
1761507244661905000,5.10890478515625,0.2180493026971817,0.10249721258878708,-1.70929753780365
1761507244682061000,5.12906103515625,-0.4156184494495392,-0.47181057929992676,-2.5928659439086914
1761507244702217000,5.149217041015625,-0.7039645314216614,-0.2510281205177307,-2.802371025085449
1761507244722372900,5.169372802734375,-0.7204446196556091,-0.27120861411094666,-2.6673972606658936
1761507244742529000,5.189529052734375,-0.5799816846847534,-0.8097147941589355,-1.9041554927825928
1761507244762685000,5.209684814453125,-0.6186229586601257,-1.2088134288787842,-0.5299158692359924
1761507244782841000,5.229841064453125,-0.8315222263336182,-1.2157865762710571,0.662765383720398
1761507244802997000,5.2499970703125,-0.8776905536651611,-0.9853392839431763,1.025417447090149
1761507244823153000,5.27015283203125,-0.8870822191238403,-0.5071900486946106,0.6048696637153625
1761507244843308800,5.290308837890625,-0.7996120452880859,0.18353484570980072,-0.03128960728645325
1761507244863465000,5.31046484375,-0.6019564270973206,0.560592770576477,-0.40125587582588196
1761507244883620900,5.330620849609375,-0.4639999270439148,0.6502624154090881,-0.3800026774406433
1761507244903776800,5.35077685546875,-0.5865141153335571,0.5208282470703125,-0.09288876503705978
1761507244923932700,5.3709326171875,-0.7482891082763672,-0.019569847732782364,0.4757971465587616
1761507244944088800,5.3910888671875,-0.6606572270393372,-0.568329393863678,1.3581838607788086
1761507244964245800,5.411245849609375,-0.3293696641921997,-0.9457137584686279,2.0173392295837402
1761507244984402000,5.43140185546875,-0.35532668232917786,-1.5162551403045654,1.7217497825622559
1761507245004557600,5.4515576171875,-0.8243288397789001,-1.725620985031128,0.8741299510002136
1761507245024713700,5.471713623046875,-1.1059173345565796,-1.614169955253601,1.075235366821289
1761507245044869600,5.49186962890625,-0.6614176630973816,-1.5955113172531128,0.8079811334609985
1761507245065025500,5.512025634765625,-0.4631769359111786,-1.6764167547225952,-0.9314366579055786
1761507245085181700,5.532181640625,-0.6938666701316833,-1.0364956855773926,-1.9483956098556519
1761507245105337600,5.552337646484375,-0.8485875725746155,-0.8218533396720886,-2.153438091278076
1761507245125493800,5.57249365234375,-0.897894024848938,-1.225759744644165,-1.8377996683120728
1761507245145649700,5.592649658203125,-0.860446035861969,-1.4574997425079346,-1.6630607843399048
1761507245165805600,5.6128056640625,-0.8750771284103394,-0.9704108238220215,-1.757634162902832
1761507245185961700,5.632961669921875,-0.994818389415741,-0.28467246890068054,-1.7493990659713745
1761507245206117600,5.65311767578125,-1.126576542854309,0.02830527164041996,-1.5409724712371826
1761507245226273800,5.673273681640625,-1.0336633920669556,0.10594578087329865,-1.0777562856674194
1761507245246429700,5.6934296875,-0.664667546749115,0.183993399143219,-0.5097823143005371
1761507245266585600,5.713585693359375,-0.20826348662376404,0.15159013867378235,-0.2670353055000305
1761507245286741800,5.73374169921875,0.11552444100379944,0.40832793712615967,-0.4523108899593353
1761507245306897700,5.753897705078125,0.19875624775886536,0.9755102396011353,-0.7437294721603394
1761507245327054800,5.774054931640625,0.15785223245620728,1.3860769271850586,-0.9437865018844604
1761507245347210800,5.794210693359375,0.2922777533531189,1.4350217580795288,-0.8195191025733948
1761507245367367000,5.814366943359375,0.6270211935043335,1.1352916955947876,-0.4520280957221985
1761507245387522800,5.834522705078125,0.9059946537017822,0.8753396272659302,-0.01116282120347023
1761507245407678700,5.8546787109375,1.1262435913085938,0.8504592776298523,0.49625539779663086
1761507245427834600,5.874834716796875,1.4147197008132935,1.098781704902649,0.9532837867736816
1761507245447990500,5.894990478515625,1.689594030380249,1.2917238473892212,1.0525970458984375
1761507245468146700,5.915146728515625,1.543962836265564,1.0617282390594482,1.3246560096740723
1761507245488302600,5.935302490234375,0.3374153971672058,-0.9531468749046326,1.7254374027252197
1761507245508458500,5.95545849609375,-0.11794251203536987,-3.6510205268859863,3.1055679321289062
1761507245528614700,5.97561474609375,-0.29673153162002563,-4.337048053741455,4.267070293426514
1761507245548770600,5.9957705078125,0.4623372554779053,-2.936736583709717,3.2701003551483154
1761507245568926500,6.015926513671875,0.9438406229019165,-0.046662576496601105,1.262343168258667
1761507245589082600,6.03608251953125,0.7712778449058533,1.3196969032287598,-0.13761910796165466
1761507245609238500,6.056238525390625,0.5785709619522095,0.7496378421783447,-0.4225431978702545
1761507245629394700,6.076394775390625,0.09658057987689972,-0.4003465175628662,-0.07419048994779587
1761507245649550600,6.096550537109375,-0.3552072048187256,-0.8884633183479309,-0.2473684400320053
1761507245669706500,6.11670654296875,-0.25146815180778503,-0.152641162276268,-0.9308386445045471
1761507245689863700,6.13686376953125,0.2798369526863098,1.1760605573654175,-1.6379220485687256
1761507245710019600,6.15701953125,0.8055606484413147,1.551440715789795,-2.231811046600342
1761507245730175700,6.17717578125,1.241955041885376,1.0642324686050415,-1.7923991680145264
1761507245750331600,6.19733154296875,1.277025580406189,0.5494605898857117,-0.7012072801589966
1761507245770487800,6.21748779296875,0.762184739112854,0.7328933477401733,0.3583410084247589
1761507245790643700,6.237643798828125,-0.29734721779823303,0.3583698570728302,0.651033878326416
1761507245810799600,6.257799560546875,-0.5273676514625549,0.6007261872291565,-0.7105122208595276
1761507245830955800,6.277955810546875,-0.606169581413269,1.0550867319107056,-2.042421817779541
1761507245851111700,6.298111572265625,-0.8402835130691528,1.120057225227356,-2.533973455429077
1761507245871267600,6.318267578125,-0.4897499978542328,0.5409713387489319,-1.241241216659546
1761507245891423700,6.338423828125,0.03240691497921944,-0.3351544737815857,0.6782363653182983
1761507245911579600,6.35857958984375,0.1997561752796173,-1.222311019897461,1.4209526777267456
1761507245931735800,6.37873583984375,0.2919470965862274,-1.2878667116165161,1.907404899597168
1761507245951891700,6.3988916015625,0.6009137630462646,-0.6002914309501648,2.6237576007843018
1761507245972047600,6.419047607421875,0.6441952586174011,-0.5766913890838623,2.8738932609558105
1761507245992203800,6.439203857421875,0.5462270379066467,-0.8594304323196411,3.3290703296661377
1761507246012360000,6.45935986328125,0.6782256364822388,-1.0777727365493774,3.260512113571167
1761507246032516900,6.479516845703125,1.1609458923339844,-0.8311994075775146,2.082026720046997
1761507246052672800,6.4996728515625,1.325096845626831,-0.15332524478435516,1.0183088779449463
1761507246072828700,6.51982861328125,1.1335656642913818,-0.16214942932128906,0.3907344341278076
1761507246092984800,6.53998486328125,0.6054857969284058,-0.28967538475990295,-0.11148352921009064
1761507246113140700,6.560140625,-0.053002241998910904,-0.08107014000415802,-0.5334064960479736
1761507246133297000,6.580296875,-0.11448637396097183,-0.008537041023373604,-0.5633321404457092
1761507246153452800,6.600452880859375,-0.0009022650774568319,-0.38390567898750305,0.07971134036779404
1761507246173608700,6.620608642578125,-0.3469642102718353,-0.4896096885204315,0.27687761187553406
1761507246193764900,6.640764892578125,-0.3196275532245636,-0.008433443494141102,0.03403138369321823
1761507246213920800,6.660920654296875,0.37359297275543213,0.3462866544723511,0.2141343653202057
1761507246234077000,6.681076904296875,0.6537386775016785,0.31866177916526794,0.3173421323299408
1761507246254232800,6.70123291015625,0.4189051389694214,0.4684145152568817,-0.1603505164384842
1761507246274388700,6.721388671875,0.3065497875213623,0.4871790111064911,-0.5384689569473267
1761507246294545000,6.741544921875,0.21226908266544342,0.4425031244754791,-0.6678368449211121
1761507246314700800,6.76170068359375,0.18747131526470184,0.564357340335846,-0.9444756507873535
1761507246334857000,6.78185693359375,0.20346252620220184,0.388365775346756,-0.9400114417076111
1761507246355014000,6.802013916015625,0.16427917778491974,-0.14081686735153198,-0.5809616446495056
1761507246375170000,6.822170166015625,0.0041102459654212,-0.6577471494674683,-0.32068973779678345
1761507246395326000,6.842325927734375,-0.08229008316993713,-0.885698676109314,-0.12497690320014954
1761507246415481900,6.86248193359375,0.07477410137653351,-0.6626951694488525,0.034476399421691895
1761507246435638000,6.882637939453125,0.4134751856327057,-0.70686936378479,-0.3607948124408722
1761507246455794000,6.9027939453125,0.3935275971889496,-1.6184889078140259,-1.076062798500061
1761507246475950000,6.9229501953125,0.21969561278820038,-1.01846444606781,-0.26543065905570984
1761507246496106000,6.94310595703125,0.31978997588157654,0.19224777817726135,0.6527190208435059
1761507246516262000,6.963261962890625,0.657755970954895,0.28878840804100037,0.2134159505367279
1761507246536418000,6.98341796875,0.7398834228515625,0.10013791173696518,-0.7751684188842773
1761507246556574000,7.003573974609375,-0.013378091156482697,1.0492653846740723,-1.3695757389068604
1761507246576729900,7.023729736328125,0.11032725125551224,0.6964111328125,-1.41889488697052
1761507246596886000,7.043885986328125,-0.09375104308128357,0.512758195400238,-1.408725619316101
1761507246617042000,7.0640419921875,-0.3660743534564972,0.3297330439090729,-0.9496727585792542
1761507246637198000,7.084197998046875,-0.2636414170265198,0.03156236559152603,-0.6975282430648804
1761507246657354000,7.10435400390625,-0.036458972841501236,-0.07373975217342377,-0.7446924448013306
1761507246677510000,7.124510009765625,0.05572294816374779,-0.1316724568605423,-0.7684776782989502
1761507246697666000,7.144666015625,0.23799769580364227,0.18405576050281525,-0.7213029265403748
1761507246717822700,7.16482275390625,0.5223667025566101,0.03761889412999153,-0.26058951020240784
1761507246737979000,7.184978759765625,0.58909010887146,0.00914811808615923,0.35414424538612366
1761507246758134800,7.205134765625,0.40394774079322815,0.16128550469875336,0.2693353593349457
1761507246778291000,7.225291015625,0.29782581329345703,0.43283870816230774,-0.22621645033359528
1761507246798446800,7.24544677734375,0.1333325058221817,0.6383452415466309,-0.2995685935020447
1761507246818602800,7.265602783203125,-0.1746712327003479,0.2862909436225891,0.23088791966438293
1761507246838759000,7.285759033203125,-0.4202655851840973,-0.17956241965293884,0.796816349029541
1761507246858914800,7.305914794921875,-0.42037683725357056,-0.4288274049758911,1.2119449377059937
1761507246879071000,7.326071044921875,-0.3833349645137787,-0.21476177871227264,1.235620379447937
1761507246899227000,7.346226806640625,-0.35000669956207275,0.021164095029234886,1.2136486768722534
1761507246919382800,7.3663828125,-0.23084360361099243,0.012524834834039211,1.2897576093673706
1761507246939539000,7.3865390625,0.01435786671936512,-0.010423095896840096,1.7722280025482178
1761507246959694800,7.40669482421875,-0.10388537496328354,-0.561314046382904,2.163975954055786
1761507246979850800,7.426850830078125,-0.7332452535629272,-2.02518892288208,1.3478648662567139
1761507247000007000,7.4470068359375,-1.4388012886047363,-2.7935683727264404,0.5552123188972473
1761507247020163000,7.4671630859375,-1.80722975730896,-1.904552936553955,-0.13990093767642975
1761507247040319000,7.487319091796875,-0.48931625485420227,0.16997161507606506,-1.4586923122406006
1761507247060476200,7.50747607421875,0.3349825143814087,1.067006230354309,-1.9580161571502686
1761507247080632000,7.527632080078125,0.738295316696167,0.6756466031074524,-1.064268708229065
1761507247100788200,7.547788330078125,0.4854503571987152,-0.21592475473880768,-0.5069098472595215
1761507247120944000,7.567944091796875,0.09350194782018661,-0.623660147190094,-0.40476343035697937
1761507247141100000,7.58810009765625,-0.188726007938385,-0.5670998692512512,-0.479863703250885
1761507247161256200,7.608256103515625,-0.20333904027938843,0.029326539486646652,-0.8913375735282898
1761507247181412000,7.628412109375,-0.00020562461577355862,0.6778808236122131,-0.9329659938812256
1761507247201568000,7.648568115234375,0.26726317405700684,0.802428662776947,0.04569726809859276
1761507247221724200,7.66872412109375,0.42636486887931824,0.7627719044685364,1.2420278787612915
1761507247241880000,7.688880126953125,0.5384527444839478,0.6424776315689087,1.299386739730835
1761507247262036000,7.709035888671875,0.44902151823043823,0.5334568619728088,0.42790350317955017
1761507247282192000,7.72919189453125,0.2466217279434204,0.42937153577804565,-0.17558003962039948
1761507247302347800,7.74934765625,-0.016358980908989906,0.16114462912082672,-0.32474184036254883
1761507247322504000,7.76950390625,-0.21343721449375153,-0.22979982197284698,-0.0025360325817018747
1761507247342659800,7.789659912109375,-0.27883005142211914,-0.5235050320625305,0.2726791203022003
1761507247362816000,7.80981591796875,-0.1975194662809372,-0.5296037197113037,0.2786749303340912
1761507247382973000,7.829972900390625,-0.07403003424406052,-0.2921813726425171,0.29111161828041077
1761507247403129000,7.850129150390625,0.012810075655579567,-0.05636652559041977,0.36968106031417847
1761507247423285000,7.870284912109375,0.22306743264198303,0.09103402495384216,0.5663645267486572
1761507247443441000,7.89044091796875,0.6217179298400879,0.2287345975637436,0.8669245839118958
1761507247463597000,7.91059716796875,0.7966433763504028,-0.32671666145324707,0.633120596408844
1761507247483753000,7.9307529296875,0.21451261639595032,-1.2220722436904907,-0.2584809362888336
1761507247503909000,7.9509091796875,-0.21247823536396027,-0.7405794858932495,-0.7304073572158813
1761507247524065000,7.97106494140625,-0.21295565366744995,0.29754599928855896,-0.9183436632156372
1761507247544221000,7.991220947265625,0.11596149951219559,0.3687129020690918,-0.6100383400917053
1761507247564375000,8.011375,0.12674838304519653,0.3360036313533783,0.06364002823829651
1761507247584531000,8.031531005859375,0.13865135610103607,0.44501927495002747,0.59469074010849
1761507247604686800,8.051686767578126,0.06739551573991776,0.1702158898115158,0.18567907810211182
1761507247624843000,8.071843017578125,0.18600741028785706,0.29637670516967773,-0.28917360305786133
1761507247644999000,8.0919990234375,0.42128095030784607,0.7630558013916016,-0.6082270741462708
1761507247665154800,8.11215478515625,0.6371934413909912,0.657568633556366,-0.8164443969726562
1761507247685311000,8.13231103515625,0.6816344857215881,0.06935492157936096,-0.5146623253822327
1761507247705467000,8.152466796875,0.8870964646339417,-0.024386189877986908,0.1168162152171135
1761507247725622800,8.172622802734375,1.115814447402954,0.12013225257396698,0.5570504069328308
1761507247745779000,8.192779052734375,1.1775422096252441,-0.23463532328605652,1.0134204626083374
1761507247765934800,8.212934814453124,0.8746162056922913,-0.5919198393821716,1.3851748704910278
1761507247786091000,8.233091064453125,0.3201236426830292,-0.5112667679786682,1.314192533493042
1761507247806247000,8.253246826171875,-0.1420844942331314,-0.3495158553123474,0.8049220442771912
1761507247826404000,8.273404052734374,-0.671942949295044,-0.402974009513855,0.6020370721817017
1761507247846560000,8.29356005859375,-0.8663563132286072,-0.3440801799297333,0.6068832874298096
1761507247866716000,8.3137158203125,-0.9912751317024231,-0.297619491815567,0.6265625953674316
1761507247886872000,8.3338720703125,-1.0170646905899048,-0.2670934796333313,0.6474012136459351
1761507247907028000,8.354028076171875,-1.0437791347503662,-0.2732250392436981,0.7088809013366699
1761507247927184100,8.37418408203125,-0.9180611968040466,-0.18053394556045532,0.7416191697120667
1761507247947341000,8.394341064453124,-0.5050883889198303,0.10049637407064438,0.6371734738349915
1761507247967497200,8.414497314453126,-0.37053006887435913,-0.26059311628341675,0.4492306411266327
1761507247987653000,8.434653076171875,-0.6168394684791565,-1.4515695571899414,-0.0848260223865509
1761507248007808500,8.45480859375,-0.4700588285923004,-1.0400030612945557,-0.5338494777679443
1761507248027964700,8.474964599609375,-0.637037992477417,-0.05382973328232765,-0.8413829803466797
1761507248048120600,8.49512060546875,-0.5563780665397644,0.569406270980835,-0.907325029373169
1761507248068276500,8.5152763671875,-0.6420180797576904,0.8685070276260376,-0.7024321556091309
1761507248088432600,8.5354326171875,-0.441249817609787,1.0369328260421753,0.0618034265935421
1761507248108588500,8.555588623046875,-0.0015078963479027152,1.0652787685394287,0.16654543578624725
1761507248128744700,8.57574462890625,0.08893857151269913,1.0107710361480713,-0.5280642509460449
1761507248148900600,8.595900634765625,-0.14360485970973969,1.1523905992507935,-1.2212871313095093
1761507248169056500,8.616056396484375,-0.44024235010147095,1.2336664199829102,-1.4337955713272095
1761507248189212700,8.636212646484376,-1.2313446998596191,0.7934165596961975,-1.4830952882766724
1761507248209368600,8.65636865234375,-1.168136715888977,0.7944780588150024,-1.2926065921783447
1761507248229524700,8.676524658203125,-0.13561426103115082,0.2747410833835602,0.11591921001672745
1761507248249680600,8.6966806640625,0.28365233540534973,-0.542758584022522,1.502644658088684
1761507248269836500,8.71683642578125,0.37111762166023254,-1.0019475221633911,1.5527297258377075
1761507248289993500,8.736993408203125,0.4958227872848511,-0.9863004088401794,1.502821922302246
1761507248310149400,8.7571494140625,0.3241635262966156,-0.7102860808372498,1.2301584482192993
1761507248330305500,8.777305419921875,0.09243596345186234,-0.510588526725769,0.7794671654701233
1761507248350461400,8.79746142578125,-0.09760643541812897,-0.712615966796875,0.6185426115989685
1761507248370617600,8.81761767578125,-0.10936647653579712,-1.1549091339111328,0.8378713130950928
1761507248390773500,8.8377734375,-0.01449449360370636,-1.1332093477249146,0.9830124974250793
1761507248410929400,8.857929443359374,0.01834789663553238,-0.6060795187950134,0.5432575941085815
1761507248431085600,8.87808544921875,0.09783229976892471,-0.13661067187786102,0.2615639567375183
1761507248451241500,8.898241455078125,0.3317220211029053,0.051239609718322754,0.6488727927207947
1761507248471397400,8.9183974609375,0.696054995059967,0.044298525899648666,0.9678641557693481
1761507248491553500,8.938553466796876,0.717066764831543,-0.7996053099632263,0.5254095196723938
1761507248511709400,8.95870947265625,0.22306786477565765,-1.7247496843338013,0.33090072870254517
1761507248531865600,8.978865478515624,-0.11277822405099869,-0.6041062474250793,0.022520627826452255
1761507248552021500,8.999021484375,-0.2021207958459854,0.5512109398841858,-0.8823521137237549
1761507248572177400,9.019177490234375,-0.28313106298446655,0.6494681239128113,-1.834813117980957
1761507248592333600,9.03933349609375,-0.1918080449104309,1.2070192098617554,-1.640602946281433
1761507248612489500,9.059489501953125,-0.10290051996707916,1.3836499452590942,-1.0332688093185425
1761507248632645600,9.079645751953125,-0.19516196846961975,1.1576311588287354,-0.796531617641449
1761507248652801500,9.099801513671874,-0.3305973410606384,0.6039320826530457,-1.09122896194458
1761507248672958700,9.119958740234376,-0.38663557171821594,0.13833798468112946,-1.3409969806671143
1761507248693114600,9.140114501953125,-0.10944660007953644,0.6033011674880981,-1.2582392692565918
1761507248713270500,9.1602705078125,0.11718393117189407,1.1311323642730713,-0.8249076008796692
1761507248733426700,9.1804267578125,-0.010144218802452087,0.47313404083251953,0.1976950317621231
1761507248753582600,9.20058251953125,-0.04459226503968239,-0.2527589797973633,1.112605094909668
1761507248773738500,9.220738525390624,-0.09749453514814377,-0.5488380193710327,1.1593029499053955
1761507248793894700,9.240894775390625,-0.13476385176181793,-0.5083997249603271,0.8828198909759521
1761507248814050600,9.261050537109375,-0.18769903481006622,-0.5346500277519226,0.6970111131668091
1761507248834206500,9.28120654296875,-0.24515588581562042,-0.6171162128448486,0.5018296241760254
1761507248854362400,9.3013623046875,-0.25733938813209534,-0.37751448154449463,0.3503306210041046
1761507248874518300,9.321518310546875,-0.2477315068244934,-0.022638745605945587,0.33977824449539185
1761507248894674400,9.34167431640625,-0.12112458795309067,0.21343614161014557,0.5172986388206482
1761507248914830300,9.361830322265625,0.01531296782195568,0.39860260486602783,0.6241143941879272
1761507248934986500,9.381986572265625,0.2345142811536789,0.5389684438705444,0.644234299659729
1761507248955142400,9.402142333984376,0.47522789239883423,0.4157281517982483,0.5655876398086548
1761507248975298300,9.42229833984375,0.5104798674583435,0.07566715776920319,0.6291845440864563
1761507248995454500,9.442454345703124,0.17330549657344818,-0.06411578506231308,0.8895177245140076
1761507249015611000,9.46261083984375,-0.12365832924842834,0.002947526052594185,1.112616777420044
1761507249035766800,9.482766845703125,-0.2963296175003052,-0.4869631826877594,0.9582822918891907
1761507249055924000,9.502924072265625,-0.42592039704322815,-0.7723856568336487,0.4758603274822235
1761507249076079900,9.523079833984376,-0.3987081050872803,-0.4016992747783661,0.1946064978837967
1761507249096236000,9.543236083984375,-0.30153828859329224,-0.009396974928677082,-0.02084651030600071
1761507249116392000,9.563391845703125,-0.19955295324325562,0.14946196973323822,-0.29510125517845154
1761507249136547800,9.5835478515625,-0.0896502286195755,0.2919328510761261,-0.8339555263519287
1761507249156704000,9.6037041015625,-0.017862064763903618,0.2920776605606079,-1.1435203552246094
1761507249176860000,9.62385986328125,-0.05000106617808342,0.270370751619339,-0.8808645606040955
1761507249197016000,9.64401611328125,-0.08675801008939743,0.06145510450005531,-0.3153439462184906
1761507249217172000,9.664171875,0.0003065799828618765,-0.10029464960098267,0.059835538268089294
1761507249237328000,9.684327880859374,0.19267071783542633,0.10219086706638336,0.05811741575598717
1761507249257484000,9.704484130859376,0.32230669260025024,0.34142065048217773,-0.07976644486188889
1761507249277640000,9.724639892578125,0.3891826570034027,0.5031439065933228,-0.037729471921920776
1761507249297795800,9.7447958984375,0.3774522840976715,0.44683021306991577,-0.019793648272752762
1761507249317952000,9.764951904296876,0.29979845881462097,0.2597082257270813,-0.20955640077590942
1761507249338108000,9.78510791015625,0.2308475822210312,0.09906172752380371,-0.4040890336036682
1761507249358264000,9.80526416015625,0.2542484998703003,0.048612263053655624,-0.32124096155166626
1761507249378420000,9.825419921875,0.33565980195999146,0.13641731441020966,-0.3201535642147064
1761507249398575900,9.845575927734375,0.4335184693336487,0.33905312418937683,-0.3173519968986511
1761507249418732000,9.86573193359375,0.6629539728164673,0.3221670389175415,-0.16861654818058014
1761507249438888700,9.885888671875,0.7239819169044495,-0.18110570311546326,-0.09974270313978195
1761507249459044900,9.906044921875,0.4194391071796417,-0.5823190808296204,-0.25292009115219116
1761507249479200800,9.92620068359375,0.16679753363132477,-0.20515862107276917,-0.16876228153705597
1761507249499357000,9.94635693359375,-0.1587139219045639,0.304532915353775,-0.08811590075492859
1761507249519512800,9.966512939453125,-0.29676687717437744,-0.22355075180530548,-0.032627400010824203
1761507249539668700,9.986668701171874,-0.4582895338535309,-0.2989268898963928,-0.45121246576309204
1761507249559825000,10.006824951171875,-0.4285859763622284,0.3501460552215576,-0.5313117504119873
1761507249579980800,10.026980712890625,-0.4085618853569031,0.32934167981147766,-0.5497404336929321
1761507249600137000,10.047136962890624,-0.3577914535999298,0.0823601484298706,-0.9077085256576538
1761507249620292900,10.06729296875,-0.15212932229042053,-0.04443396255373955,-1.2069000005722046
1761507249640448800,10.08744873046875,0.059575241059064865,0.02109445631504059,-0.9728066921234131
1761507249660605000,10.10760498046875,0.09660755097866058,-0.043305929750204086,-0.44577810168266296
1761507249680760800,10.1277607421875,0.08008177578449249,-0.08371012657880783,0.27493107318878174
1761507249700916700,10.147916748046875,0.11974751204252243,-0.1987091451883316,0.6691945791244507
1761507249721073000,10.168072998046876,0.20720602571964264,-0.14639955759048462,0.7944168448448181
1761507249741228800,10.188228759765625,0.25544193387031555,0.03946369141340256,1.0022743940353394
1761507249761385000,10.208385009765625,0.2571175992488861,0.09227226674556732,0.8610224723815918
1761507249781540900,10.228540771484376,0.1185690239071846,-0.03145956993103027,0.5404676198959351
1761507249801696800,10.24869677734375,0.027432501316070557,-0.12262045592069626,0.764201819896698
1761507249821853000,10.26885302734375,0.05734642222523689,-0.0320616215467453,0.8642491102218628
1761507249842009900,10.289009765625,0.11807684600353241,0.1743793785572052,0.4916895627975464
1761507249862166000,10.309166015625,0.2816852629184723,0.45205157995224,0.36568278074264526
1761507249882322000,10.329322021484375,0.5380674004554749,0.5463305115699768,0.5919851064682007
1761507249902478000,10.34947802734375,0.8331612348556519,0.2805193364620209,0.8171036243438721
1761507249922634000,10.369634033203125,0.809541642665863,-0.17525969445705414,0.6338202357292175
1761507249942790000,10.389789794921874,0.5131054520606995,-0.0897773802280426,0.24448536336421967
1761507249962946000,10.409946044921876,0.20866115391254425,0.33816489577293396,0.009525973349809647
1761507249983102000,10.43010205078125,-0.2924950122833252,0.06104176491498947,-0.4892524778842926
1761507250003258000,10.450258056640624,-0.7267757654190063,-0.5041886568069458,-1.238547444343567
1761507250023417600,10.47041748046875,-0.7292820811271667,-0.2654200494289398,-1.7452203035354614
1761507250043573500,10.490573486328126,-0.3809063136577606,-0.22432032227516174,-1.2230907678604126
1761507250063729400,10.5107294921875,-0.22580750286579132,-0.813164234161377,-0.6035006046295166
1761507250083885300,10.53088525390625,-0.24666959047317505,-0.9656568169593811,-0.5221788287162781
1761507250104041500,10.55104150390625,-0.21366290748119354,-0.5781650543212891,-0.5939087271690369
1761507250124197400,10.571197265625,-0.21244856715202332,-0.24187637865543365,-0.4359675943851471
1761507250144353500,10.591353515625,-0.19972196221351624,-0.08761207014322281,-0.196162611246109
1761507250164509400,10.611509521484376,-0.10518985986709595,-0.17477689683437347,0.06918458640575409
1761507250184665300,10.631665283203125,-0.020591503009200096,-0.19022445380687714,0.3136553168296814
1761507250204821500,10.651821533203124,0.08894775062799454,-0.008116875775158405,0.501908004283905
1761507250224977400,10.671977294921875,0.14183735847473145,0.11153269559144974,0.492703914642334
1761507250245133300,10.69213330078125,0.09358245134353638,-0.08175519108772278,0.456418514251709
1761507250265290500,10.71229052734375,0.015676800161600113,-0.3340490758419037,0.4826674461364746
1761507250285446400,10.7324462890625,-0.010546879842877388,-0.4224267303943634,0.5822720527648926
1761507250305602600,10.7526025390625,0.05869213491678238,-0.29424193501472473,0.6997250318527222
1761507250325758500,10.772758544921874,0.2467067837715149,-0.05826672539114952,0.565943717956543
1761507250345914600,10.79291455078125,0.4477250576019287,0.11385585367679596,0.22908829152584076
1761507250366070500,10.813070556640625,0.5170269012451172,-0.18976284563541412,0.2787908613681793
1761507250386226400,10.833226318359374,0.4005730152130127,-0.5328859090805054,0.3953668475151062
1761507250406382600,10.853382568359375,0.22947214543819427,-1.0110794305801392,0.22617697715759277
1761507250426538500,10.87353857421875,0.22638633847236633,-1.2446343898773193,-0.4959569573402405
1761507250446694700,10.893694580078124,0.343588262796402,-0.5433987379074097,-1.2482744455337524
1761507250466850600,10.9138505859375,0.34935328364372253,0.20290614664554596,-1.7804087400436401
1761507250487006500,10.93400634765625,0.5036492943763733,0.28163954615592957,-1.4119879007339478
1761507250507162600,10.95416259765625,0.6925017833709717,0.3771834075450897,-1.6275397539138794
1761507250527318500,10.974318603515625,0.7903611063957214,0.7760425209999084,-1.8187872171401978
