time,seconds_elapsed,z,y,x
1761430026889056300,0.03205615234375,1.8246499605864286,1.395481714218855,-0.15822510710209609
1761430026909000200,0.052000244140625,2.2100912934303283,1.431151578015089,-0.415118678227067
1761430026928945400,0.0719453125,3.2059161024481058,0.9738362645715475,-0.8596344235911965
1761430026948889300,0.091889404296875,4.255374886497855,0.3135843033790588,-1.515025646879524
1761430026968834000,0.111833984375,4.289634298974275,-0.11475859808027744,-1.5877975992321967
1761430026988779300,0.131779296875,2.897863714233041,-0.7567991952776908,-0.6328111426897347
1761430027008722200,0.15172216796875,1.1817489471673965,-1.2606010962165892,0.1674038543358445
1761430027028667100,0.171667236328125,1.0114707064390183,0.7263109719030558,-0.5705208368629217
1761430027048611000,0.191611083984375,1.057182656300068,1.346225954271108,-1.3847636285886167
1761430027068556000,0.21155615234375,-0.420861021271348,1.1265092905044556,-1.045812025045231
1761430027088501200,0.231501220703125,-1.0014414798557758,1.3109154253065585,-0.3134025170713663
1761430027108445200,0.251445068359375,-0.6866676744312048,1.3815278615377842,0.0796660135821905
1761430027128390100,0.27139013671875,-0.3527238891124725,0.5082055427253246,0.3042079146813601
1761430027148335000,0.291335205078125,-1.2421581154227257,-0.3128782009363174,0.4729365878801793
1761430027168279300,0.311279296875,-2.5386165608316658,0.05641892957538366,0.5326915300104766
1761430027188224000,0.33122412109375,-2.947020836111903,0.37731516340300436,0.8634454332467169
1761430027208168200,0.351168212890625,-2.4454917024105787,0.2759947966318577,0.7016326769161969
1761430027228113200,0.371113037109375,-2.147034241014719,-0.19911716252602635,0.513544273404777
1761430027248058000,0.39105810546875,-2.026192523628473,-0.4674669973626733,0.7858816435076296
1761430027268002300,0.411002197265625,-1.7224866401851175,-0.34806532271690666,0.8027775409899651
1761430027287947300,0.430947265625,-0.7544406494528054,-0.2291347727142274,0.40473713107481596
1761430027307891200,0.45089111328125,0.27552023792266844,-0.4790723141562193,0.20462854635864494
1761430027327836200,0.470836181640625,0.11562427499890326,-1.0844571052599699,0.3943868558436632
1761430027347781000,0.490781005859375,-0.44536300984323024,-1.1740597078390418,0.35905104630738494
1761430027367725000,0.51072509765625,-0.9370669151008129,-1.2919284007638692,0.2141469008103013
1761430027387670300,0.530670166015625,-0.9521621929019689,-1.2153722536973655,-0.3753286657609045
1761430027407615200,0.550615234375,-1.2226537890076636,-1.0882863081593066,-0.6074710958585142
1761430027427559200,0.57055908203125,-1.4552198513448238,-0.9383044210065156,-0.4517673239275813
1761430027447504400,0.59050439453125,-1.3229232584863901,-0.8778942298378795,-0.22810922905877232
1761430027467448300,0.6104482421875,-1.2794400905907153,-0.7646393143188208,-0.2800827235326171
1761430027487393000,0.63039306640625,-1.0713163955926894,-0.47042497038543224,-0.39050270788669583
1761430027507338200,0.650338134765625,-0.5875982283920049,-0.23531309602297842,-0.4318076549604535
1761430027527282200,0.6702822265625,-0.17712533014416693,-0.3079807842835784,-0.2513132867746055
1761430027547227100,0.69022705078125,-0.04120587061345577,-0.46436837376020845,-0.18665347533747553
1761430027567171000,0.710171142578125,0.10605156001150608,-0.4883654815498739,-0.2851737630613148
1761430027587116300,0.7301162109375,0.11410919426083564,-0.36653431473486126,-0.1330525257922709
1761430027607061200,0.750061279296875,0.0440408017784357,-0.20038082578629254,0.22085976938717067
1761430027627005200,0.770005126953125,-0.14895254410505293,-0.19253880704902113,0.27559527592025695
1761430027646950100,0.7899501953125,-0.2928980737030506,-0.5058695009931922,0.20611651989407836
1761430027666894000,0.80989404296875,-0.6382213311702013,-0.48347347172461447,0.10990531283020973
1761430027686839000,0.829839111328125,-0.9575187514990567,-0.06464351788945495,-0.13087160155661404
1761430027706784300,0.8497841796875,-0.9327823696494102,-0.014400646600499748,-0.1704140690024942
1761430027726728200,0.869728271484375,-0.46279579068124294,-0.03666179744303226,-0.15214118407852947
1761430027746673200,0.889673095703125,-0.1729132654070854,0.09858706934973598,0.05663805221877992
1761430027766617000,0.9096171875,-0.33885961441099643,0.4672917138610035,-0.018109364925324917
1761430027786562300,0.929562255859375,-0.0828448719471693,0.7803684330441057,-0.1474197815798223
1761430027806507000,0.949507080078125,0.4465799844175577,0.6317872795347124,-0.1815206424936652
1761430027826451000,0.969450927734375,0.6367775621026754,0.4106103339571506,-0.07900931237228215
1761430027846396200,0.989396240234375,0.1747042404770851,0.6514021536521614,-0.03551270047314465
1761430027866340000,1.009340087890625,-0.056447863408923146,0.9096005237653851,-0.041429742497205733
1761430027886285000,1.02928515625,0.2757844418168068,0.6228089502438903,0.1345512399174273
1761430027906230300,1.049230224609375,0.626554274252057,0.035672128818556664,0.2726271468296647
1761430027926174200,1.06917431640625,0.2821808648556471,-0.21202698604688047,0.3096623806949705
1761430027946119200,1.089119140625,-0.06885726312696934,0.04719875435270369,0.24495135052725672
1761430027966064000,1.109064208984375,-0.09511106380224227,0.15200024123787878,0.16508461760804055
1761430027986008000,1.129008056640625,0.1046779335707426,0.1158222817890346,0.08818016856051981
1761430028005954000,1.1489541015625,-0.0034399113208055496,0.11594320475496352,0.037824849873036144
1761430028025898200,1.168898193359375,0.010996025788784027,0.30492388093099,-0.022900544724613427
1761430028045843200,1.18884326171875,0.5463841744720935,0.24845066388510167,-0.19727358048595486
1761430028065788000,1.208787841796875,1.0921499247848987,0.04204984715692699,-0.31569084720425306
1761430028085732000,1.228732177734375,1.0986667593330144,0.009423515775054693,-0.32868359976820644
1761430028105677000,1.248677001953125,0.7981172940939665,0.07011354679837822,-0.09385699035422876
1761430028125621000,1.26862109375,0.29565409441292284,0.1340686440322548,-0.1853169477703981
1761430028145566200,1.288566162109375,0.4404693925827741,0.15050912589728832,-0.3182519298639148
1761430028165511200,1.30851123046875,0.6841197435140609,0.028010288953781125,-0.24508705093720926
1761430028185455000,1.328455078125,0.6597247224479913,-0.03654555065222084,-0.08361773774949834
1761430028205400300,1.348400390625,0.2411754852503538,0.03640774961672723,-0.2105386106526479
1761430028225344300,1.36834423828125,0.31448914326429367,-0.21609679276905952,-0.17499138685539364
1761430028245289000,1.3882890625,0.6697919429540634,-0.38189547693058845,-0.21077439216990024
1761430028265233200,1.408233154296875,0.6640431701689958,-0.40776407768055795,-0.15618839537641033
1761430028285178000,1.42817822265625,0.15680384212732315,-0.3992865375187248,-0.2765682856708765
1761430028305123000,1.448123046875,-0.028235329881310462,-0.365907634203881,-0.17542952254433183
1761430028325067000,1.46806689453125,0.033245266997814174,-0.3809420486632734,-0.12729498517885804
1761430028345012200,1.48801220703125,-0.07682955718040466,-0.3943998614557087,-0.005487856826558709
1761430028364956200,1.5079560546875,-0.4646580774217844,-0.17029175779707728,-0.053569020036980504
1761430028384901000,1.527901123046875,-0.30530747342109676,0.1284410499414429,0.007344992467947304
1761430028404846000,1.54784619140625,0.027308862686157225,0.20300543866883963,0.24601956428065894
1761430028424790000,1.5677900390625,0.008970072919130325,0.1236877909997478,0.30910054556112737
1761430028444735000,1.58773486328125,-0.2521153969377279,0.19804262862969188,0.21762056827023624
1761430028464679200,1.60767919921875,-0.24893209072649478,0.23047347397208212,0.153023044946976
1761430028484624100,1.6276240234375,-0.02540799750089645,0.06202836695499718,0.15380568322464822
1761430028504569000,1.647569091796875,-0.14014730635881423,-0.0451999086856842,0.06010715310145169
1761430028524513300,1.66751318359375,-0.2762684259414673,0.08897336476482451,0.03135437521729618
1761430028544458200,1.687458251953125,-0.09475158284008503,0.1838165714111179,-0.002128171135112643
1761430028564402200,1.707402099609375,0.1576595821738243,0.10478563172891735,0.05930960951559245
1761430028584347100,1.72734716796875,0.15273323168754577,0.028295974027365445,0.011947335164248942
1761430028604292000,1.7472919921875,0.038619361251592633,0.11116356926299631,-0.14307247309051455
1761430028624236000,1.767236083984375,-0.006681669721007347,0.17560908036231992,0.016482932767271995
1761430028644181000,1.787180908203125,0.0713508335083723,0.1284491967152804,0.03483144021071494
1761430028664125200,1.807125244140625,0.05181202030181885,-0.03177402540147305,-0.06611760903000831
1761430028684070100,1.827070068359375,0.0040378772139549254,0.037566637328267094,-0.08667005625851452
1761430028704015000,1.84701513671875,0.2130067908644676,0.22042685786262153,0.043430268664658066
1761430028723959300,1.866959228515625,0.2665215234309435,0.3091987087059766,0.1108266654588282
1761430028743904000,1.886904052734375,0.14130582874417305,0.3448495024755597,0.019776567485183475
1761430028763848200,1.90684814453125,0.13109189324378967,0.04769340600185096,-0.0511521681535989
1761430028783793200,1.926793212890625,0.3459387590169906,-0.06120645611286163,-0.3208567786000669
1761430028803737000,1.946737060546875,0.5205974067866802,-0.1368437347687781,-0.2952446368291974
1761430028823682000,1.96668212890625,0.633792408812046,-0.1055588811237365,-0.27823563436120746
1761430028843627300,1.986627197265625,0.6452227343648672,-0.060292702268809076,-0.23133827410787342
1761430028863571200,2.0065712890625,0.4719873973965645,-0.08168152725622058,-0.15306224444620312
1761430028883516200,2.02651611328125,0.16339900260865686,-0.13667035096324978,0.013760595131292939
1761430028903460000,2.046460205078125,-0.16231354545950888,-0.07355791509859264,0.11102021526955068
1761430028923405000,2.066405029296875,-0.3669382924258709,-0.014105316915735602,0.1909935503683984
1761430028943350000,2.08635009765625,-0.38695582906007764,-0.04299290016070008,0.21171550894491373
1761430028963294000,2.1062939453125,-0.33272505717873574,-0.046882454945147034,0.22898557350188492
1761430028983239200,2.1262392578125,-0.3415045759618282,-0.005564575324580073,0.3545743392847478
1761430029003183000,2.14618310546875,-0.42767946911454197,0.11915734449587762,0.2851663834724575
1761430029023128000,2.166128173828125,-0.26165187156796454,0.1663323526468128,0.20391784080602227
1761430029043073000,2.186072998046875,-0.05657295109331607,0.09468034423477947,0.2478670187782496
1761430029063017200,2.206017333984375,-0.02790858214497566,0.07579977574124931,0.15963519309572874
1761430029082962000,2.2259619140625,-0.08238952939510345,0.022700711303576825,0.11867489474117755
1761430029102906000,2.245906005859375,-0.13241641984581948,0.0900312032546848,0.15954612657278774
1761430029122851000,2.26585107421875,0.06338555371761322,0.11359912584684788,0.12509886337406934
1761430029142795000,2.285794921875,0.24868191535770892,0.05734357013963162,0.07687471149638295
1761430029162740000,2.305739990234375,0.2817120783001184,0.022554142439737915,-0.02245608889274299
1761430029182685200,2.325685302734375,0.2411310615867376,0.042134675896167754,-0.040769305827096106
1761430029202629000,2.345629150390625,0.18764964676797388,0.11107786374092102,-0.04174224251247942
1761430029222574000,2.365573974609375,0.12545534866154193,0.18383659128583968,-0.30590492785759266
1761430029242518000,2.38551806640625,0.19591186367869376,-0.02995009790994227,-0.053368894354999065
1761430029262463000,2.405462890625,0.3076724489867687,-0.060782020155712956,-0.3183192960117012
1761430029282408000,2.425407958984375,0.4654921901583671,-0.20561156604662537,-0.2661469179648906
1761430029302352000,2.445351806640625,0.46273032422959803,-0.2721499577719718,-0.19240056762211025
1761430029322297000,2.465297119140625,0.3265910844683647,-0.31314298935234547,-0.09209989928752184
1761430029342241000,2.485240966796875,0.13284019821584223,-0.3020523440826684,0.001741290709376335
1761430029362186000,2.50518603515625,0.08009469645619392,-0.1236506373271346,0.10077829578369855
1761430029382131200,2.525131103515625,-0.22393735020160674,0.025558292691782114,0.17463555915504694
1761430029402075100,2.5450751953125,-0.598034866732359,-0.007309665426239371,0.2417506547898054
1761430029422019800,2.565019775390625,-0.4767781388044357,0.08676116860806941,0.14546733233779668
1761430029441964000,2.584964111328125,-0.12493980035483837,0.174793964587152,0.1559846346989274
1761430029461909000,2.604908935546875,-0.05747253028154373,0.1504625102765858,0.21763006675094365
1761430029481853000,2.62485302734375,-0.15571429332494735,0.06401230731382966,0.17202099274247884
1761430029501798100,2.644798095703125,-0.0788145935177803,0.05261135398596525,0.16032734007835386
1761430029521743000,2.6647431640625,0.005220949518680572,0.10601561191529035,0.14683525969013572
1761430029541687000,2.68468701171875,-0.08915653931200504,0.045713557296246286,0.08690642229765654
1761430029561632300,2.70463232421875,0.002684124517440796,0.017021569688618184,-0.004296528150141239
1761430029581576200,2.724576171875,0.32387714933454986,-0.025954379337280988,0.09481127713806926
1761430029601521000,2.74452099609375,0.36651685214340685,0.0448110554985702,0.09749072548039257
1761430029621465000,2.764465087890625,-0.015157821643352507,0.12280571093559264,0.1350407770000398
1761430029641410000,2.78441015625,-0.14075754721164702,0.15878507907241582,-0.022573139401152728
1761430029661355000,2.80435498046875,0.032579496565461157,0.0196916656807065,0.08800627329833804
1761430029681299000,2.824298828125,0.22419980053007602,-0.06407061337232589,-0.007938610979542135
1761430029701244200,2.844244140625,0.10778583645820618,-0.0453808182105422,-0.0449487834688276
1761430029721188000,2.86418798828125,0.020394553253054618,0.018890432300418616,-0.022914719380438327
1761430029741133000,2.884133056640625,0.12353344068825244,0.05904051025062799,-0.01246916708126664
1761430029761078000,2.904078125,0.17691081061065195,0.005054506910592317,0.04967698103450238
1761430029781022000,2.92402197265625,0.02078969005048275,-0.06884498816728592,0.04749006544947624
1761430029800967000,2.943966796875,-0.2311316456198692,0.04993877377584576,0.0035205753415822982
1761430029820910800,2.963910888671875,-0.3804793265223503,0.05935951307192444,0.10618125080578028
1761430029840856000,2.98385595703125,-0.15584639527201652,0.0982531612202525,-0.020306655773892998
1761430029860800000,3.003800048828125,0.09747720841169356,-0.08125190366730094,0.02939385226666927
1761430029880745000,3.023744873046875,0.07859364424347877,-0.12174071205258369,0.06146086926534772
1761430029900690200,3.043690185546875,-0.18085048814713953,-0.08144099649861454,0.013885171359032392
1761430029920634000,3.063634033203125,-0.25118659165501594,0.14255202941298484,-0.09821524036265909
1761430029940578800,3.083578857421875,-0.10601415061056613,0.09863163914382457,0.08657222190722823
1761430029960523000,3.10352294921875,0.0327039997279644,0.057506213355436916,0.06917619288302958
1761430029980468000,3.123468017578125,-0.0633387919664383,0.03975347984805703,0.08450885963663458
1761430030000412000,3.143411865234375,-0.24231004223823546,0.0319661139074713,0.12448116986714303
1761430030020357000,3.163357177734375,-0.2758715355783701,0.0707122433438897,0.10964468913264572
1761430030040302000,3.183302001953125,-0.1842190877974033,0.05147672393284738,0.054229237511381506
1761430030060246300,3.203246337890625,0.013783610680699348,0.04774330955818295,0.06539331334345043
1761430030080191200,3.223191162109375,0.12931903835237024,0.07230769584178924,0.16699008590318262
1761430030100135200,3.24313525390625,0.13764555267095566,0.17561638688594103,0.11582483907230198
1761430030120080100,3.263080078125,0.21264789442420004,0.2180589596875012,0.12562756342329084
1761430030140024000,3.283024169921875,0.4173030365288257,0.2521294985283166,0.11692739348672329
1761430030159969000,3.302968994140625,0.4916840315133333,0.14130845909267664,0.043134500588476656
1761430030179914200,3.322914306640625,0.24282500602304935,0.061338411929458374,0.0526171261396259
1761430030199858200,3.342858154296875,0.05624269622564315,0.12701477999798952,-0.14183299442343414
1761430030219803100,3.36280322265625,0.1648006861001253,0.06343034270741045,-0.13424392753392458
1761430030239747000,3.3827470703125,0.4332160604536533,-0.03446319142021238,-0.15068243663758038
1761430030259692300,3.4026923828125,0.6010737960368394,-0.0920611747123301,-0.18550620499849318
1761430030279637000,3.422636962890625,0.45986558244824405,-0.12043467095531522,-0.09348287807852029
1761430030299581000,3.442580810546875,0.13307576053738593,-0.08104162191748619,-0.04105521009638905
1761430030319526100,3.462526123046875,-0.06677519615590571,-0.04636632211655378,-0.03265511908493936
1761430030339470000,3.482469970703125,-0.14029402135312558,-0.03426664593480527,-0.013455036313459276
1761430030359415000,3.5024150390625,-0.167511114102602,-0.001451002525910735,0.03634549803547561
1761430030379359200,3.522359130859375,-0.05815934350192546,0.006955225965380668,0.11600691764093934
1761430030399304200,3.54230419921875,-0.07168284194171429,-0.0005980389583855867,0.13018661496713757
1761430030419249200,3.562249267578125,-0.36125440157055855,-0.008232625490054487,0.07378076406903565
1761430030439193300,3.582193359375,-0.3365501684248447,0.014107728068530558,-0.022932620363309977
1761430030459138000,3.602137939453125,-0.06743044519424438,0.03788615160621703,0.008980375117436051
1761430030479082000,3.62208203125,0.05810907461941242,0.0656928808119148,-0.0016569003615528343
1761430030499027000,3.64202685546875,-0.01355564714372158,0.11363383183404803,-0.03957059756182134
1761430030518971100,3.66197119140625,-0.0034428339302539825,0.110532358687371,-0.07456380420550704
1761430030538916000,3.681916015625,0.10593991633057594,0.13675233015827834,-0.06640015229843556
1761430030558861000,3.701861083984375,0.1690267793625593,0.13575791229344902,-0.0559216475777328
1761430030578805200,3.72180517578125,0.11259586708843708,0.00023943477906286715,-0.06668086893595755
1761430030598750200,3.741750244140625,0.06076806469559669,-0.11778064931519329,-0.11926511571928858
1761430030618694100,3.761694091796875,0.22883447459340095,-0.08192929147221148,-0.09111388392485678
1761430030638639000,3.78163916015625,0.39378070664405823,-0.016372019738703964,-0.14143559260368346
1761430030658583000,3.8015830078125,0.3474696218460798,0.007976312641426921,-0.05617269972935319
1761430030678528000,3.821528076171875,0.11356266629397868,-0.04364544578529894,0.07961173524484037
1761430030698473200,3.84147314453125,-0.05027122060060501,-0.0795545251648873,0.00498458347953856
1761430030718417200,3.861417236328125,-0.04418868581652641,-0.061587637450173496,0.03427176050134003
1761430030738362000,3.881362060546875,0.09194938490092754,0.018683000094816087,0.028811741529777644
1761430030758306000,3.90130615234375,0.06983224563896656,-0.030396891829371452,0.0859205530654639
1761430030778251300,3.921251220703125,-0.054368719047307966,-0.10680106320455669,0.06394969040639698
1761430030798195200,3.9411953125,-0.13760638970434666,-0.08246573643647134,-0.0401198289424181
1761430030818140000,3.961139892578125,-0.014463409638404845,0.026612916311249134,-0.03338599064275622
1761430030838085000,3.981085205078125,0.00012917933762073515,0.1322978349674493,0.04345087306126952
1761430030858029000,4.001029052734375,-0.0072498249977827065,0.12564086129628121,0.07746405569165944
1761430030877974000,4.02097412109375,0.03742050685584545,0.15941190573386846,0.045164545111358166
1761430030897918200,4.040918212890625,0.28380992736220356,0.1349104286186397,-0.0435371631052345
1761430030917863200,4.06086328125,0.37921909732818604,0.04133139668926596,-0.01972644473314285
1761430030937807000,4.08080712890625,0.12012567807137965,-0.13025924181193113,0.027784590439125893
1761430030957752300,4.10075244140625,-0.1981184338122606,-0.10140132305286824,-0.0484977081220597
1761430030977697000,4.120697021484375,-0.10536883844435214,-0.016945581842958926,0.028782588500529525
1761430030997641000,4.140640869140625,0.13942308373749254,0.17019852655567227,0.15810900644175707
1761430031017589200,4.16058935546875,0.1484925253778696,0.1770649782590568,0.22784670566506682
1761430031037533200,4.180533203125,-0.11303951920270919,0.05583966838270425,0.2139950712494552
1761430031057478100,4.20047802734375,-0.30270225935876366,-0.06987330830171704,0.12028196461163461
1761430031077422000,4.220422119140625,-0.23991408701241015,-0.0785945210263133,0.10292634066306054
1761430031097367300,4.2403671875,-0.015434885019063949,-0.043627033345773815,0.10392265822403132
1761430031117312300,4.260312255859375,0.05447802464067936,-0.04012362833470106,0.09406725383773445
1761430031137256200,4.280256103515625,-0.1062333463191986,-0.05189589919298887,0.11245755459628999
1761430031157201400,4.300201416015625,-0.17016601252555846,0.06446063560321927,0.02758899480178952
1761430031177145300,4.320145263671875,-0.04611643900871277,0.040694340894743795,-0.010691562949493527
1761430031197090000,4.340090087890625,0.13578969567120075,-0.04195968465544283,-0.06274535611793398
1761430031217034200,4.3600341796875,0.08264145832955837,-0.10071056430973112,-0.1072777408055961
1761430031236979200,4.379979248046875,0.008373860591650009,-0.019907865714654326,-0.04744410741589963
1761430031256924200,4.399924072265625,-0.0070031567603349686,0.058848275614157314,-0.0032333558980375526
1761430031276868400,4.419868408203125,0.18418927718102932,0.1666577852088958,0.02845284508951008
1761430031296813300,4.439813232421875,0.2671492999404669,0.13455007087364793,0.08364515547938645
1761430031316757200,4.45975732421875,0.09350362860560417,0.0563071397639811,0.07966894532479345
1761430031336702500,4.479702392578125,-0.1545043330132961,0.02406834639497101,0.12812800193689763
1761430031356646400,4.499646484375,-0.21538754852116107,0.11420805152542889,0.1265515464004129
1761430031376591000,4.519591064453125,0.01474164205789566,0.19185002106726168,0.09604081893302499
1761430031396535000,4.53953515625,0.20195523549616334,0.1517517463695258,0.19486220849528907
1761430031416480300,4.559480224609375,0.08242693879604339,0.08278042840883135,0.06903408099859952
1761430031436425200,4.57942529296875,-0.040247254714369775,0.008062748815864324,0.056972617935389276
1761430031456369200,4.599369140625,0.025135610300302504,-0.05299772295504808,0.027860797480493783
1761430031476314400,4.619314453125,0.11497019500434398,-0.01721314673796296,-0.028953707283735274
1761430031496258300,4.63925830078125,0.13206804479956627,0.031299028300866484,-0.028188056673482058
1761430031516203300,4.659203369140625,0.06998597489595412,0.049757206663861867,-0.05463781831227243
1761430031536147500,4.6791474609375,0.1018850879818201,0.08818521006181836,-0.01034216498993337
1761430031556092200,4.699092041015625,0.0666805036097765,0.14172317737340925,-0.10067388556115328
1761430031576037000,4.719037109375,0.06144903269708156,0.028036592438817023,-0.0594105126067996
1761430031595981300,4.738981201171875,0.054416649842262264,-0.024312749610096215,-0.06594217939786613
1761430031615926300,4.75892626953125,0.029985388419032095,-0.011037746038660406,-0.054635845550894735
1761430031635870200,4.7788701171875,-0.03182254071831703,-0.02443396483696997,-0.07573796255141496
1761430031655815400,4.7988154296875,-0.049154199269413945,-0.02026172065362334,-0.10032266097068786
1761430031675759400,4.81875927734375,0.11549918731451034,-0.015937719974666833,0.0061475628443062305
1761430031695704300,4.838704345703125,0.2600111186236143,0.04255063628591597,0.07936828187778591
1761430031715649300,4.858649169921875,0.15614099430441855,0.029442440648749468,0.07897592155933379
1761430031735593200,4.87859326171875,0.00016834230422973633,-0.041334903820604084,0.0206860835455358
1761430031755538200,4.8985380859375,0.04940320559442043,-0.02495338560119271,-0.01754763938933611
1761430031775482000,4.918482177734375,0.14167875370979308,0.005427504941448569,0.06890519392192364
1761430031795427300,4.93842724609375,0.12707564333975313,0.06893449308164418,0.04815335166379809
1761430031815371300,4.958371337890625,0.0998591351121664,0.08769304263070225,0.1379550570115447
1761430031835316200,4.978316162109375,0.056126376369595526,0.07732216300293802,0.12884762144833803
1761430031855260400,4.998260498046875,-0.09798048175871371,-0.0012011194180697202,0.046414106781035656
1761430031875205400,5.018205322265625,-0.13272329383790493,-0.09313815629407762,-0.025537469099462033
1761430031895150000,5.038150146484375,-0.016937690797448158,-0.10867372520864009,-0.01962970636039972
1761430031915094000,5.058093994140625,0.10890636492073535,-0.03625343583784997,-0.011560527803748845
1761430031935039200,5.078039306640625,-0.02184066040813923,-0.03425042545236647,0.07203428572788834
1761430031954983200,5.097983154296875,-0.11631401082873344,-0.03481565811969339,-0.022414076381921767
1761430031974928100,5.11792822265625,-0.11175006391406059,-0.08954963028281926,0.022236381727457045
1761430031994872300,5.137872314453125,-0.06553484070599079,-0.07735416557639836,-0.08269888760522008
1761430032014813700,5.157813720703125,0.10063596470355987,-0.04543722457289696,0.021320289795845746
1761430032034757600,5.177757568359375,0.2047550953477621,0.02656805425621569,0.10401347831264138
1761430032054702600,5.19770263671875,0.1540951676905155,0.046831017018854615,0.11279694261848926
1761430032074647600,5.2176474609375,0.021088380736112595,0.05765475498065352,0.07107640048116445
1761430032094591700,5.237591796875,0.09184475548267364,-0.004782631166651845,0.029340953035652637
1761430032114536400,5.257536376953125,0.09427169036865234,-0.11542626820877194,-0.004831950201094151
1761430032134480600,5.277480712890625,0.05732815337479114,-0.14149243735745548,0.004931026661396026
1761430032154425600,5.297425537109375,0.09104688310325146,-0.0614479367185384,0.05367050765007734
1761430032174369500,5.31736962890625,0.2237859590321779,0.005503565852344036,0.07620075775757432
1761430032194314800,5.337314697265625,0.15330664766132832,0.06524893643669784,0.05947524840608239
1761430032214259700,5.357259765625,-0.08771686189770699,0.011372384820505977,0.03356953051611781
1761430032234203600,5.37720361328125,-0.21969196771681307,0.008363631458580493,0.03525090773180127
1761430032254148600,5.397148681640625,-0.04590016590952873,0.0021758827343583108,0.026492139475792646
1761430032274092800,5.4170927734375,0.26167466792166233,-0.0073612494830042115,0.04904467448033392
1761430032294037500,5.43703759765625,0.3455260865628719,-0.09371544472537935,0.021395400858670473
1761430032313981400,5.4569814453125,0.141626731261611,-0.07788863777928054,-0.012034575056284665
1761430032333926700,5.4769267578125,0.023706454280018805,-0.02766973188780248,0.018599340399354694
1761430032353870600,5.49687060546875,-0.055417935839295385,0.09036474605798721,0.07581701913699507
1761430032373815600,5.516815673828125,-0.11207973425984381,0.16290011317580938,0.07578311686739325
1761430032393760800,5.5367607421875,0.004486205503344535,0.1750061460331082,0.08784647962674498
1761430032413704700,5.55670458984375,0.037672435790300364,0.09398556690365076,0.12027100482620298
1761430032433649700,5.576649658203125,0.05862520744800567,-0.007632175378873944,0.052110126465559
1761430032453593900,5.59659375,0.050128597259521485,-0.021672464234381912,0.06150478147231042
1761430032473538600,5.61653857421875,-0.0929272900223732,0.041162615993618965,0.059200669248402116
1761430032493482500,5.636482421875,-0.10803951895833015,0.05888510049320757,0.027826456819474696
1761430032513427700,5.656427734375,0.05206628732383251,0.012996113564819096,0.06261033156141639
1761430032533371600,5.67637158203125,0.03323649916946888,0.018111703012883663,0.05789280152022838
1761430032553316600,5.696316650390625,-0.11089666195511817,-0.002025076086819172,-0.05346124881356954
1761430032573261800,5.71626171875,-0.04455751912891864,-0.01788600449822843,-0.03684460666403174
1761430032593205800,5.736205810546875,0.08464929102063179,-0.05286510955132544,0.038847763179987664
1761430032613150700,5.756150634765625,0.0561842440366745,-0.07575330625101924,-0.025281302381306884
1761430032633094700,5.7760947265625,0.009554594808816909,-0.035018560280650854,-0.03961334072500467
1761430032653039600,5.79603955078125,-0.0017611644536256789,0.06433708228878676,-0.06080094405189156
1761430032672983600,5.815983642578125,0.13405074304938316,0.1526422654684633,-0.05703676921278238
1761430032692928500,5.835928466796875,0.18533377104103563,0.12062369072139262,-0.10037526794075965
1761430032712872700,5.855872802734375,0.11250234358608723,-0.04681048568747937,-0.12491218169555067
1761430032732817700,5.875817626953125,0.1303939741075039,-0.031671880201250315,-0.15046864775642751
1761430032752762600,5.8957626953125,0.16321546273529527,-0.05024396726749837,0.02971782352402806
1761430032772706800,5.915706787109375,0.28691432311832904,0.06804331639558077,-0.08932137448489666
1761430032792651800,5.93565185546875,0.17989011868238447,0.076642875501886,-0.006562573385983705
1761430032812595700,5.955595703125,-0.010848726272583008,0.07708214370198548,-0.03053717708289623
1761430032832540400,5.97554052734375,-0.05124444954693317,0.14416275254525243,-0.0023036007672548294
1761430032852484600,5.995484619140625,0.012218261060118675,0.15997260835655033,0.021295593746006487
1761430032872429600,6.0154296875,-0.0012479542344808578,0.12261522986479102,0.02055895003452897
1761430032892374500,6.03537451171875,-0.019611293920874594,0.07213175475299358,0.03763268830180168
1761430032912318700,6.055318603515625,0.059818801146745676,0.09427600121758878,0.006284633227437734
1761430032932263700,6.075263671875,0.15920096639692782,0.04195851561166346,0.0074514850497245785
1761430032952207600,6.09520751953125,0.19763269612193107,0.06933189490139484,-0.01794905979707837
1761430032972152800,6.11515283203125,0.0910363617092371,0.017898644784092903,-0.018595979398488997
1761430032992096800,6.1350966796875,-0.11728490168750286,-0.033278292484581466,-0.10316475252881646
1761430033012041500,6.15504150390625,-0.07017185285687447,-0.029370179130136963,-0.09884148250222205
1761430033031985400,6.1749853515625,0.12986030562222003,-0.032398148649185894,-0.07425327695161103
1761430033051930600,6.1949306640625,0.29709961704611776,-0.04782105096951127,-0.07226502574384212
1761430033071875600,6.21487548828125,0.3165174342215061,-0.09307466260381042,-0.04203881430625915
1761430033091819500,6.234819580078125,0.1386415779709816,-0.15343202760666608,0.05685615194886923
1761430033111764500,6.254764404296875,-0.12538111438155172,-0.049390199982374906,0.049303398481756446
1761430033131708700,6.274708740234375,-0.24926935985684393,0.03533573647104204,0.0601861731544137
1761430033151653600,6.294653564453125,-0.07196750410199165,0.10944354053735732,0.13657704665660858
1761430033171597600,6.31459765625,0.12383037780821322,0.17719298855289817,0.19000073993876576
1761430033191542500,6.33454248046875,0.031767595660686494,0.144652654954046,0.2018805628247559
1761430033211486500,6.354486572265625,-0.22452421017885207,0.025867797032371163,0.06876461640745402
1761430033231431400,6.374431396484375,-0.21514029576182364,-0.015585326340422033,0.019793372489511966
1761430033251376600,6.394376708984375,0.04522095147371292,-0.01765869854837656,-0.012735270671546459
1761430033271320600,6.414320556640625,0.21653905664384362,-0.09668978436104952,-0.06712050246223807
1761430033291265500,6.434265625,0.20554244633316993,-0.1314816962789744,-0.10172609802782535
1761430033311209500,6.45420947265625,0.18849486542046068,-0.05884243039526045,-0.06023381168842315
1761430033331154700,6.47415478515625,0.0983300258487463,0.08519464994370937,0.001044248355925083
1761430033351098600,6.4940986328125,-0.07375847917199134,0.09643858607895672,0.01652794095277786
1761430033371043300,6.514043212890625,-0.19258651864826679,0.04695880811698735,-0.045455052490532395
1761430033390987500,6.533987548828125,-0.11902385430932044,0.06159406719096005,-0.04961801738888025
1761430033410932500,6.553932373046875,0.09932663567066193,0.12297894861064851,0.07036372216716408
1761430033430877400,6.57387744140625,0.24337387207746505,0.16360606948807835,0.07859495941773056
1761430033450821600,6.593821533203125,0.044213235735893246,0.08313903258815407,0.07835238283351063
1761430033470766600,6.6137666015625,-0.08919394871294498,0.005275602315366268,-0.017647884893417357
1761430033490710500,6.63371044921875,0.04271919778585434,-0.05366166675649583,0.022905659291148184
1761430033510655700,6.65365576171875,0.2296820313334465,0.028776304890215394,0.05310878211408853
1761430033530599700,6.673599609375,0.1721300060749054,0.12179017721749841,0.13275193541049957
1761430033550544400,6.69354443359375,0.017165654334425927,0.17255626866295934,0.07612111665010451
1761430033570488600,6.713488525390625,0.12943243559896944,0.059872577160596845,0.07920096248686313
1761430033590433500,6.73343359375,0.25348610076904293,-0.036648937961459155,0.04398775641694665
1761430033610378500,6.75337841796875,0.22183073331117628,-0.0948323929913342,0.04618950424492359
1761430033630322400,6.773322509765625,0.11296586944460868,-0.17216325075738131,-0.0024529461100697516
1761430033650267600,6.793267578125,0.06330430517494678,-0.11795534829497337,0.08019771843925118
1761430033670211600,6.813211669921875,0.11450491558015345,-0.011043737388029693,0.059091655915975566
1761430033690156500,6.833156494140625,0.033658523973822595,0.04689268407821655,0.09459171610325574
1761430033710100700,6.853100830078125,-0.1564566361248493,0.08223901500850915,0.08572524968907237
1761430033730045400,6.87304541015625,-0.28848610247969625,0.04731660857871175,0.09950257675945758
1761430033749989600,6.89298974609375,-0.2715922508239746,0.020500351715087888,0.04125526271313429
1761430033769934600,6.9129345703125,-0.15038929890990257,-0.012799056622758508,0.025505028134584426
1761430033789878500,6.93287841796875,-0.11628536925613879,-0.057798182039335365,0.04474675809070468
1761430033809823500,6.952823486328125,-0.11179857923090457,0.022872926065325736,-0.03818155435621738
1761430033829768700,6.972768798828125,-0.017664251506328582,0.048055371182039376,0.016834668814390896
1761430033849712600,6.992712646484375,-0.04092763819396496,0.10271496293470263,-0.01153071718737483
1761430033869657600,7.01265771484375,0.029281624063849446,0.1174924069583416,-0.014475392337143421
1761430033889601500,7.0326015625,0.1477478444904089,0.01100976205319166,-0.000997194343805313
1761430033909546500,7.05254638671875,0.24108137722611425,0.01998100401610136,0.005297521886229515
1761430033929490700,7.07249072265625,0.3283838131040335,0.10187982728481292,0.02266439788118005
1761430033949435400,7.092435302734375,0.43026071777939795,0.1471079391516745,0.03427914009019732
1761430033969379600,7.112379638671875,0.27557226037085053,0.02861621895767748,0.026223551667481658
1761430033989324500,7.132324462890625,0.2119476372003555,-0.03915975173860788,-0.10251432579606772
1761430034009269500,7.15226953125,0.4074655331254005,-0.0860286165498197,-0.047990708447992796
1761430034029214700,7.172214599609375,0.42787353038191794,-0.05445983139686286,-0.02335179562345147
1761430034049159400,7.192159423828125,0.08561550570428371,-0.043195363930240274,0.09945771470442413
1761430034069103400,7.212103271484375,-0.3252174580276012,0.020865897091850636,0.021889467985928057
1761430034089048600,7.232048583984375,-0.33186522547900676,0.1651300641849637,0.09133812113478779
1761430034108992500,7.251992431640625,-0.22231296387016772,0.16678681841604412,0.10904489660859107
1761430034128937500,7.2719375,-0.1600830099284649,0.10484050372131168,0.04525017756819725
1761430034148881400,7.29188134765625,-0.1989993083000183,0.003195654236152768,0.049799511435627934
1761430034168826600,7.31182666015625,-0.269657483369112,-0.06914039091728627,0.02728445889726281
1761430034188770600,7.3317705078125,-0.23117665380537508,-0.10720708672218024,-0.05072057180330157
1761430034208715500,7.351715576171875,-0.12947919735014438,-0.09123414930365979,-0.05876622335389256
1761430034228660500,7.371660400390625,-0.020798457878828048,-0.015233078836649655,0.005455050535500049
1761430034248604400,7.3916044921875,-0.01407411805987358,0.029295798719674346,0.05605418791621923
1761430034268549400,7.41154931640625,-0.09913082083761691,0.0834612502798438,-0.03456073351055383
1761430034288493300,7.431493408203125,-0.043965398454666134,0.07271437694653868,-0.025018413661420345
1761430034308438500,7.4514384765625,0.17389467765986918,0.03018646394908428,-0.05943184765577316
1761430034328382500,7.471382568359375,0.4222977760761976,-0.0063068450592458246,0.027829233298450707
1761430034348327400,7.491327392578125,0.40325522195398805,-0.06258534325063228,0.04835428106337786
1761430034368271600,7.511271728515625,0.24452070402503012,0.00860569658614695,0.06646729925051331
1761430034388216600,7.531216552734375,0.11507482442259788,0.08397994039170444,0.03186374951153993
1761430034408160500,7.551160400390625,0.0941208837211132,0.11094035496637225,-0.005708294644206762
1761430034428105500,7.57110546875,0.16685878767371176,0.012087474287301302,0.05062251825630665
1761430034448050400,7.591050537109375,0.1779115120857954,-0.05316277732364833,0.11433292001411319
1761430034467994400,7.610994384765625,0.04887888945937156,-0.07697115760818124,0.057310617718100546
1761430034487939600,7.630939697265625,-0.06442600268125534,-0.08623458745069801,0.030322073027491566
1761430034507883500,7.650883544921875,-0.1270551850736141,-0.03924260771647096,0.07048164945840835
1761430034527828500,7.670828369140625,-0.11187748968601226,-0.03002856997363269,0.0695334088228643
1761430034547772400,7.6907724609375,-0.03409691539108753,-0.007982596251741051,0.07873363723605871
1761430034567717600,7.710717529296875,0.03903086466193199,-0.024379165909811852,0.07482289353311061
1761430034587661600,7.73066162109375,0.07116846267879008,-0.051709144449234,0.0969184054851532
1761430034607606500,7.7506064453125,-0.030094694012403486,-0.07114245145469904,0.069488254506886
1761430034627550700,7.77055078125,-0.12947627474069595,-0.08627776900529861,0.013171762392669916
1761430034647495400,7.790495361328125,0.012928455156087875,-0.04290397976823151,-0.026683862655609843
1761430034667440400,7.8104404296875,0.22234277448654174,0.02376264144666493,0.08938757158890366
1761430034687384600,7.830384521484375,0.24372516973316669,0.0875442087445408,0.0912638868547976
1761430034707329500,7.85032958984375,0.06026128421723842,0.04278459117226303,0.04578998353332281
1761430034727273500,7.8702734375,0.02686462604999542,-0.03811448046937585,0.0027646424077451227
1761430034747218700,7.89021875,0.15542787759900092,-0.03325454628281295,0.04283040307536721
1761430034767162600,7.91016259765625,0.32044366775453087,0.03962262001000345,0.05378507394045591
1761430034787107600,7.930107666015625,0.40745968790650366,-0.0002386310614645481,0.09945552274733781
1761430034807051500,7.950051513671875,0.31065117253661156,-0.03218370218090713,0.047010026847571135
1761430034826996500,7.96999658203125,0.057058688783645624,0.043385114348679775,-0.04089505109861493
1761430034846940400,7.9899404296875,-0.13927578422129153,0.12192352127358316,0.07323913147300481
1761430034866885400,8.009885498046875,-0.2634925309985876,0.15217457489147782,0.021621903090924023
1761430034886830600,8.02983056640625,-0.13269991296231745,0.06144640234857797,0.038094022203236814
1761430034906774500,8.0497744140625,0.04773614916503429,-0.006060249887034297,0.03800196000561118
1761430034926719500,8.069719482421876,0.04423661661148071,-0.011537146928161383,0.07972118696868419
1761430034946663700,8.08966357421875,-0.12162906837165355,0.09029679538831115,-0.014796294854581355
1761430034966608600,8.109608642578126,-0.22483108417093753,0.1312109895788133,-0.0899454977326095
1761430034986552600,8.129552490234374,-0.12409399718046188,0.056970279847830534,-0.1287225337639451
1761430035006497500,8.14949755859375,0.019026187509298322,-0.027565979252383112,-0.13216273734569547
1761430035026441200,8.169441162109376,0.04837912324368954,-0.10284728407748044,-0.2257429383188486
1761430035046386400,8.189386474609375,0.2274719540685415,-0.10150317599214613,-0.17885858367756008
1761430035066330400,8.209330322265625,0.4355956490665674,-0.09932773164920508,-0.18661241267472503
1761430035086275300,8.229275390625,0.34524142440259453,-0.1649983275640756,-0.16976619955301284
1761430035106219300,8.24921923828125,0.18345979386270045,-0.18428959575034676,-0.02654503870680928
1761430035126164500,8.26916455078125,-0.010244915160536765,-0.10580635307878256,-0.03190904995799065
1761430035146109400,8.289109375,-0.053449266114830966,-0.029675372621789573,-0.07038184234574436
1761430035166053400,8.309053466796875,0.10425240163505077,-0.04993731247112155,0.042311639898270366
1761430035185998300,8.328998291015624,0.23895196398198604,-0.11158829748108982,0.06629661885872483
1761430035205942300,8.3489423828125,0.19743395867943764,-0.1693305115494877,0.11253449229001998
1761430035225887200,8.36888720703125,0.009360533541440964,-0.03096402419283986,0.2765441741429269
1761430035245831400,8.38883154296875,-0.12493044800460337,0.10630480412021279,0.44543139890432354
1761430035265776400,8.4087763671875,0.07182020458579064,0.2589618287663907,0.44892976241409777
1761430035285720300,8.42872021484375,-0.08021803057491779,0.37133904813546686,0.462152232080698
1761430035305665500,8.44866552734375,-0.5567968474149704,0.22574787022229284,0.5861990291185677
1761430035325609500,8.468609375,-0.6789893948882818,0.16659991754181683,0.18745339354351162
1761430035345554400,8.488554443359375,-0.6363087755471467,0.030564284285530447,0.12137187874019145
1761430035365499400,8.50849951171875,-0.10910217975378037,-0.09477014141008257,0.1642152874276042
1761430035385443300,8.528443359375,0.49125966862142084,0.060410045038163655,-0.3540747191995382
1761430035405388300,8.54838818359375,0.6983171956926584,0.006839417565986513,-0.1698869033232331
1761430035425332200,8.568332275390626,0.6057517247200012,-0.0667615329567343,-0.013532266268134117
1761430035445277400,8.58827734375,0.5726718774169683,0.07658654220476746,0.01875233900398016
1761430035465221400,8.608221435546875,0.3488374030679464,0.21189261907748877,-0.03614931787624955
1761430035485166300,8.628166259765624,-0.2961187893152237,0.06659359251130371,-0.08005027279257775
1761430035505110300,8.6481103515625,-0.41201369794905185,0.005350932573899627,-0.20502894385308026
1761430035525055500,8.668055419921876,-0.15155249747037886,0.03727930828686803,-0.6616906156934798
1761430035544999400,8.68799951171875,0.057303603455424304,-0.025685937659442423,0.338216932593286
1761430035564944400,8.7079443359375,0.1353998195707798,0.19271387135498225,0.3271202229090035
1761430035584888600,8.727888671875,0.3278466374874115,0.17584025876969098,0.2379991933017969
1761430035604833300,8.747833251953125,0.3884083659559488,-0.018381752125918863,-0.01780979745686054
1761430035624778200,8.7677783203125,0.08772738329172133,-0.17056838278137146,0.10355082923695444
1761430035644722400,8.787722412109375,-0.1730915445834398,-0.06927614612616598,0.27883111603632565
1761430035664667400,8.80766748046875,-0.32819618157744407,-0.0335829745195806,0.30800255772396923
1761430035684611300,8.827611328125,-0.2511708095639944,-0.15052571170590817,0.022495032663643357
1761430035704556500,8.847556640625,-0.16675649634301662,-0.05318053217604756,-0.11032865280881524
1761430035724500500,8.86750048828125,-0.08839023111462592,0.11196443731710314,0.12857391907349228
1761430035744445400,8.887445556640625,0.059710080075263974,-0.06717661656364798,0.21709347565621137
1761430035764389400,8.907389404296875,-0.007622749963402748,-0.2613026197388768,0.00968508932068944
1761430035784334300,8.927334228515624,-0.40688802549839015,-0.0632058863017708,-0.16547317853420973
1761430035804278300,8.9472783203125,-0.459863828882575,0.20822773989439008,-0.20771248384863136
1761430035824223200,8.96722314453125,0.06824585323035717,0.22088936080783605,-0.312494754576683
1761430035844167400,8.98716748046875,0.3073573916882276,-0.25719701105095444,-0.24932342813163993
1761430035864112400,9.0071123046875,0.20833763000965116,-0.45446620762273665,-0.2787193262249231
1761430035884056300,9.027056396484374,0.1775409252077341,-0.39551870941780504,-0.2543286890730262
1761430035904001500,9.04700146484375,0.24519407324194906,-0.06535356585495174,-0.3166794929154217
1761430035923946500,9.066946533203126,0.05848375315070152,0.1132413984503597,-0.028108780892193316
1761430035943890400,9.086890380859375,0.2195686335980892,0.3554811519313603,-0.16775529812201856
1761430035963835400,9.10683544921875,0.6300894626408815,0.15256993088461457,-0.24446239796653388
1761430035983779300,9.126779296875,0.8532453070759772,0.07338774616345763,0.10500015126243233
1761430036003724300,9.146724365234375,0.08885375697314739,-0.038344197572022676,0.39360739590376614
1761430036023667700,9.166667724609376,-0.24426292987167833,-0.11910451833009719,0.06314633813425898
1761430036043612700,9.18661279296875,0.010116904866695404,-0.277892008555308,-0.1116677924580872
1761430036063556600,9.206556640625,0.3920972836017608,-0.2320253795892,-0.07768237461745739
1761430036083501800,9.226501708984374,0.17285130608677862,0.0012160977914929389,-0.06638941170871257
1761430036103445800,9.24644580078125,-0.24630291126668452,0.17271313972510396,0.1588699808768928
1761430036123390700,9.266390625,-0.266781635671854,0.008076192819327116,-0.06033756432384252
1761430036143335000,9.2863349609375,0.004250058659911155,-0.18982362980619072,-0.06420490727648138
1761430036163280000,9.30627978515625,0.20373744273781774,-0.2494549090242013,-0.09101298083364963
1761430036183223800,9.326223876953126,0.053476738643646236,-0.16630575690083205,0.03637874271795154
1761430036203168800,9.346168701171875,-0.06849719764292239,-0.17118468804880976,0.04821428807079792
1761430036223113700,9.36611376953125,-0.11792553767859935,-0.1651806253284216,-0.07228621466234326
1761430036243057700,9.3860576171875,0.0061813189834356306,-0.05704272402953356,-0.07849909782782197
1761430036263003000,9.4060029296875,0.051556584236025806,0.04085778782814741,0.020788374876230954
1761430036282946800,9.42594677734375,-0.14999240854680537,0.1485674903102219,0.18486074670180677
1761430036302891800,9.445891845703125,-0.3443593808710575,0.19154325667303054,0.23801819026321172
1761430036322835700,9.465835693359375,-0.3420318147063255,0.21389124554879962,0.1749688827626407
1761430036342781000,9.485781005859375,-0.0941600466877222,0.15444931489042937,0.146675246822834
1761430036362724900,9.505724853515625,0.2877829226464033,0.05636661486625671,0.13083236552476882
1761430036382669600,9.525669677734374,0.3481482517600059,0.014939868043735623,0.17123057301715017
1761430036402613800,9.54561376953125,0.2214870344400406,-0.046894876035302874,0.19046850358098744
1761430036422558700,9.565558837890626,0.025465865167975422,-0.09939524392746388,0.03658858607634902
1761430036442502700,9.585502685546874,-0.06791033766567707,-0.06899097250923514,-0.03907631123885512
1761430036462447600,9.605447509765625,0.1650093604147434,0.08270246780179441,-0.003502162902057171
1761430036482391800,9.625391845703126,0.27492636368274687,0.10396759334430097,0.043836511377990245
1761430036502336800,9.645336669921875,0.20806465828716753,0.05185374055169523,0.017997648179158568
1761430036522281700,9.66528173828125,0.006731938603520393,0.21035324414838105,0.0767190825432539
1761430036542226000,9.685225830078124,0.04993044433891773,0.21250950886681674,0.04921199387125671
1761430036562170600,9.705170654296875,0.07548632587790488,-0.026961802814155816,0.08011135533004998
1761430036582114800,9.72511474609375,-0.10428221225142478,-0.19778131081238387,0.014986922055855393
1761430036602059800,9.745059814453125,-0.18534955313205717,-0.09623561085276305,-0.0731621207140386
1761430036622004700,9.765004638671876,0.10987374864816665,-0.03523545443434268,-0.0863242384955287
1761430036641949700,9.78494970703125,0.14538286892473698,-0.01789020574931055,-0.13897972388416527
1761430036661894000,9.804893798828125,-0.09473463170528411,-0.023700426398031414,-0.13298420979641376
1761430036681838800,9.8248388671875,-0.2562514738291502,0.030472185555286704,-0.01461392402499914
1761430036701782800,9.84478271484375,-0.19647066660523413,0.2160978887476027,-0.004331891724467277
1761430036721727700,9.864727783203126,0.026111177334189415,0.22321108175367116,0.1531067411750555
1761430036741671700,9.884671630859375,0.014557517662644386,0.02927618070375174,-0.030502982552349567
1761430036761616600,9.90461669921875,-0.004276946666836738,-0.13169734832365065,-0.07606807128861547
1761430036781560600,9.924560546875,0.10629238303005695,-0.11489563193079083,-0.009951923563331366
1761430036801505800,9.944505859375,0.32237843520939347,-0.025916093153506514,0.07287270931340753
1761430036821450800,9.96445068359375,0.20793255634009836,-0.026178360818885266,-0.05615180307179689
1761430036841394700,9.984394775390625,0.10624679032266139,0.11734152724556625,0.1253350102175027
1761430036861340000,10.00433984375,0.1492763692319393,0.13281035106685013,0.11194653633423149
1761430036881283800,10.024283935546874,-0.03979775738120079,0.18271588016021995,0.13293335639201104
1761430036901228500,10.044228515625,0.024332477223873137,0.21196276170425116,0.09186441003121434
1761430036921172700,10.0641728515625,0.20559446878135204,0.035302710984274746,0.04473163358680904
1761430036941117700,10.08411767578125,0.2050216373294592,-0.0348507659656927,0.004194748276099562
1761430036961061600,10.1040615234375,0.1367640936613083,-0.022677914949879047,-0.05279555144645273
1761430036981006800,10.1240068359375,0.1651139898329973,-0.0313673442967236,-0.08472878599762916
1761430037000950800,10.14395068359375,0.38397476742267606,-0.17113394424226133,-0.1056844802647829
1761430037020896300,10.163896240234376,0.5752993033111095,-0.19660912522785365,-0.10680281677022575
1761430037040840200,10.183840087890625,0.1735416264384985,0.0035723968603648243,-0.11459551647305488
1761430037060785400,10.203785400390625,-1.198411912676692,0.21090114208841695,-0.22761187399588523
1761430037080729300,10.223729248046874,-0.9171493317097424,0.17182853891029953,0.22480777636058627
1761430037100674000,10.243674072265625,0.18572014001011847,0.3993495928175747,0.126572369992733
1761430037120618200,10.2636181640625,0.7582119846850633,0.13146392316026612,-0.07235672261528671
1761430037140563200,10.283563232421875,0.3349561772316694,-0.2848003266390413,-0.11532236944288014
