time,seconds_elapsed,z,y,x
1761481465452180500,0.063180419921875,0.23373381793498993,1.0336036682128906,-2.2045528888702393
1761481465472123400,0.083123291015625,0.30380111932754517,-0.15410709381103516,-1.8190823793411255
1761481465492065500,0.1030654296875,0.4487766623497009,-0.5712460279464722,-1.2536749839782715
1761481465512008400,0.123008544921875,0.6766075491905212,0.06533569097518921,-0.9979642033576965
1761481465531951400,0.142951416015625,0.43314194679260254,0.6850877404212952,-1.2284444570541382
1761481465551893500,0.1628935546875,0.15195368230342865,0.6747214198112488,-1.1887731552124023
1761481465571836400,0.18283642578125,0.13437986373901367,0.613836407661438,-0.4214358627796173
1761481465591778600,0.202778564453125,0.17705920338630676,0.5957622528076172,0.8494521379470825
1761481465611721500,0.222721435546875,0.018897784873843193,0.49590322375297546,1.5106226205825806
1761481465631664600,0.24266455078125,-0.04203347861766815,0.21685606241226196,1.4348187446594238
1761481465651606300,0.262606201171875,0.13502193987369537,0.14903715252876282,0.9221160411834717
1761481465671549400,0.282549560546875,0.22632144391536713,-0.027651596814393997,0.6664873361587524
1761481465691492400,0.302492431640625,0.2599497437477112,0.24203509092330933,0.9683704376220703
1761481465711434200,0.322434326171875,0.05846613273024559,-0.29478317499160767,1.514929175376892
1761481465731377400,0.34237744140625,0.054411157965660095,-0.4913155734539032,1.585329294204712
1761481465751319300,0.3623193359375,-0.047582756727933884,-0.3826368451118469,1.1935877799987793
1761481465771262500,0.382262451171875,-0.38306254148483276,-0.5823554992675781,1.0477218627929688
1761481465791205400,0.402205322265625,-0.2756672203540802,-1.0310883522033691,1.4026693105697632
1761481465811147500,0.4221474609375,0.2718556523323059,-1.6846282482147217,1.4559099674224854
1761481465831090400,0.44209033203125,0.15781204402446747,-1.8733917474746704,0.8315214514732361
1761481465851032600,0.462032470703125,-0.9661266207695007,-0.7541136145591736,0.7539980411529541
1761481465870975500,0.4819755859375,-1.1700910329818726,-0.06979905068874359,0.8713734745979309
1761481465890918400,0.50191845703125,-0.5379393696784973,-0.07452330738306046,0.2636162042617798
1761481465910860300,0.5218603515625,-0.24604369699954987,0.5055663585662842,-0.43971559405326843
1761481465930803200,0.54180322265625,-0.38223686814308167,0.9533194303512573,-0.7338249087333679
1761481465950745300,0.561745361328125,-0.33112528920173645,0.24074941873550415,-0.17826581001281738
1761481465970688300,0.581688232421875,-0.1980106681585312,-0.8672758340835571,0.15445934236049652
1761481465990630400,0.60163037109375,0.13411560654640198,-0.9300436973571777,-0.5123233795166016
1761481466010573300,0.6215732421875,0.3547044098377228,-0.45282623171806335,-0.9654173851013184
1761481466030516500,0.6415166015625,0.36883285641670227,-0.6256716847419739,-1.0431249141693115
1761481466050458400,0.661458251953125,0.23384641110897064,-1.3083032369613647,-1.1477717161178589
1761481466070401500,0.681401611328125,0.5071631073951721,-1.4444764852523804,-1.5690293312072754
1761481466090343400,0.701343505859375,0.6221700310707092,-0.6034596562385559,-1.6996809244155884
1761481466110286600,0.72128662109375,0.17343181371688843,0.03755519911646843,-0.9942231178283691
1761481466130232000,0.741232177734375,0.18715789914131165,0.6528912782669067,0.05836247280240059
1761481466150174200,0.76117431640625,0.31967389583587646,0.737701416015625,0.6722003817558289
1761481466170117000,0.7811171875,0.32537296414375305,0.7330002188682556,0.6348760724067688
1761481466190059300,0.801059326171875,0.3990750014781952,1.1359076499938965,0.44940903782844543
1761481466210002200,0.821002197265625,0.058696068823337555,0.8837717175483704,0.39741331338882446
1761481466229945000,0.840945068359375,-0.1216900572180748,0.4496294856071472,0.47122785449028015
1761481466249887200,0.86088720703125,0.28230980038642883,0.7854809165000916,0.902435302734375
1761481466269830100,0.880830078125,0.2557007968425751,1.1073459386825562,1.422384262084961
1761481466289772000,0.90077197265625,-0.4040580093860626,0.972620964050293,1.8206043243408203
1761481466309715000,0.92071484375,-1.0640192031860352,0.7331787943840027,1.820266604423523
1761481466329658000,0.940658203125,-1.0496835708618164,0.9982804656028748,1.7196797132492065
1761481466349600000,0.96060009765625,-0.39675965905189514,0.47869089245796204,0.6755635142326355
1761481466369543200,0.980543212890625,0.37152883410453796,0.341664582490921,-0.7502620816230774
1761481466389485000,1.000485107421875,0.653468668460846,-0.38664862513542175,-1.0673742294311523
1761481466409428200,1.02042822265625,0.6175327897071838,-0.7181397676467896,-1.1343204975128174
1761481466429371100,1.04037109375,0.7247841358184814,0.18599003553390503,-2.1035101413726807
1761481466449313300,1.060313232421875,0.13484211266040802,0.6873530149459839,-2.315621852874756
1761481466469256200,1.080256103515625,-0.47782260179519653,-0.23016679286956787,-1.0960540771484375
1761481466489198000,1.100197998046875,-0.3215982913970947,-0.6254386901855469,0.47873273491859436
1761481466509141200,1.120141357421875,0.5788904428482056,-0.23993349075317383,0.7716285586357117
1761481466529083100,1.140083251953125,1.0512611865997314,-0.13316710293293,-0.1689460277557373
1761481466549026000,1.160026123046875,0.7078421115875244,-0.25654444098472595,-1.1413813829421997
1761481466568969000,1.179968994140625,0.17083197832107544,-0.10779853910207748,-1.5858961343765259
1761481466588911000,1.1999111328125,-0.03724474459886551,-0.1621723771095276,-1.5864694118499756
1761481466608854000,1.21985400390625,0.05440549924969673,-0.12519030272960663,-1.246445655822754
1761481466628796200,1.239796142578125,0.27828043699264526,-0.2645779252052307,-0.6974717378616333
1761481466648739000,1.259739013671875,0.24007916450500488,-0.46651506423950195,-0.054959893226623535
1761481466668682000,1.279681884765625,-0.3083896338939667,-0.1377187967300415,0.16089200973510742
1761481466688624000,1.2996240234375,-0.9067857265472412,0.28614506125450134,-0.081292524933815
1761481466708567000,1.319567138671875,-0.9316112399101257,0.19097813963890076,-0.322666198015213
1761481466728509200,1.33950927734375,-0.5341490507125854,-0.16166222095489502,-0.08365288376808167
1761481466748452000,1.3594521484375,-0.1345796138048172,-0.40988266468048096,0.41349130868911743
1761481466768395300,1.379395263671875,-0.037419818341732025,-0.581576943397522,0.8416702747344971
1761481466788337200,1.399337158203125,-0.2865329682826996,-0.5353810787200928,0.9778491854667664
1761481466808280300,1.4192802734375,-0.728266716003418,-0.37363865971565247,0.9361854791641235
1761481466828222000,1.439221923828125,-0.6554238796234131,0.12762446701526642,0.8618210554122925
1761481466848165000,1.4591650390625,-0.23192428052425385,0.37277981638908386,1.1600096225738525
1761481466868107000,1.47910693359375,0.1495158076286316,0.25565966963768005,1.6014500856399536
1761481466888050200,1.49905029296875,0.10428819060325623,-0.15923240780830383,1.6625771522521973
1761481466907993000,1.5189931640625,-0.3695499897003174,-1.4195657968521118,0.7564578652381897
1761481466927935200,1.538935302734375,-0.6414785385131836,-1.846592664718628,0.17179103195667267
1761481466947878100,1.558878173828125,-0.19418573379516602,-0.04968976601958275,0.5437779426574707
1761481466967820300,1.5788203125,0.06300249695777893,1.4265493154525757,0.12015949189662933
1761481466987763200,1.59876318359375,-0.4367152452468872,0.8298749327659607,-0.9262617230415344
1761481467007706000,1.6187060546875,-0.7215682864189148,-0.5035617351531982,-0.9363271594047546
1761481467027648300,1.638648193359375,-0.1866334229707718,-0.2045714110136032,-0.24701657891273499
1761481467047591200,1.658591064453125,0.6982664465904236,1.023728847503662,-0.09230348467826843
1761481467067533000,1.678532958984375,0.7634049654006958,1.2051750421524048,-0.35789960622787476
1761481467087476000,1.69847607421875,0.4077935814857483,0.339067280292511,-0.6427645087242126
1761481467107418000,1.718418212890625,0.2561686038970947,-0.5510766506195068,-0.7196949124336243
1761481467127359000,1.73835888671875,0.6133939623832703,-1.013010025024414,-0.5395058989524841
1761481467147302000,1.758302001953125,1.185217261314392,-0.8695833086967468,-0.4207860231399536
1761481467167244000,1.778244140625,1.2326922416687012,-0.4892454743385315,-0.2185286432504654
1761481467187187000,1.79818701171875,0.9395778179168701,-0.1100870668888092,-0.18400442600250244
1761481467207129000,1.818129150390625,0.2857027053833008,0.6659963726997375,-0.35460689663887024
1761481467227072000,1.838072021484375,-0.3548990786075592,1.0837315320968628,-0.30274590849876404
1761481467247014100,1.85801416015625,-0.47048497200012207,1.0828351974487305,-0.1035616546869278
1761481467266957000,1.87795703125,-0.1166326180100441,0.6415250301361084,0.05121760442852974
1761481467286900000,1.89789990234375,0.07204482704401016,0.26570412516593933,0.18751001358032227
1761481467306842000,1.917842041015625,-0.11295068264007568,0.351699560880661,0.19031468033790588
1761481467326785000,1.937784912109375,-0.45058971643447876,0.1576535552740097,0.14572849869728088
1761481467346727000,1.957726806640625,-0.5588709712028503,-0.03684321790933609,0.11138585954904556
1761481467366669800,1.977669921875,-0.2939348518848419,0.14306741952896118,0.2108510434627533
1761481467386613000,1.997613037109375,-0.09043920040130615,0.08917978405952454,0.4675394892692566
1761481467406555000,2.017554931640625,0.051018860191106796,-0.27175259590148926,0.8343955278396606
1761481467426498000,2.037498046875,0.20142115652561188,-0.9144896864891052,1.1481446027755737
1761481467446440000,2.05743994140625,0.1931990087032318,-1.3988524675369263,1.035312294960022
1761481467466383000,2.077383056640625,-0.1070203110575676,-0.8686428666114807,0.7248961925506592
1761481467486325000,2.097324951171875,-0.690988302230835,0.3468283712863922,0.6242835521697998
1761481467506268000,2.117267822265625,-0.76912522315979,1.0216000080108643,0.339606374502182
1761481467526211000,2.137211181640625,-0.21478109061717987,0.9864132404327393,0.17576326429843903
1761481467546153000,2.157153076171875,0.3156082332134247,0.13678407669067383,0.12720899283885956
1761481467566096100,2.17709619140625,0.30749472975730896,-0.5303180813789368,0.26283302903175354
1761481467586037800,2.197037841796875,0.2860046923160553,-0.04983225464820862,-0.0749407559633255
1761481467605981200,2.216981201171875,0.4595058858394623,0.6480278968811035,-0.6597651839256287
1761481467625922800,2.2369228515625,0.6950522065162659,0.3976525664329529,-0.84107506275177
1761481467645866000,2.256865966796875,0.5818185210227966,-0.27297985553741455,-0.7764379978179932
1761481467665809000,2.276808837890625,0.2447892278432846,-0.5245906710624695,-1.0847069025039673
1761481467685751000,2.2967509765625,-0.002416834235191345,-0.15132363140583038,-1.7000395059585571
1761481467705694000,2.31669384765625,0.05998518317937851,0.2621735632419586,-1.8742958307266235
1761481467725636000,2.336635986328125,0.5582398772239685,0.06699246168136597,-1.1586281061172485
1761481467745579000,2.3565791015625,0.7843220829963684,-0.4284042418003082,0.013615075498819351
1761481467765521200,2.376521240234375,0.3180784583091736,-0.6528685688972473,0.5491647124290466
1761481467785464000,2.396464111328125,-0.06709128618240356,-0.30435657501220703,0.13432297110557556
1761481467805407000,2.416406982421875,-0.1797187477350235,0.08237984776496887,-0.3278660774230957
1761481467825349000,2.43634912109375,-0.1298167109489441,0.015717564150691032,-0.2197386920452118
1761481467845292000,2.4562919921875,-0.21299214661121368,-0.3212672173976898,0.20400160551071167
1761481467865234000,2.47623388671875,-0.4336817264556885,-0.4368554353713989,0.4734148681163788
1761481467885176800,2.4961767578125,-0.7317572832107544,-0.29152992367744446,0.5888611078262329
1761481467905120000,2.5161201171875,-0.7963273525238037,0.03339667618274689,0.7359603047370911
1761481467925062000,2.536061767578125,-0.6617750525474548,0.3400050699710846,0.7741012573242188
1761481467945005000,2.556005126953125,-0.5043851733207703,0.5613826513290405,0.6623665690422058
1761481467964947000,2.575947021484375,-0.3822987675666809,0.3295796811580658,0.6427325010299683
1761481467984890000,2.59589013671875,-0.3628993630409241,-0.3158484995365143,0.9166344404220581
1761481468004832000,2.61583203125,-0.4049672484397888,-0.9306080341339111,0.7041848301887512
1761481468024775000,2.63577490234375,-0.633276641368866,0.015204627066850662,0.6233012676239014
1761481468044718000,2.655718017578125,-0.6900027394294739,1.3177987337112427,0.7026441693305969
1761481468064660000,2.675659912109375,-0.33448082208633423,1.353317141532898,0.2293144315481186
1761481468084603100,2.69560302734375,-0.10556970536708832,0.2624779939651489,-0.3931874930858612
1761481468104544800,2.715544677734375,-0.18851737678050995,-0.2610968351364136,-0.29044899344444275
1761481468124488000,2.735488037109375,0.08465244621038437,0.48038554191589355,0.0037773470394313335
1761481468144429300,2.75542919921875,0.6613790988922119,0.5977409482002258,-0.12113508582115173
1761481468164372200,2.775372314453125,0.9758110046386719,-0.07480611652135849,-0.023377550765872
1761481468184314000,2.795314208984375,0.9642188549041748,-0.5474477410316467,-0.08473033457994461
1761481468204257000,2.815257080078125,0.7500127553939819,-0.182392418384552,-0.5827261209487915
1761481468224200000,2.835199951171875,0.5592071413993835,0.4911166727542877,-0.9964768886566162
1761481468244142000,2.85514208984375,0.458719402551651,0.6236229538917542,-0.9891120791435242
1761481468264085000,2.8750849609375,0.2035675197839737,0.25543296337127686,-0.7290236949920654
1761481468284027100,2.895027099609375,-0.06779524683952332,0.032941631972789764,-0.30667349696159363
1761481468303970000,2.914969970703125,-0.32878586649894714,0.1905035823583603,-0.10831108689308167
1761481468323913200,2.934913330078125,-0.517298698425293,0.5666666626930237,-0.22659359872341156
1761481468343855000,2.954855224609375,-0.6080882549285889,0.7052160501480103,-0.4557829797267914
1761481468363798000,2.974798095703125,-0.6365193128585815,0.5071431398391724,-0.6153174042701721
1761481468383740200,2.994740234375,-0.6397234797477722,0.034530311822891235,-0.5505355596542358
1761481468403683000,3.01468310546875,-0.5606170296669006,-0.29087167978286743,-0.10725884884595871
1761481468423625200,3.034625244140625,-0.5811553001403809,-0.1779358834028244,0.4284124970436096
1761481468443568000,3.054568115234375,-0.5416820645332336,0.22777771949768066,0.595064640045166
1761481468463511300,3.07451123046875,-0.2605665922164917,0.5007419586181641,0.6827600002288818
1761481468483453000,3.094452880859375,0.150390163064003,0.2898794412612915,1.156137466430664
1761481468503396000,3.11439599609375,0.3727794587612152,-0.28592148423194885,1.4471732378005981
1761481468523338000,3.134337890625,0.16407598555088043,-0.7219346761703491,0.9942033290863037
1761481468543281200,3.15428125,-0.6311931014060974,-0.634339451789856,0.3138790428638458
1761481468563223000,3.17422314453125,-1.0450670719146729,-0.032150715589523315,0.2613557279109955
1761481468583166200,3.194166259765625,-0.3907230496406555,0.3307085335254669,0.30415859818458557
1761481468603108000,3.214108154296875,0.2352416068315506,-0.14390386641025543,-0.08049171417951584
1761481468623051300,3.23405126953125,0.4238232970237732,-0.6563126444816589,-0.313821405172348
1761481468642994200,3.253994140625,0.1812567412853241,-0.42398250102996826,-0.16568385064601898
1761481468662936300,3.273936279296875,0.3977208137512207,0.4558628797531128,-0.06844683736562729
1761481468682879200,3.293879150390625,1.0052094459533691,0.5758994221687317,-0.3303324282169342
1761481468702821000,3.313821044921875,1.097601294517517,0.07520505040884018,-0.18765462934970856
1761481468722764000,3.333763916015625,0.6613218188285828,-0.5225429534912109,-0.15599267184734344
1761481468742706200,3.3537060546875,0.14826831221580505,-0.5511716604232788,-0.5799902677536011
1761481468762649000,3.373649169921875,-0.015424361452460289,0.09168689697980881,-1.2066140174865723
1761481468782592000,3.393592041015625,0.004466937854886055,0.5517809987068176,-1.3030651807785034
1761481468802534100,3.4135341796875,0.11637386679649353,0.5428312420845032,-0.7724219560623169
1761481468822477000,3.43347705078125,0.07418104261159897,0.1782730221748352,-0.09058322012424469
1761481468842419200,3.453419189453125,-0.07595141232013702,-0.2624049782752991,0.36375677585601807
1761481468862362000,3.473362060546875,-0.032171811908483505,-0.2458588182926178,0.48374730348587036
1761481468882304300,3.49330419921875,0.10386138409376144,0.11184215545654297,0.307435542345047
1761481468902247200,3.5132470703125,0.09542227536439896,0.2016701102256775,0.05784011632204056
1761481468922190000,3.533190185546875,-0.06426200270652771,0.14402343332767487,0.04022790864109993
1761481468942132200,3.55313232421875,-0.3382611870765686,-0.055074047297239304,0.2495826780796051
1761481468962075100,3.5730751953125,-0.4100067913532257,-0.3528102934360504,0.43716058135032654
1761481468982017000,3.59301708984375,-0.10378747433423996,-0.14221541583538055,0.49356934428215027
1761481469001960000,3.6129599609375,0.07558644562959671,0.46074119210243225,0.5187249779701233
1761481469021902000,3.632902099609375,-0.08863585442304611,0.3882529139518738,0.34692680835723877
1761481469041845000,3.652844970703125,-0.14801380038261414,-0.3704895079135895,0.6000181436538696
1761481469061788200,3.6727880859375,-0.092100128531456,-1.023069977760315,0.8087556958198547
1761481469081730000,3.69272998046875,-0.3571271300315857,-0.5297373533248901,0.2983710467815399
1761481469101673200,3.712673095703125,-0.8661708235740662,0.9553508758544922,-0.34958285093307495
1761481469121615000,3.732614990234375,-0.6204997897148132,1.528733730316162,-0.6751834154129028
1761481469141558000,3.75255810546875,0.08130849897861481,0.5044502019882202,-0.7071364521980286
1761481469161500000,3.7725,0.3194497525691986,-0.32953062653541565,-0.4638967216014862
1761481469181443000,3.792443115234375,0.3295995593070984,0.19558623433113098,-0.11996202915906906
1761481469201385000,3.812385009765625,0.8632137179374695,1.1000252962112427,-0.19230401515960693
1761481469221328100,3.832328125,1.077890396118164,1.0686910152435303,-0.4769945442676544
1761481469241271000,3.85227099609375,0.6560405492782593,-0.07265561074018478,-0.5103469491004944
1761481469261213200,3.872213134765625,0.13651584088802338,-0.9032974243164062,-0.36018210649490356
1761481469281156000,3.892156005859375,-0.016724368557333946,-0.47350460290908813,-0.416812539100647
1761481469301098000,3.912097900390625,-0.02668629214167595,0.47492605447769165,-0.6462875604629517
1761481469321041200,3.932041259765625,-0.259996235370636,0.766011118888855,-0.547620952129364
1761481469340983000,3.951983154296875,-0.34866511821746826,0.5619649291038513,-0.07535310834646225
1761481469360926000,3.971926025390625,-0.24052509665489197,0.4019837975502014,0.3813590407371521
1761481469380867800,3.991867919921875,-0.1160271167755127,0.2567889094352722,0.6197134256362915
1761481469400811000,4.01181103515625,-0.0868612602353096,-0.05764399841427803,0.5015976428985596
1761481469420754000,4.03175390625,-0.08854550868272781,-0.5026035904884338,0.1556692123413086
1761481469440696000,4.051696044921875,-0.05327097699046135,-0.6505528688430786,0.12497738003730774
1761481469460639000,4.071638916015625,-0.03699331730604172,-0.43272191286087036,0.2564604580402374
1761481469480581000,4.0915810546875,-0.05863182619214058,-0.08796389400959015,0.3420883119106293
1761481469500524000,4.11152392578125,-0.13803178071975708,-0.0193037036806345,0.4369431436061859
1761481469520466200,4.131466064453125,-0.2870868444442749,-0.23986634612083435,0.6736707091331482
1761481469540409000,4.1514091796875,-0.19539736211299896,-0.3098360002040863,1.055847406387329
1761481469560352000,4.17135205078125,0.29488399624824524,0.07785624265670776,1.1563016176223755
1761481469580294000,4.1912939453125,0.6069754362106323,0.25625795125961304,0.7436752915382385
1761481469600236800,4.21123681640625,-0.2593536674976349,-0.6027789115905762,0.3331482410430908
1761481469620179000,4.231178955078125,-1.1206918954849243,-1.1534364223480225,0.5869755744934082
1761481469640121900,4.251121826171875,-0.5674372911453247,-0.41934722661972046,0.8069738149642944
1761481469660064000,4.27106396484375,0.48522379994392395,0.7881896495819092,0.6360019445419312
1761481469680007000,4.2910068359375,0.81706303358078,1.0549787282943726,0.015350895933806896
1761481469699949000,4.310948974609375,0.46040642261505127,0.2874643802642822,-0.6414975523948669
1761481469719892000,4.33089208984375,0.14839106798171997,-0.5532416105270386,-0.7307417988777161
1761481469739835100,4.350835205078125,0.41241538524627686,-0.6660499572753906,-0.7728906869888306
1761481469759777000,4.370777099609375,0.7075212001800537,-0.4551331102848053,-0.9158586263656616
1761481469779720200,4.39072021484375,0.3278316259384155,-0.13351744413375854,-1.2687182426452637
1761481469799661800,4.410661865234375,-0.16467203199863434,0.2006889432668686,-1.6172773838043213
1761481469819605000,4.43060498046875,-0.04472709819674492,-0.14408761262893677,-1.7090344429016113
1761481469839547000,4.450546875,0.5495456457138062,-0.5249400734901428,-1.375580906867981
1761481469859489800,4.47048974609375,0.7039433121681213,-0.5393229126930237,-0.831159770488739
1761481469879432000,4.490431884765625,0.3125160336494446,-0.13782155513763428,-0.3368804156780243
1761481469899374800,4.510374755859375,0.011847677640616894,0.06701360642910004,0.07216773182153702
1761481469919318000,4.530318115234375,-0.05427378788590431,-0.12773162126541138,0.48906341195106506
1761481469939260000,4.550260009765625,0.08742688596248627,-0.25782278180122375,0.5904736518859863
1761481469959203000,4.570203125,0.17136292159557343,-0.13922664523124695,0.27206894755363464
1761481469979145000,4.59014501953125,-0.033614516258239746,0.03175487369298935,-0.04516484588384628
1761481469999088000,4.610088134765625,-0.3115437626838684,-0.014926188625395298,-0.03683603182435036
1761481470019030000,4.630030029296875,-0.364224910736084,-0.08962702751159668,0.28683486580848694
1761481470038973200,4.64997314453125,-0.25342515110969543,-0.20808187127113342,0.6037671566009521
1761481470058914800,4.669914794921875,-0.20366182923316956,-0.23248431086540222,0.8506323099136353
1761481470078858000,4.68985791015625,-0.11605272442102432,-0.2539674937725067,1.0863319635391235
1761481470098801000,4.70980078125,0.0735173225402832,-0.11327467113733292,1.4269689321517944
1761481470118743000,4.729742919921875,-0.050809696316719055,0.2551387846469879,1.2304577827453613
1761481470138686500,4.7496865234375,-0.7198247909545898,-0.35982248187065125,0.35533607006073
1761481470158628400,4.76962841796875,-0.6856940984725952,-1.3988591432571411,-0.22335560619831085
1761481470178571500,4.789571533203125,-0.0695992037653923,-0.9219553470611572,-0.23570002615451813
1761481470198513400,4.809513427734375,0.2869727313518524,0.6988431215286255,-0.39994633197784424
1761481470218456600,4.82945654296875,-0.16328109800815582,1.5588493347167969,-0.18771028518676758
1761481470238398200,4.849398193359375,-0.3221428394317627,0.7860651016235352,-0.07984696328639984
1761481470258341400,4.86934130859375,0.20040622353553772,-0.13452917337417603,-0.17839133739471436
1761481470278284300,4.8892841796875,0.8922850489616394,-0.26029685139656067,-0.36387425661087036
1761481470298226400,4.909226318359375,0.9998986721038818,-0.07863198220729828,-0.25935012102127075
1761481470318169300,4.92916943359375,0.7136325836181641,0.25686177611351013,-0.003469476941972971
1761481470338111500,4.949111572265625,0.46414780616760254,0.36238837242126465,-0.059055279940366745
1761481470358054400,4.969054443359375,0.2717479467391968,0.47639936208724976,-0.6465830206871033
1761481470377996500,4.98899658203125,0.21769605576992035,0.41893669962882996,-1.5189162492752075
1761481470397939500,5.008939453125,0.23325587809085846,0.1261957287788391,-2.105067014694214
1761481470417881600,5.028881591796875,0.1630840003490448,0.20784610509872437,-2.0220887660980225
1761481470437824500,5.048824462890625,-0.12597614526748657,0.877158522605896,-1.2567542791366577
1761481470457766400,5.068766357421875,-0.3483339846134186,1.0658001899719238,-0.034876883029937744
1761481470477709300,5.088709228515625,-0.24288246035575867,0.8608185648918152,0.8523512482643127
1761481470497652200,5.10865234375,-0.0626988559961319,0.6685531735420227,0.8980246782302856
1761481470517594400,5.128594482421875,-0.1571071445941925,0.1223430335521698,-0.04804413020610809
1761481470537537300,5.148537353515625,-0.2747647762298584,0.2428540587425232,-0.21718868613243103
1761481470557479400,5.1684794921875,-0.3054240942001343,0.10862960666418076,0.31938958168029785
1761481470577422300,5.18842236328125,-0.020623205229640007,0.028737256303429604,1.2127439975738525
1761481470597364500,5.208364501953125,0.2836358845233917,-0.0449066162109375,1.6554917097091675
1761481470617307400,5.228307373046875,0.19230258464813232,-0.5944289565086365,1.5217612981796265
1761481470637000400,5.24800048828125,-0.05759751796722412,-1.1894121170043945,1.2318522930145264
1761481470657193500,5.268193359375,-0.15979823470115662,-0.976193904876709,0.8198791742324829
1761481470677136400,5.288136474609375,-0.4180230498313904,-0.6086153984069824,0.15352477133274078
1761481470697078500,5.30807861328125,-0.856266438961029,-0.2745840847492218,-0.15168114006519318
1761481470717021400,5.328021484375,-0.5188424587249756,0.35299521684646606,0.6145406365394592
1761481470736963600,5.347963623046875,0.2921876907348633,0.903069257736206,1.5557913780212402
1761481470756906500,5.367906494140625,0.7257403135299683,0.8518386483192444,1.5306113958358765
1761481470776848400,5.387848388671875,0.7598276138305664,0.12172339111566544,0.7374807596206665
1761481470796791300,5.407791259765625,0.48085978627204895,-0.3749171793460846,-0.1749998778104782
1761481470816734200,5.427734130859375,0.1517970710992813,-0.5794118642807007,-0.7773703932762146
1761481470836676400,5.44767626953125,-0.02645227499306202,-0.09940411150455475,-0.9009420871734619
1761481470856619300,5.467619384765625,-0.030090102925896645,0.22806110978126526,-0.7761371731758118
1761481470876561400,5.4875615234375,-0.00975139532238245,0.16631412506103516,-1.0659053325653076
1761481470896504300,5.50750439453125,-0.17088204622268677,-0.15838158130645752,-1.576786994934082
1761481470916446500,5.527446533203125,-0.15752847492694855,-0.6092483401298523,-1.5546046495437622
1761481470936389400,5.547389404296875,0.1015675961971283,-0.7967696189880371,-1.0270469188690186
1761481470956331500,5.56733154296875,0.2884025573730469,-0.14404632151126862,-0.2318132519721985
1761481470976274400,5.5872744140625,0.025392215698957443,0.5766487121582031,0.45407482981681824
1761481470996216300,5.60721630859375,-0.3472473621368408,0.4728052616119385,0.5157621502876282
1761481471016159200,5.6271591796875,-0.4805244207382202,0.018491363152861595,0.24071486294269562
1761481471036102400,5.647102294921875,-0.4152037501335144,-0.16031335294246674,0.015254770405590534
1761481471056044300,5.667044189453125,-0.2550649344921112,-0.027148988097906113,0.07581031322479248
1761481471075987500,5.686987548828125,-0.15462420880794525,0.10362134873867035,0.32354578375816345
1761481471095929300,5.706929443359375,-0.2681270241737366,-0.08442160487174988,0.4777953326702118
1761481471115872300,5.726872314453125,-0.42740580439567566,-0.547052800655365,0.5264543294906616
1761481471135815000,5.74681494140625,-0.367350310087204,-0.6164678931236267,0.48149967193603516
1761481471155757800,5.7667578125,-0.12816724181175232,-0.1210792139172554,0.5306087136268616
1761481471175700000,5.786699951171875,0.20434875786304474,0.21880406141281128,0.5597215890884399
1761481471195643000,5.806642822265625,0.8380708694458008,-0.5019322037696838,0.5988360047340393
1761481471215584800,5.826584716796875,1.092803716659546,-1.6659276485443115,0.0755777657032013
1761481471235527700,5.846527587890625,0.12737809121608734,-1.0047539472579956,-0.15313905477523804
1761481471255470800,5.866470947265625,-0.7123581171035767,0.24963563680648804,0.2919479012489319
1761481471275412700,5.886412841796875,-0.3620540201663971,0.673036515712738,0.18086105585098267
1761481471295356000,5.90635595703125,0.37973013520240784,-0.01809229701757431,-0.8145907521247864
1761481471315297800,5.9262978515625,0.6970051527023315,-0.6937685012817383,-0.8024746775627136
1761481471335241000,5.946240966796875,0.6907886266708374,-0.7431866526603699,-0.04244726151227951
1761481471355182800,5.966182861328125,0.3072488307952881,-0.12249034643173218,0.09246956557035446
1761481471375125800,5.986125732421875,-0.13282224535942078,0.695950448513031,-0.3869069516658783
1761481471395068000,6.00606787109375,-0.35241031646728516,0.9073904752731323,-0.9373851418495178
1761481471415010800,6.0260107421875,-0.21884149312973022,0.3095094561576843,-1.2141622304916382
1761481471434953000,6.045952880859375,0.12435682862997055,-0.2862846851348877,-1.0761597156524658
1761481471454895900,6.065895751953125,0.26751136779785156,-0.4229162931442261,-0.8686336874961853
1761481471474837800,6.085837646484375,0.09313936531543732,0.21199771761894226,-0.7308678030967712
1761481471494780700,6.10578076171875,-0.28794577717781067,1.0217150449752808,-0.3758994936943054
1761481471514723800,6.125723876953125,-0.47059687972068787,1.2421550750732422,-0.029203597456216812
1761481471534665700,6.145665771484375,-0.28904518485069275,0.5246419906616211,0.35306835174560547
1761481471554609000,6.16560888671875,0.15704531967639923,-0.2430412471294403,0.4996601939201355
1761481471574550800,6.18555078125,0.36799395084381104,-0.2297099381685257,0.2899813652038574
1761481471594494000,6.205493896484375,0.09611431509256363,0.16939008235931396,0.16705815494060516
1761481471614435800,6.225435791015625,-0.4447876513004303,-0.031117809936404228,0.23258733749389648
1761481471634379000,6.24537890625,-0.7484528422355652,-0.3205335736274719,0.5282156467437744
1761481471654321000,6.26532080078125,-0.5624337196350098,-0.3608958125114441,0.7780902981758118
1761481471674264000,6.28526416015625,-0.450111448764801,-0.15490393340587616,0.7950279712677002
1761481471694205700,6.305205810546875,-0.4355773329734802,-0.05752403289079666,0.7847601771354675
1761481471714148900,6.32514892578125,-0.5624138712882996,-0.2633688151836395,1.1025608777999878
1761481471734091800,6.345091796875,-0.6285052299499512,-0.25628238916397095,1.2670247554779053
1761481471754034000,6.365033935546875,-0.7070762515068054,-0.6786084771156311,0.5696388483047485
1761481471773976800,6.384976806640625,-0.4789414405822754,-0.6073203682899475,0.04119495302438736
1761481471793919000,6.4049189453125,0.0007173291523940861,0.14417323470115662,0.07249787449836731
1761481471813862000,6.42486181640625,0.3041313886642456,0.4451657235622406,0.10313232243061066
1761481471833803800,6.4448037109375,0.6624370813369751,-0.07301492244005203,-0.25981026887893677
1761481471853747000,6.464746826171875,1.0433851480484009,-0.18252970278263092,-0.638170599937439
1761481471873688800,6.484688720703125,1.0861514806747437,0.046227484941482544,-0.47818297147750854
1761481471893632000,6.504632080078125,0.8795366883277893,-0.27894848585128784,-0.29873329401016235
1761481471913574000,6.524573974609375,0.7389203906059265,-0.14064253866672516,-0.5088560581207275
1761481471933517000,6.54451708984375,0.5419845581054688,0.5178263783454895,-0.8610329031944275
1761481471953458700,6.564458740234375,0.3127894401550293,0.5834560394287109,-1.0145344734191895
1761481471973401900,6.58440185546875,0.11673688888549805,-0.3075586259365082,-0.8733441233634949
1761481471993343700,6.60434375,0.04339497536420822,-0.9262635111808777,-0.6436139345169067
1761481472013287000,6.624286865234375,0.00012589714606292546,-0.8866593837738037,-0.4635227620601654
1761481472033229800,6.644229736328125,0.06675727665424347,-0.1870495229959488,-0.2736082971096039
1761481472053172000,6.664171875,0.03305434435606003,0.3563261330127716,-0.07726301997900009
1761481472073115000,6.684114990234375,-0.12202536314725876,0.3177158236503601,0.027498241513967514
1761481472093057000,6.70405712890625,-0.22062081098556519,0.23976588249206543,0.18080414831638336
1761481472113000000,6.724,-0.2016473263502121,0.28658708930015564,0.27794453501701355
1761481472132940800,6.74394091796875,-0.04536377638578415,0.3811115622520447,0.2892962694168091
1761481472152883700,6.7638837890625,-0.056428853422403336,0.41309285163879395,0.1458175778388977
1761481472172825900,6.783825927734375,-0.22493499517440796,0.04316962882876396,-0.12070532888174057
1761481472192768800,6.803768798828125,-0.36484143137931824,-0.5634329915046692,0.04755176603794098
1761481472212711000,6.8237109375,-0.3642495572566986,-0.7813451290130615,0.649160623550415
1761481472232653800,6.84365380859375,-0.19833317399024963,-0.3070319592952728,1.315158724784851
1761481472252596000,6.863595947265625,-0.08854065090417862,0.07907138019800186,1.353764533996582
1761481472272539000,6.883538818359375,-0.14458590745925903,-0.34684860706329346,0.6322526931762695
1761481472292481800,6.903481689453125,-0.4944436550140381,-1.119791030883789,-0.023696905001997948
1761481472312424000,6.923423828125,-1.0557372570037842,-1.1359193325042725,-0.4219580590724945
1761481472332366800,6.943366943359375,-1.4092633724212646,-0.1440313160419464,0.030042335391044617
1761481472352308700,6.963308837890625,-1.0665727853775024,1.4876271486282349,0.6446234583854675
1761481472372251600,6.983251708984375,-0.45849642157554626,1.6254196166992188,0.24637854099273682
1761481472392193800,7.00319384765625,0.07590725272893906,0.10992898046970367,-0.7607111930847168
1761481472412136700,7.02313671875,0.5679752230644226,-0.9829330444335938,-1.1527202129364014
1761481472432078800,7.043078857421875,1.19868004322052,-0.7306121587753296,-0.8661965131759644
1761481472452021800,7.063021728515625,1.3719651699066162,-0.005302355624735355,-0.3213263154029846
1761481472471964000,7.0829638671875,0.7016897201538086,0.6303321123123169,0.1734934151172638
1761481472491906800,7.10290673828125,-0.057767972350120544,0.44369885325431824,-0.10215079039335251
1761481472511849000,7.122848876953125,-0.21295265853405,0.06100457161664963,-0.9331270456314087
1761481472531792000,7.1427919921875,0.13112092018127441,-0.15397749841213226,-1.466746211051941
1761481472551734000,7.162734130859375,0.294634610414505,-0.3274034261703491,-0.8298632502555847
1761481472571677000,7.182677001953125,0.04100854694843292,-0.049227554351091385,0.3601684272289276
1761481472591618800,7.202618896484375,-0.42668935656547546,0.46114468574523926,0.6715219020843506
1761481472611561700,7.222561767578125,-0.6587356925010681,0.7958301305770874,0.3385782837867737
1761481472631505000,7.2425048828125,-0.3347106873989105,0.9812414646148682,0.114591583609581
1761481472651446800,7.26244677734375,0.08027440309524536,0.7569970488548279,0.24272555112838745
1761481472671389700,7.2823896484375,0.2639119625091553,0.32888317108154297,0.6298812031745911
1761481472691331800,7.302331787109375,0.07925485819578171,-0.11787445098161697,0.8287593126296997
1761481472711274800,7.322274658203125,-0.3046371340751648,-0.13839375972747803,0.6734477877616882
1761481472731217000,7.342216796875,-0.3834381103515625,0.1833212524652481,0.4886263310909271
1761481472751159800,7.362159912109375,-0.25174984335899353,0.2830751836299896,0.5218342542648315
1761481472771102000,7.38210205078125,-0.10505320876836777,0.09115049988031387,0.5895258188247681
1761481472791044900,7.402044921875,0.04872233420610428,-0.3862336277961731,0.6525300741195679
1761481472810986800,7.42198681640625,0.17804038524627686,-0.2405867874622345,0.8975133299827576
1761481472830929700,7.4419296875,-0.02096124365925789,-0.222324937582016,0.6671305298805237
1761481472850871800,7.461871826171875,-0.2774106562137604,-0.8123577833175659,-0.414669007062912
1761481472870814700,7.481814697265625,-0.22357206046581268,-0.8721283674240112,-1.111457109451294
1761481472890756900,7.5017568359375,-0.040218569338321686,0.023778218775987625,-0.7472653388977051
1761481472910699800,7.52169970703125,-0.26937782764434814,0.47713032364845276,0.15653865039348602
1761481472930643000,7.541642822265625,-0.4934813678264618,0.21010378003120422,0.5827845931053162
1761481472950584800,7.561584716796875,-0.1968344748020172,-0.02412114478647709,0.07703925669193268
1761481472970528000,7.581528076171875,0.18219204246997833,0.19932827353477478,-0.7642735242843628
1761481472990470000,7.601469970703125,0.401385098695755,0.42061078548431396,-1.287329077720642
1761481473010413000,7.6214130859375,0.5473724007606506,-0.12329317629337311,-1.6091347932815552
1761481473030355000,7.64135498046875,0.7082802653312683,-0.9923184514045715,-1.7784968614578247
1761481473050297900,7.6612978515625,0.6895855665206909,-1.3581758737564087,-1.2407780885696411
1761481473070239700,7.68123974609375,0.41472750902175903,-1.3029375076293945,-0.3681049942970276
1761481473090182700,7.7011826171875,0.08754845708608627,-0.8029649257659912,0.2272554188966751
1761481473110124800,7.721124755859375,-0.05121752247214317,-0.12655377388000488,0.17930541932582855
1761481473130068500,7.741068359375,-0.009728296659886837,0.7130770683288574,-0.22575387358665466
1761481473150010600,7.7610107421875,-0.08666222542524338,1.498914122581482,-0.558708906173706
1761481473169953500,7.78095361328125,-0.3801805377006531,1.6414128541946411,-0.5842221975326538
1761481473189895700,7.800895751953125,-0.6038023829460144,1.063806414604187,-0.20689761638641357
1761481473209838600,7.820838623046875,-0.364055871963501,0.4375074803829193,0.19299273192882538
1761481473229780700,7.84078076171875,-0.11661798506975174,0.33503034710884094,0.4152187705039978
1761481473249723600,7.8607236328125,-0.39037641882896423,0.6986523270606995,0.5016257166862488
1761481473269665800,7.880665771484375,-1.0305558443069458,0.4602850377559662,0.35609784722328186
1761481473289608700,7.900608642578125,-1.1012938022613525,-0.43826138973236084,0.1403876096010208
1761481473309550600,7.920550537109375,-0.5416348576545715,-0.806361973285675,0.1275673806667328
1761481473329493500,7.940493408203125,0.14081162214279175,-0.31826967000961304,0.46935203671455383
1761481473349436400,7.9604365234375,0.4483517110347748,0.3938484191894531,1.2192978858947754
1761481473369378600,7.980378662109375,0.13192492723464966,-0.009137758053839207,1.4810644388198853
1761481473389321500,8.000321533203126,-0.0778399109840393,-0.815887451171875,0.8513709306716919
1761481473409263600,8.020263671875,-0.1928412914276123,-1.1558974981307983,0.20514747500419617
1761481473429206500,8.04020654296875,0.01868291385471821,-0.7323160171508789,0.4644283950328827
1761481473449148700,8.060148681640625,0.1251925379037857,-0.24422739446163177,0.9573280215263367
1761481473469091600,8.080091552734375,-0.025926118716597557,0.2721160054206848,1.0415408611297607
1761481473489033700,8.10003369140625,-0.37724539637565613,0.07969679683446884,0.7063307166099548
1761481473508976600,8.1199765625,-0.1592305600643158,-0.4630104899406433,0.045120857656002045
1761481473528918500,8.13991845703125,0.4754813611507416,-1.0874075889587402,-0.6681941151618958
1761481473548861400,8.159861328125,0.7467018365859985,-1.5344438552856445,-1.03365957736969
1761481473568803600,8.179803466796875,0.5192372798919678,-1.2832164764404297,-0.84185391664505
1761481473588746500,8.19974658203125,0.11905801296234131,-0.8090057373046875,-0.6030338406562805
1761481473608688600,8.219688720703125,0.2787867486476898,-0.3320869505405426,-0.6396024823188782
1761481473628631600,8.239631591796876,0.6913853883743286,0.22025761008262634,-0.8987342119216919
1761481473648573700,8.25957373046875,0.7854659557342529,0.48591405153274536,-0.8246370553970337
1761481473668516600,8.2795166015625,0.5471989512443542,0.2512229084968567,-0.48381420969963074
1761481473688458800,8.299458740234375,-0.044595252722501755,-0.10686519742012024,-0.25555023550987244
1761481473708401700,8.319401611328125,-0.299333393573761,0.22438882291316986,0.06961722671985626
1761481473728343800,8.33934375,-0.1899658739566803,0.3707352876663208,0.5080956816673279
1761481473748286700,8.35928662109375,-0.052167702466249466,0.3582356870174408,0.8687877058982849
1761481473768229600,8.379229736328124,-0.025673456490039825,0.23190896213054657,0.867384135723114
1761481473788171500,8.399171630859374,-0.024047469720244408,-0.07148172706365585,0.726112961769104
1761481473808114400,8.419114501953125,0.063649982213974,-0.3586174547672272,0.713801383972168
1761481473828056600,8.439056640625,-0.07560243457555771,-0.4718697965145111,0.8103501200675964
1761481473847999500,8.45899951171875,-0.49619027972221375,-0.2593958377838135,0.7877424359321594
1761481473867941600,8.478941650390626,-0.6850650310516357,0.0017840703949332237,0.7940884232521057
1761481473887884500,8.498884521484374,-0.4276169538497925,0.1590728461742401,1.1413573026657104
1761481473907826700,8.51882666015625,-0.13105042278766632,-0.10311181098222733,1.629603385925293
1761481473927769600,8.53876953125,-0.3537043333053589,-0.19595395028591156,1.4781478643417358
1761481473947711700,8.558711669921875,-0.8626950979232788,-0.8709911704063416,0.612492024898529
1761481473967654700,8.578654541015625,-0.586810290813446,-0.7172249555587769,-0.0044073802419006824
1761481473987596500,8.598596435546876,0.049161896109580994,0.4603572487831116,-0.27994486689567566
1761481474007539500,8.61853955078125,0.1506451517343521,1.355362892150879,-0.2896442711353302
1761481474027481600,8.638481689453124,-0.08334025740623474,1.027171015739441,-0.03527040407061577
1761481474047424500,8.658424560546875,-0.1985749751329422,-0.3722245991230011,-0.008923018351197243
1761481474067366700,8.67836669921875,0.12212132662534714,-0.6098949313163757,-0.7152131795883179
1761481474087309600,8.6983095703125,0.43270137906074524,-0.4905189275741577,-1.57650625705719
1761481474107251700,8.718251708984376,0.4938298761844635,-0.47539183497428894,-1.7672611474990845
1761481474127194600,8.738194580078124,0.3153109848499298,-0.3664548695087433,-1.5250686407089233
1761481474147136300,8.75813623046875,0.021275999024510384,-0.3064340651035309,-1.5261794328689575
1761481474167079200,8.7780791015625,0.09031641483306885,-0.3366830050945282,-1.313851237297058
1761481474187021300,8.798021240234375,0.40333637595176697,-0.4285898804664612,-0.6455928087234497
1761481474206964200,8.817964111328125,0.570557713508606,-0.8818681240081787,0.13361549377441406
1761481474226906400,8.83790625,0.6062939763069153,-0.8386176824569702,0.5688489079475403
1761481474246849300,8.857849365234374,0.1592799425125122,-0.04374329373240471,0.3311651051044464
1761481474266791400,8.87779150390625,-0.3975880742073059,0.5437219142913818,-0.09219489991664886
1761481474286734300,8.897734375,-0.3973892331123352,1.1043862104415894,-0.04049180448055267
1761481474306676200,8.91767626953125,0.003259600605815649,0.940092921257019,0.43681949377059937
1761481474326619100,8.937619140625,0.11711085587739944,0.34779855608940125,0.8918018937110901
1761481474346561300,8.957561279296876,-0.16883710026741028,0.21684932708740234,0.9905649423599243
1761481474366504200,8.977504150390626,-0.3104361891746521,0.25589123368263245,0.7197866439819336
1761481474386447000,8.997447021484374,-0.25065720081329346,0.3918803632259369,0.22055988013744354
1761481474406389200,9.01738916015625,-0.06834486871957779,0.5690916180610657,0.29259824752807617
1761481474426332200,9.037332275390625,0.08016588538885117,0.8419698476791382,0.9075836539268494
1761481474446274300,9.0572744140625,-0.13252082467079163,0.4293896555900574,1.562842607498169
1761481474466217200,9.07721728515625,-0.24856743216514587,-0.38095635175704956,1.587003469467163
1761481474486159400,9.097159423828124,0.019641520455479622,-1.32085120677948,1.0068535804748535
1761481474506102300,9.117102294921875,0.36454248428344727,-0.8383262753486633,0.29461780190467834
1761481474526044200,9.137044189453125,0.1799735426902771,-0.5248266458511353,-0.02009754441678524
1761481474545987000,9.156987060546875,-0.3274979591369629,-0.09080234169960022,0.11900362372398376
1761481474565929200,9.17692919921875,-0.24170354008674622,1.276604175567627,0.7668435573577881
1761481474585870300,9.196870361328125,-0.2036573886871338,1.5581562519073486,0.7171677947044373
1761481474605813200,9.216813232421876,-0.1612870991230011,0.630565881729126,0.09571753442287445
1761481474625755400,9.23675537109375,0.3335433602333069,-0.014592334628105164,-0.5129363536834717
1761481474645698300,9.2566982421875,0.7009566426277161,0.11116206645965576,-0.7142561078071594
1761481474665641200,9.27664111328125,0.3321441411972046,0.6221925616264343,-0.6560086607933044
1761481474685583400,9.296583251953125,-0.3745931386947632,0.8574367761611938,-0.8575899004936218
1761481474705526300,9.3165263671875,-0.5469353795051575,0.19615575671195984,-1.2346270084381104
1761481474725468200,9.33646826171875,-0.04972277581691742,-0.10948678106069565,-1.807336449623108
1761481474745411000,9.3564111328125,0.08230434358119965,-0.20605362951755524,-2.2316842079162598
1761481474765353200,9.376353271484374,-0.19357293844223022,-0.7368372678756714,-2.133147954940796
1761481474785296100,9.396296142578125,-0.48692381381988525,-1.263767123222351,-1.378565788269043
