time,seconds_elapsed,z,y,x
1761505945308764000,0.080763916015625,-0.029705746099352837,0.02525433525443077,0.03868485614657402
1761505945328919800,0.100919921875,0.009891527704894543,0.004609932191669941,0.04621713608503342
1761505945349076000,0.121075927734375,0.035255976021289825,0.00940313097089529,0.02796805091202259
1761505945369232000,0.14123193359375,0.05549910292029381,0.05319618806242943,0.0019994769245386124
1761505945389388000,0.161387939453125,0.05826054885983467,0.10178294032812119,-0.01013493537902832
1761505945409544000,0.1815439453125,0.03715778514742851,0.11842160671949387,-0.007586169987916946
1761505945429699800,0.201699951171875,0.02854960411787033,0.14349623024463654,-0.001195959746837616
1761505945449856000,0.22185595703125,0.021744176745414734,0.16946206986904144,0.04611591249704361
1761505945470012000,0.242011962890625,0.014998093247413635,0.16841404139995575,0.09747627377510071
1761505945490168000,0.26216796875,0.026936527341604233,0.16613176465034485,0.1402173489332199
1761505945510324000,0.282323974609375,0.03376364707946777,0.1839248687028885,0.15998317301273346
1761505945530479900,0.30247998046875,0.02542286366224289,0.18085256218910217,0.1443767547607422
1761505945550636000,0.322635986328125,0.044032610952854156,0.16432887315750122,0.10956776142120361
1761505945570792000,0.3427919921875,0.055142439901828766,0.16612990200519562,0.13568076491355896
1761505945590947800,0.36294775390625,0.07201283425092697,0.15755081176757812,0.16660679876804352
1761505945611104000,0.38310400390625,0.10754356533288956,0.16965332627296448,0.18608319759368896
1761505945631260000,0.403260009765625,0.1276792734861374,0.18033477663993835,0.17151176929473877
1761505945651416000,0.423416015625,0.1549784541130066,0.18838554620742798,0.14781461656093597
1761505945671572000,0.443572021484375,0.16965527832508087,0.16059930622577667,0.15747325122356415
1761505945691728000,0.463727783203125,0.15912635624408722,0.10105738043785095,0.1771261990070343
1761505945711884000,0.483884033203125,0.15069015324115753,0.06771969795227051,0.20421896874904633
1761505945732040000,0.5040400390625,0.13838626444339752,0.03112189471721649,0.2221936136484146
1761505945752196000,0.524196044921875,0.10469464212656021,0.010501531884074211,0.21787133812904358
1761505945772352000,0.54435205078125,0.07137807458639145,0.021645262837409973,0.20681214332580566
1761505945792508000,0.5645078125,0.04695132374763489,0.03960516303777695,0.2003934383392334
1761505945812664000,0.5846640625,0.02306291088461876,0.050685472786426544,0.18231523036956787
1761505945832820000,0.604820068359375,-0.007561531849205494,0.03705031797289848,0.1475341022014618
1761505945852976000,0.62497607421875,-0.06541931629180908,0.047686681151390076,0.15150348842144012
1761505945873132000,0.645132080078125,-0.10974545031785965,0.08259482681751251,0.1762131303548813
1761505945893288000,0.665287841796875,-0.13807013630867004,0.13679148256778717,0.1722925901412964
1761505945913444000,0.685444091796875,-0.15751561522483826,0.15318800508975983,0.1445644348859787
1761505945933600000,0.70560009765625,-0.17324469983577728,0.13316185772418976,0.11432164162397385
1761505945953756200,0.725756103515625,-0.17438843846321106,0.10549754649400711,0.11507140845060349
1761505945973912000,0.745912109375,-0.19133014976978302,0.06266828626394272,0.10905957221984863
1761505945994068000,0.76606787109375,-0.19407764077186584,0.0668085590004921,0.07653795182704926
1761505946014224100,0.78622412109375,-0.19819000363349915,0.0601760670542717,0.0374111570417881
1761505946034379300,0.806379150390625,-0.19745753705501556,0.0440262034535408,0.01786469854414463
1761505946054535400,0.826535400390625,-0.16778163611888885,0.022937538102269173,0.040171653032302856
1761505946074691300,0.84669140625,-0.12427053600549698,0.012908991426229477,0.06618497520685196
1761505946094847500,0.866847412109375,-0.07103380560874939,0.03540387377142906,0.08326210826635361
1761505946115003400,0.88700341796875,-0.04158923774957657,0.026369407773017883,0.05573233589529991
1761505946135159300,0.9071591796875,-0.020820893347263336,-0.019825255498290062,0.0038096888456493616
1761505946155315500,0.9273154296875,-0.04046071693301201,-0.0722324550151825,-0.02367953211069107
1761505946175471400,0.947471435546875,-0.05304539203643799,-0.056988295167684555,-0.017471350729465485
1761505946195627500,0.96762744140625,-0.05189855396747589,-0.04357931762933731,0.00015354924835264683
1761505946215783400,0.987783447265625,-0.024454493075609207,0.004624621011316776,0.0466647744178772
1761505946235939300,1.007939208984375,-0.008667542599141598,0.019294224679470062,0.08097852766513824
1761505946256095500,1.028095458984375,0.010332483798265457,0.03357085585594177,0.09733272343873978
1761505946276251400,1.04825146484375,0.010559371672570705,0.04928651452064514,0.08202298730611801
1761505946296407600,1.068407470703125,0.0023712003603577614,0.0582573339343071,0.03709224611520767
1761505946316563500,1.0885634765625,-0.027031460776925087,0.03351622447371483,-0.017797663807868958
1761505946336719400,1.10871923828125,-0.03021923452615738,0.006996392272412777,-0.053728215396404266
1761505946356875500,1.12887548828125,-0.02363893762230873,-0.004772231914103031,-0.062198225408792496
1761505946377031400,1.149031494140625,-0.0076967086642980576,-0.042719192802906036,-0.05705485865473747
1761505946397187300,1.169187255859375,0.001317920396104455,-0.08167819678783417,-0.04573312774300575
1761505946417343500,1.189343505859375,0.00940839946269989,-0.08188790082931519,-0.06315866112709045
1761505946437499400,1.20949951171875,0.013053091242909431,-0.05010855197906494,-0.10470835119485855
1761505946457655600,1.229655517578125,0.020357437431812286,-0.012829095125198364,-0.17232483625411987
1761505946477811500,1.2498115234375,0.016057278960943222,-0.0036481479182839394,-0.24289697408676147
1761505946497967400,1.26996728515625,0.009174151346087456,0.01829397678375244,-0.2906036674976349
1761505946518123300,1.290123291015625,-0.004419531673192978,0.027035120874643326,-0.32769471406936646
1761505946538279200,1.310279052734375,-0.04700905457139015,-0.006879132706671953,-0.3635709583759308
1761505946558435300,1.330435302734375,-0.11805236339569092,-0.11469142884016037,-0.43386006355285645
1761505946578591200,1.35059130859375,-0.16958661377429962,-0.16812002658843994,-0.4841780364513397
1761505946598747100,1.3707470703125,-0.1738215684890747,-0.11965380609035492,-0.519625723361969
1761505946618903300,1.3909033203125,-0.13124775886535645,-0.013074028305709362,-0.5475103855133057
1761505946639059200,1.41105908203125,-0.033888351172208786,0.0679105669260025,-0.5469638109207153
1761505946659215400,1.43121533203125,0.044997550547122955,0.09835776686668396,-0.5093726515769958
1761505946679371300,1.451371337890625,0.10424436628818512,0.08784733712673187,-0.44154030084609985
1761505946699527200,1.471527099609375,0.11000718176364899,-0.011342627927660942,-0.3513379693031311
1761505946719683300,1.491683349609375,0.0838923305273056,-0.13829855620861053,-0.2816525399684906
1761505946739839200,1.511839111328125,0.055629879236221313,-0.23127011954784393,-0.2604968547821045
1761505946759995400,1.531995361328125,0.04192860424518585,-0.29977717995643616,-0.24862167239189148
1761505946780151300,1.5521513671875,0.026976333931088448,-0.34605786204338074,-0.20992694795131683
1761505946800307200,1.57230712890625,0.023506563156843185,-0.3575686812400818,-0.11464349925518036
1761505946820463400,1.59246337890625,0.024207523092627525,-0.32728609442710876,-0.009969538077712059
1761505946840619300,1.612619384765625,0.0048485975712537766,-0.246660977602005,0.05212324857711792
1761505946860775400,1.632775390625,-0.02499556913971901,-0.12951941788196564,0.059539634734392166
1761505946880931300,1.652931396484375,-0.03248520940542221,-0.014032040722668171,0.050247035920619965
1761505946901087200,1.673087158203125,-0.02924332581460476,0.012727972120046616,0.061715953052043915
1761505946921243400,1.693243408203125,-0.04290983825922012,-0.03395781293511391,0.10553378611803055
1761505946941399300,1.7133994140625,-0.06439635157585144,-0.10191430151462555,0.1750013828277588
1761505946961555200,1.73355517578125,-0.06578764319419861,-0.13862331211566925,0.24314364790916443
1761505946981711400,1.75371142578125,-0.07198822498321533,-0.187687948346138,0.2812601923942566
1761505947001867300,1.7738671875,-0.04877827316522598,-0.2288878858089447,0.288033664226532
1761505947022023400,1.7940234375,-0.034831453114748,-0.31306251883506775,0.27536407113075256
1761505947042179300,1.814179443359375,-0.0818173810839653,-0.35421261191368103,0.25286614894866943
1761505947062335200,1.834335205078125,-0.0859934538602829,-0.26879966259002686,0.2534390091896057
1761505947082491100,1.8544912109375,-0.014855190180242062,-0.1289951205253601,0.2949807941913605
1761505947102647300,1.874647216796875,0.0819569081068039,-0.050653547048568726,0.32786184549331665
1761505947122803200,1.89480322265625,0.1346222460269928,-0.06925519555807114,0.3275310695171356
1761505947142959400,1.91495947265625,0.15674935281276703,-0.16763602197170258,0.29658350348472595
1761505947163115300,1.935115234375,0.10317493230104446,-0.21858146786689758,0.24973516166210175
1761505947183271200,1.955271240234375,0.045547183603048325,-0.2946295738220215,0.1951735019683838
1761505947203427300,1.97542724609375,0.03254551440477371,-0.33929482102394104,0.18176968395709991
1761505947223583200,1.995583251953125,0.027622070163488388,-0.39778727293014526,0.20314550399780273
1761505947243739400,2.015739501953125,0.026314912363886833,-0.45015189051628113,0.22913892567157745
1761505947263895300,2.035895263671875,0.013661154545843601,-0.3943987786769867,0.2557534873485565
1761505947284051200,2.05605126953125,-0.00704566016793251,-0.21162599325180054,0.26016509532928467
1761505947304207400,2.076207275390625,-0.016078192740678787,0.01941094733774662,0.2730120122432709
1761505947324363300,2.09636328125,-0.026133161038160324,0.14830489456653595,0.2448110729455948
1761505947344519400,2.11651953125,-0.05110928788781166,0.14935646951198578,0.20366981625556946
1761505947364675300,2.13667529296875,-0.11092299222946167,0.14394158124923706,0.2045239955186844
1761505947384831200,2.156831298828125,-0.1743358075618744,0.12437035143375397,0.22017349302768707
1761505947404987400,2.1769873046875,-0.22995340824127197,0.07573390752077103,0.2369941622018814
1761505947425143300,2.197143310546875,-0.29909130930900574,-0.026309441775083542,0.219487726688385
1761505947445299500,2.217299560546875,-0.34761449694633484,-0.1402094066143036,0.13752350211143494
1761505947465455400,2.237455322265625,-0.3945395052433014,-0.17761214077472687,0.06282894313335419
1761505947485611300,2.257611328125,-0.40829184651374817,-0.13819876313209534,-0.0008057213854044676
1761505947505767400,2.277767333984375,-0.3369985818862915,-0.10137725621461868,-0.12026964873075485
1761505947525923300,2.29792333984375,-0.22100374102592468,-0.08157862722873688,-0.3174063563346863
1761505947546079200,2.318079345703125,-0.1231500506401062,-0.09197789430618286,-0.49439889192581177
1761505947566235400,2.3382353515625,-0.09616550803184509,-0.11202511191368103,-0.5402408838272095
1761505947586391300,2.358391357421875,-0.10897288471460342,-0.11440946906805038,-0.44653886556625366
1761505947606547500,2.37854736328125,-0.08771190047264099,-0.12069902569055557,-0.28529173135757446
1761505947626703400,2.398703369140625,-0.047580569982528687,-0.12624505162239075,-0.13271482288837433
1761505947646859300,2.418859375,-0.015213935635983944,-0.11017311364412308,-0.019589681178331375
1761505947667015400,2.439015380859375,-0.02019166573882103,-0.06305117905139923,0.015436197631061077
1761505947687171300,2.45917138671875,-0.06711049377918243,-0.04460429400205612,-0.03053242899477482
1761505947707327500,2.479327392578125,-0.11781027168035507,-0.016276134178042412,-0.0857372060418129
1761505947727483400,2.4994833984375,-0.15732240676879883,0.027429070323705673,-0.14600786566734314
1761505947747639300,2.519639404296875,-0.19273044168949127,0.03405582159757614,-0.20492525398731232
1761505947767795200,2.539795166015625,-0.2031598836183548,0.0257580503821373,-0.24368511140346527
1761505947787951000,2.559951171875,-0.1927536129951477,0.00716044194996357,-0.2538277804851532
1761505947808107300,2.580107177734375,-0.13917188346385956,0.020781444385647774,-0.2218211442232132
1761505947828263200,2.60026318359375,-0.07329148054122925,0.07181701064109802,-0.1735069453716278
1761505947848419000,2.620419189453125,-0.017614256590604782,0.10491238534450531,-0.15393872559070587
1761505947868575200,2.6405751953125,0.015856508165597916,0.1191544309258461,-0.1526983380317688
1761505947888731100,2.660731201171875,0.04694892838597298,0.1766495555639267,-0.11432962864637375
1761505947908887300,2.68088720703125,0.07635898143053055,0.24964767694473267,-0.052199967205524445
1761505947929043200,2.701043212890625,0.09606665372848511,0.2674613296985626,0.007300393655896187
1761505947949199000,2.72119921875,0.1152481734752655,0.25344163179397583,0.0570501983165741
1761505947969355300,2.741355224609375,0.12971271574497223,0.21798954904079437,0.07977695018053055
1761505947989511200,2.76151123046875,0.13764625787734985,0.15823084115982056,0.08168748021125793
1761505948009667000,2.7816669921875,0.1833101063966751,0.16983304917812347,0.12481626123189926
1761505948029823200,2.8018232421875,0.2245326042175293,0.22189590334892273,0.1729254424571991
1761505948049979400,2.8219794921875,0.2960362434387207,0.2534869611263275,0.2069714367389679
1761505948070135600,2.842135498046875,0.36211350560188293,0.15793214738368988,0.24252593517303467
1761505948090291500,2.86229150390625,0.3691229224205017,-0.03150945529341698,0.26871252059936523
1761505948110447400,2.882447265625,0.27182236313819885,-0.1774592101573944,0.2780417501926422
1761505948130603500,2.902603515625,0.12385755032300949,-0.2543136775493622,0.26215773820877075
1761505948150759400,2.922759521484375,0.022427400574088097,-0.27486228942871094,0.22887733578681946
1761505948170915300,2.942915283203125,0.02013993263244629,-0.23342426121234894,0.2252359241247177
1761505948191071500,2.963071533203125,0.08940349519252777,-0.07831881195306778,0.28134503960609436
1761505948211227400,2.983227294921875,0.24734415113925934,0.14050351083278656,0.3486487865447998
1761505948231383600,3.003383544921875,0.3043246567249298,0.23832948505878448,0.36728668212890625
1761505948251539500,3.02353955078125,0.2653895914554596,0.230697363615036,0.3411529064178467
1761505948271695400,3.0436953125,0.19183067977428436,0.24269446730613708,0.3285233676433563
1761505948291851500,3.0638515625,0.15436285734176636,0.298112690448761,0.3329092562198639
1761505948312007400,3.08400732421875,0.16523070633411407,0.3314521610736847,0.3207457959651947
1761505948332163600,3.10416357421875,0.19492535293102264,0.2846783399581909,0.29091694951057434
1761505948352319500,3.124319580078125,0.20092283189296722,0.14489680528640747,0.27738866209983826
1761505948372476700,3.1444765625,0.17698970437049866,-0.009125853888690472,0.3100261390209198
1761505948392632600,3.164632568359375,0.1405852735042572,-0.10773438215255737,0.3578828275203705
1761505948412788500,3.18478857421875,0.10974156856536865,-0.14886516332626343,0.37319061160087585
1761505948432944600,3.204944580078125,0.09581061452627182,-0.17238634824752808,0.3383229672908783
1761505948453100500,3.2251005859375,0.12053432315587997,-0.2104986011981964,0.31223273277282715
1761505948473256700,3.245256591796875,0.14694663882255554,-0.264485627412796,0.27620992064476013
1761505948493412600,3.26541259765625,0.10764952749013901,-0.30815523862838745,0.22158977389335632
1761505948513568500,3.285568603515625,0.047894176095724106,-0.2734225392341614,0.14115257561206818
1761505948533724700,3.305724609375,-0.022790580987930298,-0.19492116570472717,-0.004106016829609871
1761505948553880600,3.325880615234375,-0.1333223134279251,-0.1258489340543747,-0.1940646767616272
1761505948574036500,3.346036376953125,-0.23884835839271545,-0.036397308111190796,-0.3694630265235901
1761505948594192400,3.3661923828125,-0.3335648775100708,0.0692935436964035,-0.49792760610580444
1761505948614348300,3.386348388671875,-0.3587615191936493,0.15192842483520508,-0.5804315209388733
1761505948634504400,3.40650439453125,-0.32730764150619507,0.22796399891376495,-0.5870193243026733
1761505948654660400,3.426660400390625,-0.22994938492774963,0.3133641183376312,-0.49295851588249207
1761505948674816300,3.446816162109375,-0.13182184100151062,0.3886800706386566,-0.3322555124759674
1761505948694972400,3.466972412109375,-0.07662160694599152,0.38848963379859924,-0.23655977845191956
1761505948715128300,3.48712841796875,0.02849118411540985,0.38362032175064087,-0.14349353313446045
1761505948735284500,3.507284423828125,0.027556417509913445,0.32044678926467896,-0.10419220477342606
1761505948755440400,3.5274404296875,0.01545510720461607,0.22109408676624298,-0.06993081420660019
1761505948775596300,3.54759619140625,0.01194694358855486,0.09441147744655609,-0.0016313435044139624
1761505948795752400,3.56775244140625,-0.008109922520816326,-0.09650196135044098,0.0558108314871788
1761505948815908400,3.587908447265625,-0.0364774614572525,-0.28980395197868347,0.06336374580860138
1761505948836064500,3.608064453125,-0.09636080265045166,-0.33102577924728394,0.004497468005865812
1761505948856220400,3.628220458984375,-0.15599563717842102,-0.23791448771953583,-0.10201992094516754
1761505948876376300,3.648376220703125,-0.19425252079963684,-0.07058114558458328,-0.22114023566246033
1761505948896532500,3.668532470703125,-0.21771034598350525,0.13166500627994537,-0.32246941328048706
1761505948916688400,3.6886884765625,-0.2185337394475937,0.29039034247398376,-0.350808322429657
1761505948936844500,3.708844482421875,-0.2066320925951004,0.3663809597492218,-0.3298170268535614
1761505948957000400,3.72900048828125,-0.19475595653057098,0.3856372833251953,-0.3138878345489502
1761505948977156400,3.74915625,-0.18747732043266296,0.361225962638855,-0.28078263998031616
1761505948997312500,3.7693125,-0.13545934855937958,0.2289707213640213,-0.20150378346443176
1761505949017468400,3.789468505859375,-0.06497472524642944,0.0832873061299324,-0.08167265355587006
1761505949037625600,3.80962548828125,-0.0016058508772403002,-0.09508301317691803,0.01265042182058096
1761505949057781800,3.82978173828125,0.03248376026749611,-0.29028385877609253,0.07977121323347092
1761505949077937700,3.849937744140625,0.04347362741827965,-0.40472906827926636,0.140726238489151
1761505949098093600,3.870093505859375,0.08263180404901505,-0.4398983418941498,0.16603438556194305
1761505949118249700,3.890249755859375,0.15445341169834137,-0.42714622616767883,0.15111017227172852
1761505949138405600,3.910405517578125,0.1496688723564148,-0.4770485758781433,0.07872767746448517
1761505949158561800,3.930561767578125,0.0444977842271328,-0.532378077507019,0.03308277577161789
1761505949178717700,3.9507177734375,-0.057114455848932266,-0.4000091552734375,0.08557435125112534
1761505949198873600,3.97087353515625,-0.05625010281801224,-0.23577164113521576,0.1629297435283661
1761505949219029800,3.99102978515625,0.025770671665668488,-0.12785638868808746,0.22225958108901978
1761505949239185700,4.011185546875,0.13735851645469666,-0.026932813227176666,0.2670638859272003
1761505949259340500,4.031340576171875,0.20931491255760193,0.00025863107293844223,0.27509188652038574
1761505949279496700,4.05149658203125,0.21798714995384216,-0.0640692338347435,0.2877804636955261
1761505949299652600,4.071652587890625,0.18717235326766968,-0.18574564158916473,0.3322979509830475
1761505949319808500,4.09180859375,0.17659470438957214,-0.2942090928554535,0.36928117275238037
1761505949339964700,4.111964599609375,0.1599748730659485,-0.3469839096069336,0.34625881910324097
1761505949360120600,4.13212060546875,0.11729665845632553,-0.3061360716819763,0.27769148349761963
1761505949380276700,4.15227685546875,0.0665893703699112,-0.21698147058486938,0.20281706750392914
1761505949400432600,4.1724326171875,0.019904162734746933,-0.1135299950838089,0.1490372270345688
1761505949420588500,4.192588623046875,-0.021347995847463608,-0.042881958186626434,0.1339372843503952
1761505949440744700,4.21274462890625,-0.03983014449477196,-0.00038928352296352386,0.13214890658855438
1761505949460900600,4.232900634765625,-0.05284692719578743,0.022177161648869514,0.09027917683124542
1761505949481056800,4.253056884765625,-0.07480379194021225,0.03175971657037735,0.021982764825224876
1761505949501212700,4.273212646484375,-0.10150834172964096,0.02887425757944584,-0.04569398611783981
1761505949521368600,4.29336865234375,-0.11048244684934616,0.014312773011624813,-0.09637372195720673
1761505949541524700,4.313524658203125,-0.11366082727909088,0.0340418815612793,-0.1699085384607315
1761505949561680600,4.3336806640625,-0.11928420513868332,0.021666787564754486,-0.2996445894241333
1761505949581836800,4.3538369140625,-0.15570014715194702,-0.052250392735004425,-0.4556273818016052
1761505949601992700,4.37399267578125,-0.21462981402873993,-0.13134649395942688,-0.593644380569458
1761505949622148600,4.394148681640625,-0.23870603740215302,-0.16509155929088593,-0.6715620160102844
1761505949642304800,4.4143046875,-0.20167888700962067,-0.1480531245470047,-0.6833530068397522
1761505949662460700,4.434460693359375,-0.0892072468996048,-0.1356503665447235,-0.6041954159736633
1761505949682616800,4.454616943359375,0.06459376215934753,-0.07971545308828354,-0.42352068424224854
1761505949702772700,4.474772705078125,0.17538172006607056,-0.010352960787713528,-0.22923491895198822
1761505949722928600,4.4949287109375,0.23060107231140137,0.016823485493659973,-0.09776793420314789
1761505949743084500,4.51508447265625,0.258525550365448,-0.009405829012393951,-0.03434564918279648
1761505949763240400,4.535240478515625,0.23320496082305908,-0.048037491738796234,0.023459015414118767
1761505949783396600,4.555396728515625,0.21012592315673828,-0.07549221068620682,0.07563932240009308
1761505949803552500,4.575552490234375,0.21024566888809204,-0.0608295276761055,0.10406738519668579
1761505949823708400,4.59570849609375,0.2123817354440689,-0.01791919395327568,0.07482289522886276
1761505949843864600,4.615864501953125,0.2222379893064499,-0.0008302265778183937,0.012534652836620808
1761505949864020500,4.6360205078125,0.2356972098350525,0.028926333412528038,-0.032851312309503555
1761505949884176400,4.65617626953125,0.24449138343334198,0.041897956281900406,-0.056135211139917374
1761505949904332500,4.67633251953125,0.24861331284046173,0.07899197936058044,-0.05601945146918297
1761505949924489500,4.696489501953125,0.24231083691120148,0.1276395171880722,-0.05942601338028908
1761505949944645600,4.716645751953125,0.25123128294944763,0.17396634817123413,-0.05922155827283859
1761505949964801500,4.736801513671875,0.23691147565841675,0.20879490673542023,-0.08208293467760086
1761505949984957700,4.756957763671875,0.21981939673423767,0.2265791893005371,-0.12239617109298706
1761505950005113600,4.777113525390625,0.17461976408958435,0.19818072021007538,-0.16681897640228271
1761505950025269500,4.79726953125,0.1435277909040451,0.12705865502357483,-0.17816466093063354
1761505950045424600,4.817424560546875,0.12970203161239624,0.07484988868236542,-0.1285158395767212
1761505950065580800,4.837580810546875,0.1597132682800293,0.07115389406681061,-0.0706159695982933
1761505950085736700,4.85773681640625,0.18809813261032104,0.099080391228199,-0.06009667366743088
1761505950105892600,4.877892578125,0.21690766513347626,0.10050012916326523,-0.07923015207052231
1761505950126048800,4.898048828125,0.21067705750465393,0.09979655593633652,-0.09020199626684189
1761505950146204700,4.91820458984375,0.19998636841773987,0.09200608730316162,-0.06320176273584366
1761505950166360600,4.938360595703125,0.20014455914497375,0.1239255964756012,-0.007636754773557186
1761505950186516700,4.958516845703125,0.197442427277565,0.1059989482164383,0.027535250410437584
1761505950206672600,4.978672607421875,0.19968508183956146,0.08411695808172226,0.037181757390499115
1761505950226828800,4.998828857421875,0.16726307570934296,0.08139293640851974,0.025114545598626137
1761505950246984700,5.018984619140625,0.13867665827274323,0.10156296193599701,0.026853015646338463
1761505950267140600,5.039140625,0.09638392180204391,0.10288738459348679,0.021076209843158722
1761505950287296800,5.059296875,0.061383239924907684,0.08844859898090363,0.022768303751945496
1761505950307452700,5.07945263671875,0.06578749418258667,0.05361931771039963,0.05629635974764824
1761505950327608800,5.09960888671875,0.016837909817695618,-0.1284351646900177,0.05330387502908707
1761505950347764700,5.1197646484375,-0.11585210263729095,-0.23795843124389648,0.027650298550724983
1761505950367920600,5.139920654296875,-0.2005414217710495,-0.1689268946647644,0.03445787355303764
1761505950388076800,5.160076904296875,-0.21381555497646332,-0.0010760687291622162,0.062202271074056625
1761505950408232700,5.180232666015625,-0.1827724426984787,0.11331053823232651,0.10526877641677856
1761505950428388900,5.200388916015625,-0.1498466581106186,0.1463247835636139,0.21575379371643066
1761505950448544800,5.220544677734375,-0.1199166476726532,0.1459135264158249,0.37437599897384644
1761505950468700700,5.24070068359375,-0.13486213982105255,0.10911715775728226,0.48530614376068115
1761505950488856800,5.26085693359375,-0.16439589858055115,0.07083997130393982,0.5005102753639221
1761505950509012700,5.2810126953125,-0.18908090889453888,0.04750265181064606,0.4576425552368164
1761505950529169000,5.3011689453125,-0.19505611062049866,0.07350172102451324,0.4079952538013458
1761505950549324800,5.32132470703125,-0.18882806599140167,0.13284645974636078,0.3357636332511902
1761505950569480700,5.341480712890625,-0.17306582629680634,0.1892172247171402,0.2417389303445816
1761505950589636900,5.361636962890625,-0.14740295708179474,0.22399292886257172,0.14786526560783386
1761505950609792800,5.381792724609375,-0.13137926161289215,0.21673375368118286,0.07030467689037323
1761505950629948700,5.40194873046875,-0.114212267100811,0.18810424208641052,0.04016807675361633
1761505950650104800,5.422104736328125,-0.07770851999521255,0.18307942152023315,0.05446212738752365
1761505950670260700,5.4422607421875,-0.01653730869293213,0.17324702441692352,0.08749730885028839
1761505950690417000,5.4624169921875,0.050324998795986176,0.15883326530456543,0.10851889848709106
1761505950710572800,5.48257275390625,0.11231367290019989,0.14610931277275085,0.12681575119495392
1761505950730728700,5.502728759765625,0.14443710446357727,0.12535396218299866,0.14665746688842773
1761505950750885600,5.5228857421875,0.16483740508556366,0.09701119363307953,0.17270714044570923
1761505950771041500,5.54304150390625,0.1767870932817459,0.04170536249876022,0.18007272481918335
1761505950791197700,5.56319775390625,0.18717853724956512,-0.005945892538875341,0.16009747982025146
1761505950811353600,5.583353515625,0.1884368509054184,-0.015461322851479053,0.1288127452135086
1761505950831509800,5.603509765625,0.1846054345369339,-0.0032715769484639168,0.08481314778327942
1761505950851665700,5.623665771484375,0.19764263927936554,-0.005201499909162521,0.025231555104255676
1761505950871821600,5.643821533203125,0.2035190910100937,-0.05018101632595062,-0.07273343205451965
1761505950891977700,5.663977783203125,0.15624865889549255,-0.127136692404747,-0.18472561240196228
1761505950912133600,5.684133544921875,0.04925555735826492,-0.18559835851192474,-0.2626582980155945
1761505950932289800,5.704289794921875,-0.07627552002668381,-0.10762389749288559,-0.28615251183509827
1761505950952445700,5.72444580078125,-0.08791077882051468,0.14997297525405884,-0.2592906653881073
1761505950972601600,5.7446015625,-0.005012336187064648,0.4493127763271332,-0.20186859369277954
1761505950992757800,5.7647578125,0.11255495995283127,0.5881261229515076,-0.1934906244277954
1761505951012913700,5.78491357421875,0.2210942804813385,0.606328547000885,-0.2006581872701645
1761505951033069600,5.805069580078125,0.20805716514587402,0.5056803822517395,-0.17054010927677155
1761505951053226000,5.82522607421875,0.131768599152565,0.3576226234436035,-0.11584722995758057
1761505951073382000,5.8453818359375,0.07521109282970428,0.23344819247722626,-0.09802104532718658
1761505951093537800,5.865537841796875,0.044082626700401306,0.1393284797668457,-0.07256293296813965
1761505951113694000,5.88569384765625,0.04980706050992012,0.06200325861573219,-0.006718434393405914
1761505951133849900,5.905849853515625,0.09102784097194672,0.030970506370067596,0.0677385926246643
1761505951154006000,5.926006103515625,0.1259925812482834,0.02407359890639782,0.09506940096616745
1761505951174162000,5.946161865234375,0.15837961435317993,0.030156109482049942,0.0656558945775032
1761505951194317800,5.96631787109375,0.16863076388835907,0.06304588913917542,-0.0021406193263828754
1761505951214474000,5.986473876953125,0.1550590693950653,0.11443515121936798,-0.06339780986309052
1761505951234630000,6.0066298828125,0.14163412153720856,0.1862105429172516,-0.08941923081874847
1761505951254785800,6.026785888671875,0.12531332671642303,0.21028009057044983,-0.11238621175289154
1761505951274942000,6.04694189453125,0.08977304399013519,0.15367944538593292,-0.14508943259716034
1761505951295097900,6.067097900390625,0.07033713907003403,0.09307123720645905,-0.16153115034103394
1761505951315254000,6.08725390625,0.06469226628541946,0.05542365089058876,-0.15694575011730194
1761505951335410000,6.107409912109375,0.08414139598608017,0.049862854182720184,-0.17537423968315125
1761505951355565800,6.12756591796875,0.11511551588773727,0.039017461240291595,-0.20323359966278076
1761505951375722000,6.147721923828125,0.1366664171218872,-0.023659080266952515,-0.19602063298225403
1761505951395878000,6.1678779296875,0.14867419004440308,-0.15031129121780396,-0.15375055372714996
1761505951416034000,6.188033935546875,0.17686720192432404,-0.2661161720752716,-0.0924517810344696
1761505951436190000,6.20818994140625,0.1919344812631607,-0.333150714635849,-0.07409737259149551
1761505951456345900,6.228345947265625,0.21213045716285706,-0.3496157228946686,-0.10060471296310425
1761505951476502000,6.248501953125,0.19312207400798798,-0.3813791275024414,-0.07803821563720703
1761505951496658700,6.26865869140625,0.20971614122390747,-0.3762538433074951,0.053532764315605164
1761505951516814800,6.28881494140625,0.23428356647491455,-0.3531894385814667,0.15007665753364563
1761505951536970800,6.308970703125,0.32541680335998535,-0.33298590779304504,0.18748244643211365
1761505951557127000,6.329126953125,0.29899945855140686,-0.38001492619514465,0.08664094656705856
1761505951577282800,6.34928271484375,0.26496750116348267,-0.30114755034446716,0.05396535247564316
1761505951597438700,6.369438720703125,0.28839927911758423,-0.0982959121465683,0.10932735353708267
1761505951617595000,6.389594970703125,0.394048810005188,0.0996495857834816,0.11798323690891266
1761505951637750800,6.409750732421875,0.5446860194206238,0.22726048529148102,0.034405019134283066
1761505951657907000,6.429906982421875,0.6418208479881287,0.2507222890853882,-0.06107967346906662
1761505951678062800,6.450062744140625,0.6456843018531799,0.17696788907051086,-0.06400357931852341
1761505951698218800,6.47021875,0.6271800994873047,0.09958072006702423,0.002474264707416296
1761505951718375000,6.490375,0.6387203335762024,0.01369241438806057,0.0426517091691494
1761505951738530800,6.51053076171875,0.6671783328056335,-0.08516260981559753,0.009757431223988533
1761505951758686700,6.530686767578125,0.6745004653930664,-0.1644974946975708,-0.06159365177154541
1761505951778843000,6.5508427734375,0.6436677575111389,-0.17637233436107635,-0.10808981209993362
1761505951798998800,6.570998779296875,0.5797442197799683,-0.1136784553527832,-0.1562844067811966
1761505951819155000,6.591155029296875,0.545078456401825,0.014249575324356556,-0.21757112443447113
1761505951839310800,6.611310791015625,0.534227192401886,0.17781279981136322,-0.29501426219940186
1761505951859466800,6.631466796875,0.543383002281189,0.3060348629951477,-0.3692547678947449
1761505951879623000,6.651622802734375,0.5787560939788818,0.41168245673179626,-0.42894691228866577
1761505951899778800,6.67177880859375,0.6266168355941772,0.4426286220550537,-0.44149497151374817
1761505951919935000,6.69193505859375,0.6316826939582825,0.34400850534439087,-0.4540022313594818
1761505951940091000,6.7120908203125,0.7410994172096252,0.34299907088279724,-0.3441373109817505
1761505951960246800,6.732246826171875,0.7943580150604248,0.3628685772418976,-0.17679902911186218
1761505951980403000,6.75240283203125,0.8142868280410767,0.3449077904224396,-0.053649503737688065
1761505952000558800,6.772558837890625,0.8326442837715149,0.310824453830719,-0.010759812779724598
1761505952020715000,6.792715087890625,0.8683004379272461,0.22355890274047852,-0.014755199663341045
1761505952040871000,6.812870849609375,0.9153674244880676,0.14660081267356873,-0.07063750177621841
1761505952061026800,6.83302685546875,0.9249843955039978,0.12120518088340759,-0.2116822451353073
1761505952081183000,6.853182861328125,0.9029491543769836,0.13161462545394897,-0.3652224838733673
1761505952101339000,6.8733388671875,0.8836280107498169,0.14638786017894745,-0.44449031352996826
1761505952121496000,6.89349609375,0.8816110491752625,0.17355751991271973,-0.45044073462486267
1761505952141652000,6.91365185546875,0.9305334687232971,0.21022357046604156,-0.3772076666355133
1761505952161808000,6.933807861328125,0.9861132502555847,0.27733099460601807,-0.2938297688961029
1761505952181964000,6.953964111328125,1.0832538604736328,0.32719433307647705,-0.2419988512992859
1761505952202120000,6.974119873046875,1.1516584157943726,0.39101946353912354,-0.20652860403060913
1761505952222276000,6.994276123046875,1.2099580764770508,0.411332368850708,-0.22932849824428558
1761505952242432000,7.014431884765625,1.2394955158233643,0.3946807086467743,-0.2766645848751068
1761505952262588000,7.034587890625,1.2322779893875122,0.3255194127559662,-0.32256269454956055
1761505952282743800,7.054743896484375,1.2449159622192383,0.2813047468662262,-0.3238924443721771
1761505952302899700,7.074899658203125,1.3249012231826782,0.30269235372543335,-0.28455236554145813
1761505952323055900,7.095055908203125,1.4625619649887085,0.3526163101196289,-0.2675280272960663
1761505952343211800,7.115211669921875,1.6047306060791016,0.3877072334289551,-0.2845713794231415
1761505952363367700,7.13536767578125,1.6948027610778809,0.3987043499946594,-0.3029051125049591
1761505952383523800,7.15552392578125,1.746155858039856,0.3918570280075073,-0.25992897152900696
1761505952403679700,7.1756796875,1.80018949508667,0.37398433685302734,-0.15994547307491302
1761505952423836000,7.1958359375,1.8679476976394653,0.34078022837638855,-0.08403285592794418
1761505952443991800,7.21599169921875,1.9380370378494263,0.37402859330177307,-0.04951242357492447
1761505952464147700,7.236147705078125,2.005112648010254,0.45201802253723145,-0.05901795253157616
1761505952484304000,7.256303955078125,2.0521445274353027,0.5050191283226013,-0.07844791561365128
1761505952504459800,7.276459716796875,2.0726699829101562,0.5559394359588623,-0.08963900804519653
1761505952524616000,7.296615966796875,2.076735734939575,0.6040442585945129,-0.09859377890825272
1761505952544771800,7.316771728515625,2.0475430488586426,0.6094624400138855,-0.16257908940315247
1761505952564927700,7.336927734375,2.0308291912078857,0.6092677116394043,-0.25309115648269653
1761505952585084000,7.357083984375,2.027242422103882,0.6011868119239807,-0.3381536900997162
1761505952605239800,7.37723974609375,2.0202577114105225,0.5578396916389465,-0.39140766859054565
1761505952625395700,7.397395751953125,1.975575566291809,0.5630455613136292,-0.4064909815788269
1761505952645551900,7.4175517578125,1.954256534576416,0.6413942575454712,-0.38567692041397095
1761505952665707800,7.437707763671875,1.9097630977630615,0.6993293762207031,-0.38224029541015625
1761505952685864000,7.457864013671875,1.876505970954895,0.7004615068435669,-0.3753679394721985
1761505952706019800,7.478019775390625,1.8179880380630493,0.6609979271888733,-0.3377981185913086
1761505952726177000,7.498177001953125,1.728279709815979,0.603123664855957,-0.2858332395553589
1761505952746333000,7.5183330078125,1.6151156425476074,0.5113272070884705,-0.25482654571533203
1761505952766488800,7.53848876953125,1.5272166728973389,0.38139045238494873,-0.26154860854148865
1761505952786645000,7.55864501953125,1.43873929977417,0.24656809866428375,-0.2735142111778259
1761505952806801000,7.57880078125,1.2651646137237549,0.10538225620985031,-0.2768118679523468
1761505952826957000,7.59895703125,1.0353137254714966,-0.025314345955848694,-0.24408049881458282
1761505952847113000,7.619113037109375,0.8143120408058167,-0.04976939409971237,-0.19171610474586487
1761505952867268900,7.639268798828125,0.6950812935829163,0.017867743968963623,-0.1570044457912445
1761505952887425000,7.659425048828125,0.7300547361373901,0.13923123478889465,-0.10894982516765594
1761505952907581000,7.679580810546875,0.8070825934410095,0.26582860946655273,-0.0710347592830658
1761505952927737000,7.699737060546875,0.9295349717140198,0.3933347165584564,-0.08146073669195175
1761505952947893000,7.71989306640625,1.055223822593689,0.47978875041007996,-0.12501776218414307
1761505952968049000,7.740048828125,1.1114389896392822,0.48748868703842163,-0.16948272287845612
1761505952988205000,7.760205078125,1.0825179815292358,0.4578985273838043,-0.17896796762943268
1761505953008361000,7.78036083984375,1.0338255167007446,0.39383283257484436,-0.13903653621673584
1761505953028517000,7.80051708984375,0.9906134605407715,0.29509615898132324,-0.09968534857034683
1761505953048673000,7.820673095703125,0.9535050392150879,0.21504075825214386,-0.05593758448958397
1761505953068829200,7.8408291015625,0.9409517645835876,0.2252403050661087,-0.040266890078783035
1761505953088985000,7.860985107421875,0.9453021883964539,0.30154216289520264,-0.1106935366988182
1761505953109141000,7.88114111328125,0.9731194972991943,0.38229766488075256,-0.21414320170879364
1761505953129297000,7.901296875,1.0058391094207764,0.4454798400402069,-0.3201993405818939
1761505953149452800,7.921452880859375,1.0183109045028687,0.44610732793807983,-0.3988400995731354
1761505953169609000,7.94160888671875,1.0034905672073364,0.3666735887527466,-0.44931507110595703
1761505953189764900,7.961764892578125,0.9933350086212158,0.2835628390312195,-0.4531022608280182
1761505953209921000,7.981921142578125,1.001365065574646,0.18345515429973602,-0.4623046815395355
1761505953230077000,8.002076904296874,1.0338093042373657,0.13812464475631714,-0.4571070373058319
1761505953250232800,8.02223291015625,1.0593827962875366,0.15967205166816711,-0.4209057092666626
1761505953270389000,8.042388916015625,1.0703719854354858,0.19279944896697998,-0.3782852292060852
1761505953290545000,8.062544921875,1.0603888034820557,0.21318407356739044,-0.31867578625679016
1761505953310701000,8.082701171875,1.0351660251617432,0.23424243927001953,-0.2873716652393341
1761505953330857000,8.10285693359375,0.9802504181861877,0.20517368614673615,-0.2704103887081146
1761505953351014100,8.12301416015625,0.8112647533416748,0.10565600544214249,-0.23982542753219604
1761505953371169000,8.1431689453125,0.6358843445777893,0.00920565240085125,-0.18804216384887695
1761505953391326000,8.163325927734375,0.47726011276245117,-0.029986508190631866,-0.1300894021987915
1761505953411482000,8.183482177734374,0.3929750621318817,0.010733903385698795,-0.09584512561559677
1761505953431638000,8.203637939453126,0.382722407579422,0.07974152266979218,-0.11658985167741776
1761505953451794000,8.2237939453125,0.3828775882720947,0.13373816013336182,-0.15973259508609772
1761505953471950000,8.2439501953125,0.3944630026817322,0.1364826261997223,-0.15318214893341064
1761505953492106000,8.26410595703125,0.3733757734298706,0.09356070309877396,-0.08005659282207489
1761505953512262100,8.28426220703125,0.3025178909301758,0.004679321311414242,0.005984341725707054
1761505953532418000,8.30441796875,0.2070464789867401,-0.07568594068288803,0.0616195946931839
1761505953552574000,8.324573974609375,0.12793630361557007,-0.1167709156870842,0.0713903084397316
1761505953572730000,8.344730224609375,0.06553023308515549,-0.12102439999580383,0.03998476266860962
1761505953592886000,8.364885986328124,0.025556067004799843,-0.09557488560676575,0.025211550295352936
1761505953613042200,8.385042236328125,-0.0037611876614391804,-0.0848732441663742,0.034032631665468216
1761505953633198000,8.405197998046875,-0.0034151310101151466,-0.05678834021091461,0.05320323631167412
1761505953653354000,8.42535400390625,0.020984655246138573,-0.0021679364144802094,0.05274747684597969
1761505953673510100,8.44551025390625,0.04372256621718407,0.03575761243700981,0.030885962769389153
1761505953693666000,8.465666015625,0.03675437718629837,0.06348902732133865,0.03905517980456352
1761505953713822200,8.485822265625,0.003582984209060669,0.05616408586502075,0.06851067394018173
1761505953733978000,8.50597802734375,-0.07652062922716141,-0.024035494774580002,0.03733626380562782
1761505953754134000,8.526134033203125,-0.14383547008037567,-0.07695699483156204,-0.005418106447905302
1761505953774290200,8.546290283203126,-0.14137405157089233,-0.05366068333387375,0.021268755197525024
1761505953794446000,8.566446044921875,-0.11427859216928482,-0.048704735934734344,0.07463017106056213
1761505953814602200,8.586602294921875,-0.08877812325954437,-0.06814085692167282,0.09221545606851578
1761505953834758100,8.606758056640626,-0.046580348163843155,-0.06016366556286812,0.09065403044223785
1761505953854914000,8.6269140625,-0.01630263589322567,-0.10537382960319519,0.10926336795091629
1761505953875070200,8.6470703125,0.016160259023308754,-0.17372576892375946,0.1404748409986496
1761505953895226000,8.66722607421875,0.023005886003375053,-0.22152547538280487,0.1678321361541748
1761505953915382000,8.687382080078125,0.03352271020412445,-0.21851982176303864,0.15240657329559326
1761505953935538200,8.7075380859375,0.06480862945318222,-0.15231812000274658,0.04882284253835678
1761505953955694000,8.727694091796875,0.10257484018802643,-0.076631560921669,-0.09674695879220963
1761505953975850000,8.74785009765625,0.1574077606201172,0.03211604058742523,-0.1792769432067871
1761505953996006000,8.768005859375,0.2021765410900116,0.07615536451339722,-0.2175780087709427
1761505954016161800,8.788161865234375,0.1967954784631729,0.09951968491077423,-0.2643834948539734
1761505954036319000,8.808319091796875,0.25104740262031555,0.12840822339057922,-0.2732277512550354
1761505954056474400,8.828474365234374,0.3261170983314514,0.18809224665164948,-0.21504482626914978
1761505954076630500,8.848630615234375,0.4210926592350006,0.15615570545196533,-0.13565702736377716
1761505954096786400,8.868786376953125,0.48335620760917664,0.11657781898975372,-0.07217882573604584
1761505954116942300,8.8889423828125,0.5255510807037354,0.04522339999675751,-0.04213094338774681
1761505954137098500,8.909098388671875,0.5610598921775818,0.00020977389067411423,0.006643380969762802
1761505954157254400,8.92925439453125,0.6186965107917786,-0.009237973019480705,0.056025292724370956
1761505954177410300,8.949410400390626,0.6923785209655762,-0.03018716350197792,0.10176035761833191
1761505954197566500,8.96956640625,0.7398155331611633,-0.058924946933984756,0.13266420364379883
1761505954217722400,8.989722412109375,0.765694797039032,-0.07430197298526764,0.1402675062417984
1761505954237878500,9.00987841796875,0.7801903486251831,-0.0783652737736702,0.154728963971138
1761505954258034400,9.030034423828125,0.7776205539703369,-0.04709836095571518,0.16741004586219788
1761505954278190300,9.0501904296875,0.7597131133079529,0.01105770468711853,0.15578415989875793
1761505954298346500,9.070346435546876,0.726984977722168,0.0744863748550415,0.15824998915195465
1761505954318502400,9.09050244140625,0.6896417737007141,0.05357927083969116,0.17670774459838867
1761505954338658600,9.110658447265624,0.6354743242263794,0.01958644390106201,0.18740689754486084
1761505954358814500,9.130814453125,0.586905300617218,0.027605490759015083,0.17607711255550385
1761505954378970400,9.150970458984375,0.5291921496391296,0.051072798669338226,0.1504332572221756
1761505954399126500,9.17112646484375,0.4423825740814209,0.05914846807718277,0.09398926049470901
1761505954419282400,9.191282470703126,0.3582463264465332,0.09110967069864273,0.05848738178610802
1761505954439438600,9.2114384765625,0.29663416743278503,0.1911647766828537,0.032521940767765045
1761505954459594500,9.231594482421874,0.3082837760448456,0.37145113945007324,0.02972150407731533
1761505954479750400,9.25175048828125,0.34497159719467163,0.5109943151473999,0.029352467507123947
1761505954499906600,9.271906494140625,0.3780317008495331,0.5444355010986328,-0.012353263795375824
1761505954520062500,9.2920625,0.42046719789505005,0.5336924195289612,-0.039122387766838074
1761505954540218600,9.312218505859375,0.4666222035884857,0.5017551183700562,-0.04607880860567093
1761505954560374500,9.33237451171875,0.5110898017883301,0.4199105501174927,-0.07495708018541336
1761505954580530400,9.352530517578124,0.543999969959259,0.3340836763381958,-0.11552457511425018
1761505954600686600,9.3726865234375,0.5754201412200928,0.2682753801345825,-0.17207211256027222
1761505954620842500,9.392842529296875,0.5774598121643066,0.20158322155475616,-0.25025510787963867
1761505954640998400,9.412998291015626,0.5555264949798584,0.11079777032136917,-0.32989513874053955
1761505954661154600,9.433154541015625,0.5147164463996887,0.002473197877407074,-0.4147000014781952
1761505954681311500,9.4533115234375,0.4311765134334564,-0.06160629913210869,-0.5475491881370544
1761505954701467400,9.47346728515625,0.33040326833724976,-0.060988135635852814,-0.6387504935264587
1761505954721623300,9.493623291015625,0.25314924120903015,-0.04355025291442871,-0.6254575848579407
1761505954741779500,9.513779541015625,0.21435284614562988,-0.040674783289432526,-0.534361720085144
1761505954761935400,9.533935302734376,0.24436786770820618,0.020388703793287277,-0.4110093414783478
1761505954782091300,9.55409130859375,0.29258111119270325,0.11264250427484512,-0.3445870280265808
1761505954802247400,9.574247314453125,0.3202545940876007,0.1858302652835846,-0.3467675447463989
1761505954822403300,9.5944033203125,0.3222917914390564,0.19662490487098694,-0.39136871695518494
1761505954842559500,9.6145595703125,0.3281189799308777,0.19373859465122223,-0.40522998571395874
1761505954862715400,9.63471533203125,0.35881897807121277,0.16290420293807983,-0.3738445043563843
1761505954882871300,9.654871337890626,0.4140207767486572,0.09008586406707764,-0.3383293151855469
1761505954903027500,9.67502734375,0.4695086181163788,0.026620492339134216,-0.32812774181365967
1761505954923183400,9.695183349609374,0.5158019065856934,-0.0028170207515358925,-0.35670679807662964
1761505954943339500,9.715339599609376,0.5352777242660522,0.0243711918592453,-0.38365334272384644
1761505954963495400,9.735495361328125,0.5462706685066223,0.11239855736494064,-0.3690982162952423
1761505954983651300,9.7556513671875,0.5684653520584106,0.1924917995929718,-0.319947212934494
1761505955003807500,9.775807373046876,0.586850106716156,0.2453293800354004,-0.2590637803077698
1761505955023963400,9.79596337890625,0.5907665491104126,0.30393272638320923,-0.19735674560070038
1761505955044119300,9.816119384765624,0.5846782326698303,0.3472771644592285,-0.14278756082057953
1761505955064275700,9.836275634765625,0.5744901895523071,0.34467098116874695,-0.10017900913953781
1761505955084431600,9.856431640625,0.5808804631233215,0.28949302434921265,-0.06191195920109749
1761505955104587800,9.876587890625,0.5740504264831543,0.22040429711341858,0.0071053775027394295
1761505955124743700,9.89674365234375,0.6197115778923035,0.15440143644809723,0.09145556390285492
1761505955144899800,9.91689990234375,0.6120555400848389,0.08897878229618073,0.09935936331748962
1761505955165055700,9.9370556640625,0.6856560707092285,0.07448677718639374,0.185895636677742
1761505955185211600,9.957211669921875,0.6805607080459595,0.16166605055332184,0.229196235537529
1761505955205367800,9.977367919921875,0.6303224563598633,0.20341771841049194,0.23303480446338654
1761505955225523700,9.997523681640626,0.5970577001571655,0.1876060664653778,0.2536269724369049
1761505955245679600,10.0176796875,0.537447452545166,0.1387310028076172,0.32643067836761475
1761505955265835800,10.037835693359375,0.4987950026988983,0.07481202483177185,0.40767163038253784
1761505955285991700,10.05799169921875,0.45776376128196716,0.02323935180902481,0.45044949650764465
1761505955306147800,10.07814794921875,0.40591511130332947,-0.003950424492359161,0.4500930607318878
1761505955326303700,10.0983037109375,0.3917604684829712,0.01734299585223198,0.4293590784072876
1761505955346459600,10.118459716796876,0.3990876078605652,0.035878561437129974,0.3815406858921051
1761505955366616800,10.138616943359375,0.38746050000190735,0.0573897510766983,0.30280378460884094
1761505955386772700,10.158772705078125,0.39834997057914734,0.1030857115983963,0.20762859284877777
1761505955406929000,10.178928955078124,0.4087009131908417,0.17601242661476135,0.13291148841381073
1761505955427084800,10.199084716796875,0.42930150032043457,0.25477269291877747,0.05938798934221268
1761505955447240700,10.21924072265625,0.4563893973827362,0.31533098220825195,0.008721179328858852
1761505955467396900,10.23939697265625,0.4793470799922943,0.37851235270500183,-0.003999514505267143
1761505955487552800,10.259552734375,0.4851369261741638,0.39927464723587036,0.019447075203061104
1761505955507708700,10.279708740234375,0.4972837567329407,0.28199633955955505,0.029161643236875534
1761505955527864600,10.299864501953126,0.5145058631896973,0.08933907002210617,0.020324448123574257
1761505955548020700,10.320020751953125,0.523006021976471,-0.04818786308169365,0.0010241582058370113
1761505955568176600,10.3401767578125,0.5108391046524048,-0.11078453809022903,-0.051594577729701996
1761505955588332500,10.36033251953125,0.46412354707717896,-0.09562963992357254,-0.11441294103860855
1761505955608488700,10.38048876953125,0.39551618695259094,-0.09374654293060303,-0.19910338521003723
1761505955628644600,10.40064453125,0.3243185579776764,-0.1092732697725296,-0.2779970169067383
1761505955648800500,10.420800537109375,0.2815871238708496,-0.09366516768932343,-0.30802488327026367
1761505955668956700,10.440956787109375,0.2478080838918686,-0.018245484679937363,-0.3238055109977722
1761505955689112600,10.461112548828124,0.2555004358291626,0.10276062041521072,-0.3658626079559326
1761505955709268700,10.481268798828125,0.3015231490135193,0.24036012589931488,-0.4183100163936615
1761505955729424600,10.501424560546875,0.36473849415779114,0.35608386993408203,-0.4496390223503113
1761505955749580500,10.52158056640625,0.40561071038246155,0.36243781447410583,-0.4841400980949402
1761505955769736700,10.54173681640625,0.4172309935092926,0.3960462212562561,-0.5384697914123535
1761505955789892600,10.561892578125,0.47710537910461426,0.42381712794303894,-0.539732813835144
1761505955810048800,10.582048828125,0.5046808123588562,0.4044165015220642,-0.5259459018707275
1761505955830204700,10.60220458984375,0.48841285705566406,0.38581618666648865,-0.5144781470298767
1761505955850360600,10.622360595703125,0.39952725172042847,0.32419824600219727,-0.47983139753341675
1761505955870516700,10.642516845703126,0.30570369958877563,0.19939498603343964,-0.4160027503967285
1761505955890672600,10.662672607421875,0.2231338769197464,0.19571931660175323,-0.17420220375061035
1761505955910828800,10.682828857421875,0.027106544002890587,-0.2068074345588684,-0.035115987062454224
1761505955930984700,10.702984619140626,-0.0722682923078537,-0.364797979593277,-0.055516913533210754
1761505955951140600,10.723140625,-0.154473677277565,-0.3877069056034088,-0.15754128992557526
1761505955971296800,10.743296875,-0.2439909726381302,-0.19695153832435608,-0.21199272572994232
