time,seconds_elapsed,z,y,x
1761509368651379700,0.083379638671875,-0.057329322418570514,0.0001510167100932449,0.0012920856371521948
1761509368671536400,0.103536376953125,-0.05194003059566021,-0.004424392313510179,0.0072565378663595765
1761509368691694600,0.123694580078125,-0.051344402790069577,-0.005091149126552045,-0.0022403993379324673
1761509368711851500,0.1438515625,-0.054339492952823636,-0.00033917795964516696,0.00518404244123958
1761509368732008400,0.164008544921875,-0.05419453152418136,-0.006001039646239951,0.00800476241777651
1761509368752166400,0.18416650390625,-0.05389584083855152,-0.009340687196655198,0.01203939736187458
1761509368772323600,0.204323486328125,-0.06182488027215004,-0.0017473368576727806,0.010471472191717474
1761509368792481500,0.2244814453125,-0.05479074385166168,-0.0031283976862207055,0.004331078873714432
1761509368812638500,0.244638427734375,-0.06047814183831215,-0.0050244496990460895,0.007486711626732721
1761509368832796700,0.264796630859375,-0.05523907214105129,-0.004018186132796108,-0.0024530374416150153
1761509368852953600,0.28495361328125,-0.06047405018508434,0.00337314796121791,-0.0006126337393186986
1761509368873110500,0.305110595703125,-0.060924716562032695,-0.0035988373427186158,0.003989873353764414
1761509368893268500,0.3252685546875,-0.043566170004010196,0.0009794303582515568,-0.0010564502503722906
1761509368913425400,0.34542529296875,-0.057632689279317854,0.0013466653686016797,-0.0017962905659340321
1761509368933583600,0.36558349609375,-0.0541927779585123,0.001562271747505292,0.004004248938988894
1761509368953740500,0.385740478515625,-0.05972878477573394,-0.0003151212306227535,0.00009897599560208619
1761509368973898800,0.405898681640625,-0.05688742386996746,-0.008020444044098258,0.00004468852509744465
1761509368994055200,0.42605517578125,-0.046264907568693156,0.0027669987616129217,0.004476926218345761
1761509369014213400,0.44621337890625,-0.05883446628451347,-0.006763100926764309,0.004063851905427873
1761509369034370300,0.466370361328125,-0.07259937226474285,-0.001273947192262858,0.005266834487020969
1761509369054527200,0.48652734375,-0.0461105937898159,0.0014050810249522329,-0.005209195148805156
1761509369074685400,0.506685546875,-0.05882862106561661,-0.009680942868534475,0.0018148582690861075
1761509369094842000,0.526842041015625,-0.047156887972354886,-0.0029174492161255327,0.003645041971467435
1761509369115000300,0.547000244140625,-0.054935705280303955,0.002339274868834764,0.00921033881525509
1761509369135157200,0.5671572265625,-0.04640753090977669,-0.0019841778208501636,0.010586157213104888
1761509369155315200,0.587315185546875,-0.05134615635573864,0.003051523924572393,-0.0021436792314983902
1761509369175472400,0.607472412109375,-0.04730652557611465,-0.00240942662875168,0.003104715416533872
1761509369195629000,0.627629150390625,-0.05882745202183723,-0.00460008680713363,0.010321195267140865
1761509369215787300,0.647787353515625,-0.06226911690831184,-0.0018653554804623127,0.004986519708298147
1761509369235944200,0.667944091796875,-0.05538637165725231,-0.005738680649315938,0.004705730005539953
1761509369256102400,0.688102294921875,-0.055684477820992465,-0.0012668050654232501,-0.0015716149645857512
1761509369276259000,0.708259033203125,-0.056281859192252155,0.00115018381527625,0.007219913916708901
1761509369296417300,0.728417236328125,-0.06346563321650028,0.005626077987160533,0.0019249767132103442
1761509369316574200,0.74857421875,-0.05747896002233028,-0.00592849499983713,-0.0037834914609324185
1761509369336731100,0.768731201171875,-0.05897767414748668,-0.0011771814200561494,0.0029232944350223986
1761509369356889300,0.788889404296875,-0.05673252556920051,-0.0058011514262761915,-0.008394254925707355
1761509369377046300,0.80904638671875,-0.05463818363845348,-0.0002741224999539554,-0.000817910520453006
1761509369397204200,0.829204345703125,-0.05897825866937637,0.002115329919848591,0.0026405867698136715
1761509369417361200,0.849361083984375,-0.07035071655511856,0.0009326868733856826,0.008229876410542056
1761509369437519400,0.869519287109375,-0.05927578031122684,-0.010591810635756701,0.0077398278712760655
1761509369457676300,0.88967626953125,-0.04865384853184223,0.0013240151453763245,0.007039232720714062
1761509369477833200,0.909833251953125,-0.05942892504632473,-0.005948925866512581,0.00658958012391813
1761509369497991400,0.929991455078125,-0.06107610773146152,-0.00802349451771006,0.007785237915581091
1761509369518148000,0.950148193359375,-0.05748363619744777,0.004513294439669698,0.0001650361022911966
1761509369538306300,0.970306396484375,-0.05867898346185684,-0.008888084590947256,-0.0014295304796192794
1761509369558463200,0.990463134765625,-0.057632689279317854,0.003502811356028542,0.002860047339927405
1761509369578621200,1.01062109375,-0.05523614953160286,0.00570804804903455,-0.0031478969711344687
1761509369598778400,1.0307783203125,-0.06406827528476715,0.0016536672248505056,-0.002950118509866297
1761509369618935300,1.050935302734375,-0.05314765281975269,0.0033292996863368896,0.00938100094073452
1761509369639093200,1.07109326171875,-0.054793081939220424,-0.0006601718086283653,-0.0037943873142823573
1761509369659250200,1.091250244140625,-0.06347206295728683,-0.0065962838593404734,-0.0005948240879923105
1761509369679408400,1.111408447265625,-0.058984103888273236,-0.002136655835667625,-0.007685403403453529
1761509369699565000,1.13156494140625,-0.05613865132927894,-0.0030660273739602415,-0.00031841829940676685
1761509369719723300,1.15172314453125,-0.050150224569439884,-0.006282194675179198,-0.005051958760479465
1761509369739880400,1.17188037109375,-0.06032441258132457,0.005305595594830811,0.006233560627326369
1761509369760037000,1.192037109375,-0.04984861127436161,-0.00018592362669296562,0.01246656413222663
1761509369780195300,1.2121953125,-0.05358896684646606,-0.005300417096214369,0.007280576329072937
1761509369800352300,1.232352294921875,-0.06391513054966926,-0.0018083463299088179,0.005638590408861637
1761509369820510200,1.25251025390625,-0.052690556702017784,0.003690333284763619,0.0012511599717196077
1761509369840667100,1.272667236328125,-0.05807692591547966,-0.0021058497054502368,0.007938400916988029
1761509369860824300,1.29282421875,-0.06107318512201309,-0.00415395960798487,-0.005220310197863728
1761509369880982300,1.312982177734375,-0.06556114419102668,0.0012798746095504612,-0.001539566725352779
1761509369901139200,1.33313916015625,-0.046857028242945666,0.004129656283790245,-0.0013413590058218687
1761509369921297400,1.35329736328125,-0.05912672722935676,-0.004905417296104133,0.003803666599281132
1761509369941454000,1.3734541015625,-0.055983753028511996,-0.007089766464708372,0.0018689722096547484
1761509369961612300,1.3936123046875,-0.05553191760778427,-0.00551607827404514,0.010559917660150676
1761509369981769200,1.413769287109375,-0.053584875193238256,-0.009799947872012852,0.00025121654840186235
1761509370001924400,1.43392431640625,-0.0540361260920763,0.00009309424408711493,0.007618914038501679
1761509370022081000,1.4540810546875,-0.05313654690384864,0.001763648671656847,0.011318060817383228
1761509370042238200,1.47423828125,-0.0579226121366024,-0.010430400395812466,-0.003666468351986259
1761509370062396200,1.494396240234375,-0.0583715249478817,-0.006778837352013215,0.007727735574683174
1761509370082553000,1.514552978515625,-0.05612812993526459,-0.0013385551273822783,0.0030104338623583313
1761509370102711300,1.534711181640625,-0.05253682744503021,-0.004726946323504671,0.004085908473609015
1761509370122868200,1.5548681640625,-0.0577700519233942,-0.0012208561650011687,0.010414326043846085
1761509370143025200,1.575025146484375,-0.05507599053382873,0.001480091623077169,0.0015714597009588032
1761509370163183000,1.59518310546875,-0.05073942263424396,-0.003194850518554449,0.004400481714960188
1761509370183340000,1.615340087890625,-0.05672843391597271,-0.0008730747737921774,-0.0014063231339678168
1761509370203498200,1.635498291015625,-0.06271335354447365,0.006239424112532288,-0.002292138658324256
1761509370223655200,1.6556552734375,-0.051042204973101614,-0.0028341731131542474,0.014869825881673022
1761509370243813400,1.6758134765625,-0.045807226929068565,0.0032144502681680023,0.0026182836064603176
1761509370263970000,1.695969970703125,-0.05328793807327747,-0.010005370783619582,0.007728758487990125
1761509370284127200,1.716127197265625,-0.0522410593688488,-0.005119251843029633,0.0017672562676947564
1761509370304285200,1.73628515625,-0.06855097365677357,-0.003347109337663278,0.002972814398864284
1761509370324442000,1.756442138671875,-0.06241992355585098,0.001338728657318279,0.006753328451421112
1761509370344600300,1.776600341796875,-0.048206104764342304,0.0042952312421984966,0.0007800079291686415
1761509370364757200,1.79675732421875,-0.05942775600254535,-0.004550712973764166,0.0018397278488613664
1761509370384915200,1.816915283203125,-0.05837795468866825,0.001902993210265413,0.0043120819122996175
1761509370405072100,1.837072021484375,-0.05044482360184192,-0.007837516092089936,0.005990746581088751
1761509370425229000,1.85722900390625,-0.05568155521154403,-0.005231717507867142,0.009543835952784865
1761509370445387000,1.877386962890625,-0.06450725122392177,-0.0006315576354973017,0.004855321943527087
1761509370465544200,1.897544189453125,-0.06839899796545505,-0.00040576778929680583,0.00027362017645500596
1761509370485702400,1.917702392578125,-0.05418342560827732,-0.0008899802428204565,0.0015941647231113164
1761509370505859000,1.937859130859375,-0.047452071526646614,-0.00550122776478529,0.004158937177201733
1761509370526017300,1.958017333984375,-0.051343233746290205,0.005905059325322508,0.004381667416635901
1761509370546174200,1.97817431640625,-0.05673077200353145,-0.0005931983864866197,0.005736707887938246
1761509370566331100,1.9983310546875,-0.05538111096024513,-0.0010293430477380753,0.015179193224944173
1761509370586489000,2.018489013671875,-0.047452071526646614,-0.0023966584787238386,0.004074857356632128
1761509370606646300,2.038646240234375,-0.049396191331744194,0.0028733817455358804,0.0032903102496638892
1761509370626804200,2.05880419921875,-0.05253975005447864,0.0039814525852911176,0.008512748472532257
1761509370646961200,2.078961181640625,-0.0627151071101427,0.0013197864948306232,0.008389633549517021
1761509370667118000,2.0991181640625,-0.06046878948807716,-0.001984132155077532,-0.0005931618538685142
1761509370687276000,2.119276123046875,-0.05642623609900474,-0.002712446429627016,0.006747455833060667
1761509370707433200,2.13943310546875,-0.051640755388140676,0.0029814178304281083,-0.005595545851578935
1761509370727591200,2.159591064453125,-0.051639586344361305,-0.0004892904874403029,0.0006565185468178242
1761509370747748000,2.179748046875,-0.05807400330603122,-0.005905013659549876,0.002137697015283629
1761509370767906300,2.19990625,-0.061217562028765674,0.002121650062780827,0.01195613039205782
1761509370788063200,2.220063232421875,-0.05672609582841396,-0.0028884514505043623,-0.00007664543278515339
1761509370808220200,2.24022021484375,-0.04715104275345802,-0.0016665997716598213,0.0014790869760792703
1761509370828378000,2.260378173828125,-0.05089373641312122,0.00378559208647348,0.000584430558141321
1761509370848535300,2.280535400390625,-0.0489472785204649,0.0017405691901687531,0.0001833298108074814
1761509370868693000,2.30069287109375,-0.05687339534461498,0.0011039426539093255,0.014002240133751183
1761509370888850200,2.32085009765625,-0.05073650002479553,-0.0035080537867266683,0.011882772894902154
1761509370909008400,2.34100830078125,-0.04849427405595779,0.0027685513978824017,0.0011819123941008002
1761509370929165000,2.3611650390625,-0.046994975408911704,-0.0026944723815191533,-0.003064766998635605
1761509370949322200,2.381322265625,-0.05507599053382873,0.002599359710281715,-0.0022017112953588366
1761509370969480200,2.401480224609375,-0.06689911479651928,-0.0008163761504925787,0.0001164568533655256
1761509370989637000,2.42163720703125,-0.059115621313452715,-0.0038479532655794173,0.00815784322079271
1761509371009795300,2.44179541015625,-0.05806757356524467,0.0036852735171560196,0.0005310107373166829
1761509371029952300,2.4619521484375,-0.05432721799314022,0.005597500346647575,0.002843351933453232
1761509371050110500,2.4821103515625,-0.060764557564258574,-0.005219305550865828,0.0065139028055127704
1761509371070267400,2.502267333984375,-0.0526852960050106,-0.002813459118688479,0.0032499417066574094
1761509371090424300,2.52242431640625,-0.05807400330603122,0.0016051610411610454,0.013096240337891503
1761509371110582300,2.542582275390625,-0.04670096089839935,0.007042146197007969,-0.0033593203652650117
1761509371130739500,2.562739501953125,-0.0504413164705038,0.0059212067425251005,0.010256578198866918
1761509371150897200,2.582897216796875,-0.049693128451704975,0.002071974835311994,-0.0006419876979663968
1761509371171054300,2.603054443359375,-0.05448153177201748,-0.0007823186172638088,0.0005272844102699309
1761509371191212300,2.62321240234375,-0.0619616583943367,0.0058996707641519605,-0.005392232698667794
1761509371211369200,2.643369140625,-0.05702186390459537,-0.005246440152963623,0.006927315045148134
1761509371231526400,2.6635263671875,-0.04580079718828201,0.0063111193755641575,0.001922227633697912
1761509371251684400,2.683684326171875,-0.04939034611284732,-0.007308222387824207,-0.0005125708983279764
1761509371271841300,2.70384130859375,-0.0547767153263092,0.0066743449310772114,-0.0008227236928883939
1761509371291999200,2.723999267578125,-0.0598614712446928,0.0022710776039864865,0.0035450156630948185
1761509371312156400,2.744156494140625,-0.06480068121254444,-0.004588606431894004,0.004907919780444353
1761509371332313300,2.764313232421875,-0.05432546442747116,0.0017903814149554818,0.011080069076735526
1761509371352471300,2.78447119140625,-0.056119362106919285,-0.0012231211873237043,0.004093762986501679
1761509371372628500,2.80462841796875,-0.05103226810097694,0.004249565469566732,0.007992231729766354
1761509371392786200,2.8247861328125,-0.057462593409419054,0.004803399960044771,0.01066819120706059
1761509371412943400,2.844943359375,-0.060603814044594764,-0.0020299531913362443,0.004163631618628278
1761509371433101300,2.865101318359375,-0.049829906573891636,0.004563444591173902,0.0019173870617989449
1761509371453258200,2.88525830078125,-0.05491758510172367,0.003897564560966566,-0.002495031686127186
1761509371473415400,2.90541552734375,-0.04473988995850086,-0.0022458152985665946,-0.0021823398746084422
1761509371493573400,2.925573486328125,-0.0598527034163475,0.002542706752754748,0.007020701550180092
1761509371513730300,2.945730224609375,-0.045187049204111096,0.0024949312214273957,-0.0051267958286684
1761509371533888300,2.96588818359375,-0.060597968825697894,0.007875510014919564,0.007083665517484769
1761509371554045400,2.98604541015625,-0.06254384219646454,0.0021302808938082306,0.005909342774795368
1761509371574203100,3.006203125,-0.06329319925904274,-0.0035500114986207333,-0.0034082558072172104
1761509371594360300,3.0263603515625,-0.05865267997682094,-0.002528815224720165,0.0004022241253405809
1761509371614517500,3.046517578125,-0.052962359380722045,0.004810478154802695,0.010128914964897557
1761509371634675200,3.06667529296875,-0.06627776802778243,0.0077362842073198405,0.004215937194600701
1761509371654832400,3.086832275390625,-0.0575999560534954,0.0037142621496226635,-0.0035523952519521114
1761509371674990300,3.106990234375,-0.058197921946644776,0.004781407323945314,-0.00879816868463531
1761509371695147300,3.127147216796875,-0.05864800380170345,-0.006546051509445532,0.007835196270840242
1761509371715305200,3.14730517578125,-0.0502671289473772,0.004325105790654197,0.005082454363442957
1761509371735462400,3.16746240234375,-0.06253273628056048,0.005023353720502928,0.009304026714386418
1761509371755619300,3.187619384765625,-0.0593909311234951,0.005683790390612557,0.0038843854189850387
1761509371775777300,3.20777734375,-0.057144028979539865,-0.00007073628180660307,0.0068603050903882825
1761509371795934500,3.2279345703125,-0.05205576592981815,0.001333577558165416,-0.0015683452952653168
1761509371816092200,3.248092041015625,-0.062083238947391504,-0.0002958502745721489,0.007796663491893559
1761509371836249300,3.268249267578125,-0.05071078106164932,-0.003429444725718349,-0.0006192278768867254
1761509371856406500,3.288406494140625,-0.046669396716356275,0.015853448357852174,0.008647115441923961
1761509371876564200,3.308564208984375,-0.056091305056214326,0.005274314540578052,-0.0002788717403076589
1761509371896721400,3.328721435546875,-0.05878361288011074,0.004672028665337711,-0.0018843067761044948
1761509371916879400,3.34887939453125,-0.05265022469162941,0.0014903298893012105,-0.004120413531409576
1761509371937036300,3.369036376953125,-0.0529424856364727,0.004573975118342787,0.012031561115290969
1761509371957194200,3.3891943359375,-0.06446165851652622,0.000944861368369311,0.009451207499578595
1761509371977351400,3.409351318359375,-0.052637949731945986,-0.0038618813262321053,0.01242244186270982
1761509371997507600,3.429507568359375,-0.04201134177744388,-0.00011649338598363101,0.0048189080564305185
1761509372017665500,3.44966552734375,-0.06011281565725803,0.005605720185721293,-0.00676888221357949
1761509372037822700,3.46982275390625,-0.05951309619843959,-0.0010876856388524175,0.002723963337484747
1761509372057980700,3.489980712890625,-0.06415186191499232,0.008082302899705246,-0.00499494960992597
1761509372078137600,3.5101376953125,-0.06444879903495311,0.001402295412821695,-0.00718024862660095
1761509372098295800,3.5302958984375,-0.049337154620885844,-0.007648907317966223,0.005779816377302631
1761509372118452700,3.55045263671875,-0.057712768778204915,0.0032093357016332444,0.003592836860194802
1761509372138609700,3.570609619140625,-0.0635480508029461,0.001827891280595213,0.0027635738286655395
1761509372158767600,3.590767578125,-0.06818447843194007,-0.002418194457096979,0.006886416779179126
1761509372178924800,3.6109248046875,-0.05037409645318985,0.004499950900906696,-0.0020238705104216933
1761509372199082500,3.63108251953125,-0.06279226399958134,0.0032124409741722047,-0.003167359723430127
1761509372219239700,3.65123974609375,-0.05007774385511875,-0.0004440174404531717,0.001143863672344014
1761509372239398000,3.67139794921875,-0.054416649842262264,-0.002555063910828903,-0.003976895141182467
1761509372259554600,3.691554443359375,-0.06100011988580226,0.0035839411676861343,0.005822997931903228
1761509372279711700,3.711711669921875,-0.05127601372897625,0.0030707035490777344,0.0109389709724579
1761509372299869700,3.73186962890625,-0.050527825710177415,0.0013924955380149185,0.00582324452707544
1761509372320026600,3.752026611328125,-0.06534077943861484,-0.004372863055672496,-0.0036757750364486124
1761509372340184600,3.7721845703125,-0.05920914481580257,0.012645099036907777,0.005118795185303315
1761509372360341800,3.792341796875,-0.054721185746788976,0.012839251635828986,0.016798245794139802
1761509372380498700,3.812498779296875,-0.057417000702023505,0.0130204442884773,-0.0024510372807737438
1761509372400656600,3.83265673828125,-0.051284197035431855,-0.005442693377425894,0.0020977759968489407
1761509372420813800,3.852813720703125,-0.052933133286237714,-0.0010753741465508936,0.0011401282121427357
1761509372440971500,3.872971435546875,-0.06101531745493412,0.012664360859803854,0.007464298865525051
1761509372461128700,3.893128662109375,-0.05428220980763435,-0.005467663421900942,-0.0025613292548339814
1761509372481286700,3.91328662109375,-0.06759761845469474,-0.002046036676457152,-0.0017763254901394247
1761509372501443600,3.933443603515625,-0.046048634469509124,0.0037072935527190562,0.0000770107589662075
1761509372521600800,3.953600830078125,-0.05801964277029037,0.006972852953616529,0.005303641099762171
1761509372541758700,3.9737587890625,-0.05831950249969959,0.0019784787324257196,0.0019783782677259294
1761509372561913900,3.993913818359375,-0.059817047581076616,0.006422763056494295,0.00925138321169652
1761509372582070500,4.014070556640625,-0.076575290158391,-0.0014266170033253728,0.005348539687413722
1761509372602228700,4.034228759765625,-0.0559270544052124,0.0074652213141322135,0.00965097698853351
1761509372622385700,4.0543857421875,-0.034980712488293646,-0.01249663961008191,0.005109397169295698
1761509372642542600,4.07454248046875,-0.02151683528125286,0.012977381464885546,0.00123605373413302
1761509372662700500,4.094700439453125,-0.04007482075691223,-0.0019716836654581128,0.00203356992052868
1761509372682857700,4.114857666015625,-0.0556394696354866,0.011095220980094744,0.0032838713757228103
1761509372703015700,4.135015625,-0.06701192752122878,0.00042542233783751725,0.0031096838525962083
1761509372723172600,4.155172607421875,-0.060281157961487766,-0.0008719422626309096,0.0053924062286037945
1761509372743329800,4.175329833984375,-0.05549333916306495,0.007496721564093604,0.009534374004695563
1761509372763487500,4.195487548828125,-0.043971828195452686,0.005731684652948751,-0.0049154272334650155
1761509372783644700,4.215644775390625,-0.0685100571244955,-0.00591168999550864,0.014574678859999402
1761509372803802600,4.235802734375,-0.04651274484992027,-0.0015785378957167268,0.009568924728268757
1761509372823959600,4.25595947265625,-0.039926936718821526,0.02346613358496688,-0.015064973994437604
1761509372844117800,4.27611767578125,-0.07644143464565277,-0.01278016925919801,0.001344884403469041
1761509372864274700,4.296274658203125,-0.06642565206587314,-0.007985838521597906,0.00010059256395325064
1761509372884431600,4.316431640625,-0.040542438268661496,0.008975835939636453,-0.0036740397370886055
1761509372904589600,4.336589599609375,-0.07496551687419414,-0.006813570738676935,0.005341141832247376
1761509372924746800,4.356746826171875,-0.04863046765625476,-0.01225009923679754,0.004567563643865287
1761509372944904700,4.37690478515625,-0.0460889664798975,0.002563703875010833,0.004967897206218913
1761509372965061600,4.3970615234375,-0.04354629625976086,0.01778165820776485,0.007309163102740422
1761509372985219800,4.4172197265625,-0.05910568444132804,0.0034319106774404642,0.0006783741855993867
1761509373005377300,4.437377197265625,-0.04503916516602039,0.0021622652009595186,0.0008492737730965017
1761509373025534500,4.457534423828125,-0.060604398566484446,0.0014884575926233082,0.0005181786552071571
1761509373045692400,4.4776923828125,-0.06524374880492687,-0.0028670981352217494,0.00666808872022666
1761509373065849300,4.497849365234375,-0.05985737959146499,-0.008834098514541982,0.010767276800516992
1761509373086006500,4.518006591796875,-0.04788929390013218,0.004352286058524623,0.0046922403363045305
1761509373106164500,4.53816455078125,-0.057167994377017015,-0.00429124005367048,-0.0033590737700928
1761509373126321400,4.5583212890625,-0.06480126573443412,-0.006510934530291706,0.009754894020734354
1761509373146479400,4.578479248046875,-0.04908931733965873,-0.007436935934564098,0.006595635405369103
1761509373166636500,4.598636474609375,-0.052532151269912716,-0.001298013054439798,0.01256212432803586
1761509373186794200,4.618794189453125,-0.06674713910520076,0.010224237698689102,-0.006784929166082292
1761509373206951400,4.638951416015625,-0.05986322481036186,-0.005619547781674191,0.010500853549828753
1761509373227108400,4.6591083984375,-0.05178220968544483,-0.004937629932118579,0.0019703776243608444
1761509373247266300,4.679266357421875,-0.04848725979328155,0.007519024727446958,0.007069929253077134
1761509373267423500,4.699423583984375,-0.03801321205198765,-0.0028785419778432695,0.003750045849056914
1761509373287581400,4.71958154296875,-0.06779226424396037,0.021160697053652255,-0.007041461210418492
1761509373307738400,4.73973828125,-0.08080956672728061,-0.008274345739930867,0.015720862353593112
1761509373327895300,4.759895263671875,-0.069590838098526,-0.002002334532048553,0.0015009060822427272
1761509373348053500,4.780053466796875,-0.0592646743953228,0.013765015578083694,0.00027040530606172976
1761509373368210400,4.80021044921875,-0.05686930369138717,0.0008676222805399448,-0.003933731852890923
1761509373388368400,4.820368408203125,-0.05851414828896522,0.00315776077802293,0.005347845567669719
1761509373408525600,4.840525634765625,-0.0604582680940628,0.004379091867059469,0.007239367535850033
1761509373428683300,4.860683349609375,-0.06958499287962913,0.0014461254213936625,0.009686468427022919
1761509373448840400,4.88084033203125,-0.06943243266642093,-0.011233232078142464,0.003441034698812291
1761509373468997000,4.9009970703125,-0.05851122567951679,-0.0012106818308588116,0.00394643607083708
1761509373489155300,4.9211552734375,-0.05596855545938015,-0.0018185571966692804,-0.00515687130652368
1761509373509312500,4.9413125,-0.051180736660957335,0.003737533427355811,0.011966304726200177
1761509373529470500,4.961470458984375,-0.05926058274209499,-0.005020385445281863,0.008566223092284053
1761509373549627400,4.98162744140625,-0.06404957058429718,0.001442408227501437,0.005010192844830453
1761509373569784300,5.001784423828125,-0.04668810141682624,-0.0026421028734650463,0.00337547691562213
1761509373589942500,5.021942626953125,-0.056260231882333755,-0.0014753880484960973,0.00026876133824698626
1761509373610099200,5.04209912109375,-0.05311491959393024,-0.00011759849768131971,0.0029667134516406803
1761509373630257400,5.06225732421875,-0.0640396337121725,0.0050107682335656135,0.00863326957966201
1761509373650414600,5.08241455078125,-0.06882628346681595,-0.0005903671085834502,0.011562345301499589
1761509373670572300,5.102572265625,-0.06074643738567829,-0.007524194092908874,0.011233149879751726
1761509373690729500,5.1227294921875,-0.047429275172948836,0.0007562160616274923,0.0061248030232265585
1761509373710886100,5.14288623046875,-0.056557753524184226,0.0061542483134195206,-0.005761403937777504
1761509373731044400,5.16304443359375,-0.05341477932333946,-0.0029429581167176363,0.0005257409071549772
1761509373751201300,5.183201171875,-0.0574520720154047,0.0034754484250675887,0.010370952693000436
1761509373771359500,5.203359375,-0.04982113874554634,0.007309208768513053,0.005292964442120865
1761509373791516400,5.223516357421875,-0.06658055036664008,0.001820383827574551,0.0024800167800858616
1761509373811673300,5.24367333984375,-0.06283902575075626,-0.0012993282286915928,-0.006407254960108548
1761509373831831600,5.26383154296875,-0.03560673543214798,-0.0033561420274898406,-0.0037870716575067486
1761509373851988200,5.28398828125,-0.054607788500189776,0.007715168354054913,0.003195891698170453
1761509373872146400,5.304146484375,-0.05475684158205986,0.008421508258813992,0.008166154391411691
1761509373892303400,5.324303466796875,-0.062087915122508996,-0.007825624724896623,0.007549447265174239
1761509373912461300,5.34446142578125,-0.06104103641808033,0.002411572920065373,0.0019455537103582172
1761509373932618500,5.364618408203125,-0.05699965207278728,-0.0014761826329398899,-0.008183361254539341
1761509373952775200,5.384775146484375,-0.06193710847496986,0.00004398527219891548,-0.006310945845628157
1761509373972933400,5.404933349609375,-0.05130991599857807,-0.004634856726415455,0.0008202303417026996
1761509373993090300,5.42509033203125,-0.059387423992156976,-0.004530784430587664,0.00509324061893858
1761509374013252600,5.445252685546875,-0.06282675079107285,0.006980460871336981,-0.0017811569288838653
1761509374033409500,5.465409423828125,-0.0583364536345005,0.0025093159398064018,0.00463762407223694
1761509374053566500,5.48556640625,-0.056091889578104015,-0.0011707334129605442,0.008024599629407748
1761509374073724400,5.505724365234375,-0.06088029289841652,0.011687487784819676,-0.0007028236402664333
1761509374093881600,5.525881591796875,-0.06147942783534526,-0.0010698394549079238,0.0020399357292335478
1761509374114039600,5.54603955078125,-0.05654197143316268,0.004059988581063226,-0.006657412062585353
1761509374134196500,5.566196533203125,-0.05743921253383159,-0.003054857525974512,0.005421184798516333
1761509374154353700,5.586353759765625,-0.05414718525111675,0.006070743881585076,0.0051319743272848425
1761509374174511600,5.60651171875,-0.05639642548263073,0.00282089350647293,0.01046717960909009
1761509374194668500,5.62666845703125,-0.056547232130169864,0.004079159072414041,0.006530863073468208
1761509374214826500,5.646826416015625,-0.05804419268965721,-0.006032905222382396,0.0031881650494411584
1761509374234983700,5.666983642578125,-0.05744505775272846,-0.0024982100239023565,-0.005318144549150019
1761509374255141400,5.687141357421875,-0.055498599860072134,0.002086350420536473,-0.005045748215401545
1761509374275298600,5.707298583984375,-0.06028641865849495,-0.0021119049869012087,-0.004830762891005725
1761509374295455500,5.72745556640625,-0.051158524829149246,0.0021818010184913874,-0.005048561226995662
1761509374315613400,5.747613525390625,-0.06118307523727417,0.0016653211300261318,0.0027352884490974244
1761509374335770600,5.7677705078125,-0.04906242933273315,0.0016732304418459534,0.002241787577420473
1761509374355928600,5.787928466796875,-0.04771685994267463,-0.0029995380090083925,-0.004647323482343927
1761509374376085500,5.80808544921875,-0.05804185460209846,-0.0016890399323310702,0.0029343912177719174
1761509374396242700,5.82824267578125,-0.04771744446456432,0.008904871328966692,-0.0039190366072580215
1761509374416400600,5.848400634765625,-0.059091655915975566,0.0006269362593069672,-0.0011090298209805042
1761509374436557600,5.8685576171875,-0.05145780003666878,0.0045297706504352385,0.01244465369451791
1761509374456715500,5.888715576171875,-0.058191492205858224,0.0017751199137419462,0.003263303511729464
1761509374476872700,5.908872802734375,-0.05953589255213737,0.007915979022625834,0.002405828165868297
1761509374497029600,5.929029541015625,-0.06088380002975464,0.00022458426980301736,0.011712183834658935
1761509374517187600,5.9491875,-0.059089317828416824,0.002792726857913658,-0.00024485987285152077
1761509374537344500,5.969344482421875,-0.0529553451180458,0.007722895002784207,0.0008305051405448466
1761509374557502500,5.98950244140625,-0.058492520979046815,0.00034160737874917683,-0.003787263453751802
1761509374577659600,6.00965966796875,-0.05206044210493564,0.003515168514102697,0.0017257917461451142
1761509374597817600,6.029817626953125,-0.05864449667036533,-0.006910318244574591,-0.0004882127752061933
1761509374617974500,6.049974609375,-0.05265957704186439,-0.006387372082704678,0.013887134987255557
1761509374638131700,6.070131591796875,-0.06268821910321712,0.0009571819938253611,0.01411927237585187
1761509374658289700,6.09028955078125,-0.055957449543476104,0.007189208251191303,0.005242229768726975
1761509374678446600,6.110446533203125,-0.059250645869970316,0.001765256106853485,0.005791141488915309
1761509374698604500,6.1306044921875,-0.061796238699555396,-0.0031635968637652692,0.005121334202261641
1761509374718761700,6.15076171875,-0.05251929178833961,0.0009725348265841602,-0.0002618110076524317
1761509374738918700,6.170918701171875,-0.060597968825697894,-0.0006599982786923646,0.005811645420826971
1761509374759076600,6.19107666015625,-0.05580839646160602,-0.0009799235485959798,0.0004442549024708569
1761509374779233500,6.211233642578125,-0.06269172623455524,0.00275959177329205,-0.004923373077902943
1761509374799391500,6.2313916015625,-0.05147007499635219,0.0012744495157618076,0.009885616861470043
1761509374819548700,6.251548583984375,-0.055362406259775156,0.006829471560707316,-0.0031148166854400184
1761509374839706600,6.27170654296875,-0.054013914260268206,-0.006950494991336017,-0.003462214484158903
1761509374859863600,6.291863525390625,-0.05311491959393024,-0.011820283851632848,-0.0011429503568913786
1761509374880020700,6.312020751953125,-0.05865034188926219,-0.00022872158880345522,-0.0011888809910044072
1761509374900178700,6.3321787109375,-0.054905310142040246,-0.006299766864487901,0.011119241176499053
1761509374920335600,6.352335693359375,-0.05834463694095611,0.0005091368322260678,0.0007707469104789197
1761509374940493600,6.37249365234375,-0.07061433592736721,0.002159479588828981,0.0027714374747127295
1761509374960650800,6.392650634765625,-0.055803135764598846,0.002188048096187413,0.0033371176666114476
1761509374980807400,6.412807373046875,-0.06059270812869071,0.005924047153582796,0.006865173061750829
1761509375000962000,6.432962158203125,-0.05730068084597587,0.002021020966209471,0.0010370696964673697
1761509375021119200,6.453119140625,-0.06119067402184009,-0.001766781343659386,0.009421232486423105
1761509375041277200,6.473277099609375,-0.056851768034696576,0.0011326938243582845,0.002828346160566434
1761509375061434000,6.49343408203125,-0.05775134722292423,0.00914310053163208,0.007418505228729918
1761509375081591000,6.513591064453125,-0.045780923444032666,0.005433889016462489,-0.0020501374628394842
1761509375101749200,6.533749267578125,-0.044433015966415405,0.001184962867712602,0.0015076554834377019
1761509375121906000,6.553906005859375,-0.055657589814066884,-0.003167387122893706,-0.00010475728241726755
1761509375142064000,6.574064208984375,-0.051017070531845087,0.00018516557486727834,-0.007260757383750751
1761509375162221300,6.59422119140625,-0.06029635553061962,0.0029045440687797963,0.004929154364718124
1761509375182378000,6.6143779296875,-0.057601709619164464,0.0027168486101087183,-0.002434606735780835
1761509375202536200,6.6345361328125,-0.05745090297162533,-0.00383109346232377,0.0039198311917018145
1761509375222693000,6.654693115234375,-0.058198506468534465,-0.004937949592527002,0.010968151401169598
1761509375242851000,6.67485107421875,-0.057601709619164464,0.010283073480147868,-0.0005256952413823455
1761509375263008000,6.695008056640625,-0.05431143590211868,0.002771373542631045,0.005289046318829059
1761509375283166200,6.715166259765625,-0.05056932676434517,0.0018227675809059291,-0.004438110311608762
1761509375303323100,6.7353232421875,-0.05864975736737251,-0.0037338710323907435,0.007945387780200689
1761509375323480000,6.75547998046875,-0.04652618885338306,0.005064078456535935,0.0007178750789258629
1761509375343638300,6.77563818359375,-0.056849429947137826,-0.000943281332636252,0.008275998840900137
1761509375363795000,6.795794921875,-0.057897477695345874,-0.008100432211440056,0.006429932582797482
1761509375383953200,6.815953125,-0.06029109483361244,-0.008078549173194914,-0.0010767167202662676
1761509375404110000,6.836110107421875,-0.06029051031172275,-0.0021410123503766954,0.005702842150954529
1761509375424267000,6.85626708984375,-0.06223404559493065,0.002584125608531758,0.0028669702710583805
1761509375444425200,6.87642529296875,-0.04667524193525314,-0.0068077437860891215,0.0027034046066459266
1761509375464582100,6.89658203125,-0.04951484927535057,0.0025161658057011663,0.0005414773324038833
1761509375484740000,6.916739990234375,-0.05864274310469627,0.003931092371232807,0.0016569003615528343
1761509375504897000,6.93689697265625,-0.05594926623702049,0.007920034143235534,-0.006454491635318845
1761509375525054200,6.95705419921875,-0.056847091859579084,0.007908964759949594,0.0012913732510991393
1761509375545212000,6.9772119140625,-0.05639934809207916,0.011659823459759354,-0.002015650671347976
1761509375565369000,6.997369140625,-0.062384852242469785,-0.005209505676059052,0.005680173661420121
1761509375585527300,7.01752734375,-0.055951604324579234,0.005275264388648793,0.00763802059777081
1761509375605684000,7.03768408203125,-0.05834639050662517,0.008365202361159027,0.0001432991945184767
1761509375625841200,7.057841064453125,-0.0567027149528265,-0.004354112689429894,0.002049132815841585
1761509375645999000,7.0779990234375,-0.05760054057538509,0.0026094792454969136,-0.002486839246517047
1761509375666156000,7.098156005859375,-0.059545244902372355,0.001867620502784848,-0.0009105572399683296
1761509375686314000,7.11831396484375,-0.056253217619657514,0.004828607466537505,-0.00376773676937446
1761509375706471200,7.13847119140625,-0.05056640415489674,-0.004426958729932084,0.010569836265966295
1761509375726629000,7.158629150390625,-0.06059212360680103,0.004839092327933758,-0.0038282621844206
1761509375746786000,7.1787861328125,-0.05116437004804611,0.00968638622863218,-0.0000838514917064458
1761509375766943200,7.198943115234375,-0.0631377164363861,0.0046239700062200425,0.003347858256334439
1761509375787101000,7.219100830078125,-0.05999415771365165,0.0062401090991217635,-0.0010270506259519607
1761509375807258000,7.239258056640625,-0.05939502277672291,0.006070250691240653,0.005016101995809003
1761509375827416000,7.259416015625,-0.051914311632514,0.00265478882510215,0.0038493597713764754
1761509375847573000,7.279572998046875,-0.057303603455424304,0.009655899758823215,0.0016802173050586133
1761509375867730200,7.299730224609375,-0.06164250944256782,-0.004310867202747613,0.0004582103625871241
1761509375887888100,7.31988818359375,-0.05146715238690376,0.0005543276808224619,0.00015002119624987244
1761509375908045000,7.340045166015625,-0.05027005155682564,0.0013799465836957096,0.004562503876257688
1761509375928203000,7.360203125,-0.05760229414105415,0.005532344422256574,-0.0023982111149933186
1761509375948360200,7.380360107421875,-0.04951894092857837,0.010308947706921026,0.010026020846003666
1761509375968517000,7.40051708984375,-0.06238543676435947,-0.0033771482829004526,0.006699260176625102
1761509375988675000,7.420675048828125,-0.055502106991410255,-0.004127053334750235,-0.006477726380433887
1761509376008831700,7.440831787109375,-0.05011281516849994,-0.0005020403711590916,-0.003583804170368239
1761509376028989700,7.46098974609375,-0.05699497589766979,0.007875464349146932,0.003335373234096914
1761509376049146600,7.481146728515625,-0.05759411083459854,0.005977868833206594,0.01063791479980573
1761509376069303800,7.5013037109375,-0.052804538470506666,0.005116146570490673,0.0007780077683273702
1761509376089461800,7.521461669921875,-0.061035191199183464,-0.001876287866430357,-0.004171056873258203
1761509376109618700,7.54161865234375,-0.061333881884813306,0.004364597550826147,0.004863532649446278
1761509376129776600,7.561776611328125,-0.05819441481530666,0.008273742951732128,0.00564459089138545
1761509376149933800,7.581933837890625,-0.04742167638838291,-0.006815799228381365,0.006699461106024682
1761509376170091500,7.602091552734375,-0.05699965207278728,0.008925466592423617,-0.0058666909431573
1761509376190248700,7.622248779296875,-0.057147536110877986,0.0021889522784855216,-0.008125055196043103
1761509376210406000,7.642406005859375,-0.063281508821249,0.005252367570251226,0.001085630679083988
1761509376230563600,7.6625634765625,-0.05565057555139064,-0.001012437578709796,0.0044623223042581225
1761509376250720800,7.682720703125,-0.042483050942420955,0.003530904939351603,0.0019965167126152665
1761509376270878700,7.702878662109375,-0.06911795988976956,0.006190799197833985,0.006854258942091837
1761509376291035600,7.72303564453125,-0.06477905390262603,0.00003268756004981696,0.013519662514887749
1761509376311192800,7.74319287109375,-0.05011398421227932,0.010192984043899922,0.0036826614349614825
1761509376331350800,7.763350830078125,-0.052956514161825174,0.0016772398966830222,0.017424962857738136
1761509376351507700,7.7835078125,-0.055499768903851505,-0.0015684457599651068,0.007659419578826055
1761509376371665700,7.803665771484375,-0.05684767638146877,-0.00013350845286622644,-0.0003728610335383564
1761509376391822800,7.82382275390625,-0.04756839138269424,0.013038071276713161,0.0021623382661957293
1761509376411979800,7.843979736328125,-0.059689621809124946,0.004099133281363174,0.0013508026876021175
1761509376432137700,7.8641376953125,-0.06058510934412479,0.0036679296567104754,0.011241899441787972
1761509376452295000,7.884294921875,-0.05370236409306526,0.009126030665822326,0.004927254668576643
1761509376472452600,7.90445263671875,-0.059685530155897136,0.004921747376397252,-0.0013409571470227092
1761509376492609800,7.92460986328125,-0.054148938816785806,0.0069669164031744,0.008491723950812593
1761509376512766700,7.9447666015625,-0.06118190619349479,0.015158123037451877,-0.003776796858664602
1761509376532924700,7.964924560546875,-0.04681961884200573,-0.002714483123086393,0.007237212111381813
1761509376553081900,7.985081787109375,-0.051907881891727445,0.006243789760395884,-0.0012392229387536643
1761509376573238500,8.005238525390626,-0.05505085609257221,-0.0012843589884229004,0.006413949562376365
1761509376593395700,8.025395751953125,-0.06373217519819736,0.005184654362592846,0.009251940334122627
1761509376613553700,8.0455537109375,-0.05954466038048267,-0.007095593417296185,-0.001678089280053973
1761509376633710600,8.065710693359375,-0.06328501595258712,0.003165889285551384,0.007586080347979441
1761509376653867800,8.08586767578125,-0.06059212360680103,0.004616389487963169,0.011524387911288066
1761509376674025700,8.106025634765626,-0.07181435936689376,-0.0033084121619351204,0.003089600045792758
1761509376694182700,8.1261826171875,-0.049066520985960954,0.006825361641170456,-0.0032801267823670058
1761509376714340600,8.146340576171875,-0.060440147915482516,0.008362973871454595,-0.0009193524677772074
1761509376734497800,8.166497802734375,-0.05789513960778713,0.0027875392261426895,0.018385359721956773
1761509376754654700,8.18665478515625,-0.053554480054974554,0.0029237784922122954,0.011963884440250695
1761509376774812700,8.206812744140626,-0.06088496907353401,0.005528654627827927,0.001361607209406793
1761509376794969900,8.226969970703125,-0.055944590061903,-0.007298258116235956,-0.001283911463851109
1761509376815127600,8.24712744140625,-0.06537175909876823,0.00039053368754684924,0.009528757114661857
1761509376835284700,8.26728466796875,-0.04546878875494003,0.0028429500746540723,0.00380837930701673
1761509376855442000,8.28744189453125,-0.05025719207525253,0.0005423815147019923,0.005823034464521333
1761509376875599600,8.307599609375,-0.048613516521453855,0.002185390348220244,0.013080604377342387
1761509376895756800,8.3277568359375,-0.05130582434535026,0.0015622443480417132,0.0012511325722560287
1761509376915914800,8.347914794921875,-0.06178162565231323,-0.009493293075636029,-0.0007927760791964828
1761509376936071700,8.36807177734375,-0.050557636326551435,0.009586067659314721,0.003644174321787432
1761509376956229600,8.388229736328125,-0.05849018289148807,0.0020556173555552957,0.004191935264505446
1761509376976386800,8.40838671875,-0.055196986564993854,-0.003865616786433384,-0.0034798506055492904
1761509376996545800,8.4285458984375,-0.061931263256072996,0.011683012539101765,0.004202803718391806
1761509377016702700,8.44870263671875,-0.053102644634246826,0.0032871045124251395,-0.008368261967925355
1761509377036860400,8.4688603515625,-0.05370119504928589,0.0018829550692345946,-0.001821132746245712
1761509377057017600,8.489017578125,-0.06178221017420291,-0.00461659041736275,0.0026341752953361716
1761509377077175600,8.509175537109375,-0.051606853118538853,0.0006843290023505688,-0.003718618664331734
1761509377097332500,8.52933251953125,-0.05355155744552612,0.0012702756641432642,0.004732426216220483
1761509377117489700,8.54948974609375,-0.06252981367111206,0.005768664795625955,0.0023405078446958215
1761509377137647600,8.569647705078125,-0.04562368705570698,0.000557076760334894,-0.006483772528730333
1761509377157804500,8.589804443359375,-0.05624561883509159,-0.0017811021299567072,0.007234800958586856
1761509377177962500,8.60996240234375,-0.05654314047694206,0.00004729147413745522,0.006771585627319291
1761509377198119700,8.63011962890625,-0.0484592027425766,0.013470042086346074,-0.003989471494965255
1761509377218276600,8.650276611328126,-0.069111530148983,0.004016807026462629,-0.00917039953051135
1761509377238434600,8.6704345703125,-0.06267652866542339,0.000919653861876577,0.0009743431911803782
1761509377258591700,8.690591796875,-0.059981298232078546,0.005872727958299219,0.004425698354607448
1761509377278749400,8.71074951171875,-0.050853988924622534,0.0036740397370886055,0.004185642521036788
1761509377298906600,8.73090673828125,-0.051452539339661596,0.004924368591746315,0.0010063274983316659
1761509377319063600,8.7510634765625,-0.047266193565726276,-0.006028192514646798,-0.01014719040710479
1761509377339221500,8.771221435546876,-0.05594400554001331,0.0041461416277103124,-0.0018937687241937964
1761509377359378700,8.791378662109375,-0.05534603964686394,0.010165675911866128,0.004316365361772477
1761509377379536600,8.81153662109375,-0.045921793219447136,-0.0024969313822686672,0.0072647303059697145
1761509377399693600,8.831693603515625,-0.05893968022465706,-0.0010499291780404745,0.0070172674840781836
1761509377419850500,8.8518505859375,-0.05310673628747463,-0.004844380424404516,0.007117458189232274
1761509377440008700,8.8720087890625,-0.06717442460656166,0.0023358590690419076,-0.0016754771978594362
1761509377460165400,8.892165283203125,-0.05011632229983806,-0.0030481355242431164,0.004849778118729591
1761509377480323600,8.912323486328125,-0.059541737771034234,0.0010616835479158907,-0.004803272095881403
1761509377500480800,8.932480712890625,-0.05086743292808532,-0.007322881100839004,-0.0008644530759193003
1761509377520637400,8.952637451171874,-0.052666591304540634,0.004108302968507632,0.005277419813117012
1761509377540795600,8.972795654296876,-0.06374035850465297,-0.0006856259102933108,0.00641826954446733
1761509377560952600,8.99295263671875,-0.06104629711508751,0.0018491715306416152,-0.00014191095503047108
1761509377581110500,9.013110595703125,-0.06344049877524376,0.0026377189592923967,0.013085298818768933
1761509377601267500,9.033267333984375,-0.04997428348064422,0.00039091728003695604,0.002267954065138474
1761509377621424600,9.053424560546874,-0.04234218116700649,-0.0030898466409649697,0.004266343074431643
1761509377641582600,9.07358251953125,-0.056854106122255325,-0.005838560827216133,0.007321712057059631
1761509377661739500,9.093739501953126,-0.04982347683310508,0.005250449607800692,0.010182015125313772
1761509377681897700,9.113897705078125,-0.056259647360444066,0.005235946158412844,0.010382716196030378
1761509377702054400,9.134054443359375,-0.05192249493896961,0.004033292370382696,0.008852620551921427
1761509377722212600,9.154212646484375,-0.04518997181355953,0.0010684877480380236,-0.00865570974033326
1761509377742369500,9.17436962890625,-0.06778408093750476,0.0061891186974011355,-0.002453941623913124
1761509377762526500,9.1945263671875,-0.06299684666097163,0.002445840515848249,-0.0003861132407560944
1761509377782684700,9.2146845703125,-0.06539221736490726,0.0013118223840836434,0.00008407982056960463
1761509377802841600,9.234841552734375,-0.06075228260457515,-0.008113364758249371,0.0014692231691908091
1761509377822999600,9.25499951171875,-0.05760755483806133,0.005526773197995498,0.00569991040835157
1761509377843156500,9.275156494140624,-0.0532692333728075,0.0018527973929885774,-0.007821542204823345
1761509377863313700,9.295313720703126,-0.05970306581258773,-0.001904006990417838,0.01304756975742057
1761509377883471600,9.3154716796875,-0.05581073454916477,-0.00009766082135029137,0.006374110742332413
1761509377903628500,9.335628662109375,-0.048777767172455785,0.0024200941532384604,-0.0017361304770689458
1761509377923786800,9.355786865234375,-0.05596271024048328,0.013830253700865432,0.010861996746109798
1761509377943943400,9.375943359375,-0.055064884617924685,-0.0003643854661379009,0.0026953217648901045
1761509377964100600,9.3961005859375,-0.050126843693852424,0.0024186511148232967,-0.0005016293792054056
1761509377984258600,9.416258544921876,-0.05311608863770961,0.004440905056893825,0.007059152130736037
1761509378004416000,9.436416015625,-0.06673369510173797,0.0032187245844863353,0.004418757157167419
1761509378024574000,9.456573974609375,-0.053415363845229144,0.00931581761687994,0.0070058601740747685
1761509378044731100,9.476731201171875,-0.05880348662436008,0.0007776424421463161,0.0017124299410730599
1761509378064888000,9.49688818359375,-0.049375148543715476,0.0003694452337455004,-0.004909371952014044
1761509378085046000,9.5170458984375,-0.05476210227906703,-0.002232891884911805,0.0068057892910204825
1761509378105203200,9.537203125,-0.055362406259775156,-0.007596446478366851,0.0025614479858428237
1761509378125361000,9.55736083984375,-0.06523965715169906,0.0017230244003236294,0.003026563013251871
1761509378145518000,9.57751806640625,-0.05446458063721656,0.00832955565904267,0.011490403443295508
1761509378165675300,9.59767529296875,-0.05880407114624977,-0.004109764273231849,0.006389527507172897
1761509378185833000,9.6178330078125,-0.058058221215009684,-0.00009891206352040171,0.0016759338555857538
1761509378205990100,9.637990234375,-0.05267360556721687,0.0005717354733496904,0.0036838213455863294
1761509378226148000,9.658148193359375,-0.05162614234089851,0.007542615665588528,0.007641472930181771
1761509378246305000,9.678304931640625,-0.06494388907551765,-0.0000991860581561923,0.005666062937676906
1761509378266462200,9.698462158203125,-0.04414426215291023,0.009327416723128408,0.0040041393411345775
1761509378286620200,9.7186201171875,-0.05985562602579593,0.004940972666675225,0.0043905631091445685
1761509378306777000,9.738777099609376,-0.05297346529662609,-0.002241276120766997,0.0024059286305680868
1761509378326935000,9.75893505859375,-0.04699029923379421,0.004732745876628905,0.0022823387835174797
1761509378347092200,9.77909228515625,-0.05417231969237327,-0.0005996463935822248,-0.0021799469881225377
1761509378367249000,9.799248779296875,-0.05132628261148929,0.00019943156223744152,0.0063417519758455455
1761509378387407000,9.819406982421874,-0.05132394452393055,-0.0011162724125199019,0.007592665352392941
1761509378407564300,9.839564208984376,-0.06299450857341289,0.001736815463658422,0.010964342875732109
1761509378427722000,9.859721923828126,-0.0558136571586132,0.004378726540878414,0.016325659846328198
1761509378447879200,9.879879150390625,-0.05940905130207538,0.0029302721650805324,-0.0011055226896423845
1761509378468036000,9.9000361328125,-0.06509469572305679,-0.0034316823485773056,0.012185737896850332
1761509378488194000,9.920194091796875,-0.06209960556030273,-0.0035301742869894947,-0.006401117480266839
1761509378508351000,9.94035107421875,-0.05790916813313961,0.0038726493154186753,0.007638029730925336
1761509378528509200,9.96050927734375,-0.05461947893798351,0.0041642161405179645,0.004134405524143949
1761509378548666000,9.980666015625,-0.06658931819498538,0.0058223677442409095,0.0031069347730837762
1761509378568823000,10.000822998046875,-0.058660278761386866,0.010836433046590536,0.00936770306774415
1761509378588981200,10.020981201171875,-0.058361588075757025,0.004678978995932266,-0.0015222045985981822
1761509378609138000,10.041137939453124,-0.06075169808268547,0.005039921262813732,0.007801330533856525
1761509378629296000,10.061296142578126,-0.047882864159345624,0.0011645867999643088,0.00921567257749848
1761509378649453000,10.081453125,-0.06419511653482914,0.0055097033321857445,0.005197678240947425
1761509378669610000,10.10160986328125,-0.05491758510172367,0.0015270543036516755,0.006169619412487373
1761509378689768200,10.121768310546875,-0.049829906573891636,0.0011884699990507214,0.0028267478585243225
1761509378709925000,10.141925048828124,-0.04548807797729969,0.0008436568830627948,0.016847427831264212
1761509378730083000,10.1620830078125,-0.06553600974977015,0.00041694677043706177,0.0008935787057038396
1761509378750240000,10.182239990234375,-0.059548167511820786,0.004462641964666545,0.008554404790326953
1761509378770397000,10.20239697265625,-0.05476210227906703,0.009373265158850699,-0.001520286636147648
1761509378790555000,10.222554931640625,-0.05491057083904743,0.009141337832808493,0.0014274572535417974
1761509378810712000,10.242712158203124,-0.05176818116009235,0.00138818468907848,0.002308897996880114
1761509378830870300,10.262870361328124,-0.055207507959008216,0.002983125730324536,0.010670465362537651
1761509378851027000,10.28302685546875,-0.06089315237998962,0.00707276966413483,0.0013854356095660478
1761509378871184100,10.30318408203125,-0.0622404753357172,-0.004806678762519732,0.005863996662572026
1761509378891342000,10.323342041015625,-0.046530280506610865,-0.004773470612661913,0.0007487086086068302
1761509378911499000,10.3434990234375,-0.052068040889501566,0.005311815273063257,0.0013905319097917525
1761509378931657000,10.363656982421874,-0.047726796814799306,-0.008101610388373955,-0.0026882801027502865
1761509378951814100,10.383814208984376,-0.0552080924808979,0.0033032793290913103,0.0070395889137405895
1761509378971971000,10.40397119140625,-0.047125908312201495,0.001977464952273294,0.00878489821110852
1761509378992129000,10.42412890625,-0.05266016156375408,0.003623515126248821,0.007840438701538369
1761509379012286000,10.444285888671875,-0.061041620939970016,0.0047404816585127265,0.0007174092880450188
1761509379032444000,10.46444384765625,-0.05729892728030681,0.0011363653524778783,0.006197585131647065
1761509379052601000,10.48460107421875,-0.06433072561323643,0.001889667937811464,0.0008613021376077085
1761509379072758000,10.504758056640625,-0.06822305687665939,-0.0020988537090830504,0.000650636795302853
1761509379092916000,10.524916015625,-0.08767594536542891,0.009687874932819977,-0.005092044175695628
1761509379113073200,10.5450732421875,-0.051315761217474935,0.004446056156046688,-0.0037086726590525357
1761509379133231000,10.565231201171875,-0.03261222979128361,0.002558625841094181,0.004272718016291037
1761509379153388000,10.585387939453126,-0.039347675526142115,-0.0018621223437599837,-0.002327593564195558
1761509379173545200,10.605545166015625,-0.047127661877870555,-0.00019781499388627706,0.0026877412466332316
1761509379193703200,10.625703125,-0.062087915122508996,-0.0006068159198854118,-0.003258709535002708
1761509379213860000,10.645860107421875,-0.054604281368851655,-0.004294089597882703,0.005567306137783452
1761509379234018000,10.66601806640625,-0.07211071196496487,0.007890287458943202,0.005402279168646783
1761509379254175000,10.686175048828124,-0.04741583116948604,0.001223011589469388,-0.0006191365453414618
1761509379274332200,10.706332275390626,0.15613807169497013,0.019367383896093816,-0.003403351303236559
1761509379294490000,10.726489990234375,0.10754852057099341,0.03939087534705177,-0.0054936472465284165
1761509379314647000,10.74664697265625,-0.17447452337443828,0.01804115852732211,0.02478250884658191
1761509379334805000,10.766804931640625,-0.0884089358150959,0.013336140907835215,0.015945026498287915
1761509379354962200,10.786962158203124,-0.06522153697311878,0.0007432469822000712,0.0035997004258213564
1761509379375118800,10.807118896484376,-0.11075813026726246,0.01236654695700854,0.011770462493691593
1761509379395277000,10.827277099609375,-0.04919745388925075,-0.0019033676696009934,0.011989320275606587
1761509379415434200,10.847434326171875,0.08440612991452216,-0.031043016846338284,0.0022896179076749832
