time,seconds_elapsed,z,y,x
1761481512696706600,0.07270654296875,0.007914732210338116,-0.3803386986255646,-0.18965303897857666
1761481512716648700,0.092648681640625,-0.12627571821212769,-0.09520567953586578,-0.37213677167892456
1761481512736591600,0.112591552734375,0.003748934715986252,0.21166102588176727,-0.26145416498184204
1761481512756533500,0.132533447265625,0.2347601056098938,0.3218240737915039,-0.02703162655234337
1761481512776476700,0.1524765625,0.27282100915908813,0.13061052560806274,0.12950250506401062
1761481512796418600,0.17241845703125,0.0011949221370741725,-0.4278494119644165,0.011348252184689045
1761481512816361700,0.19236181640625,-0.3132847249507904,-0.6360655426979065,-0.16272111237049103
1761481512836303400,0.212303466796875,-0.38652554154396057,-0.2921033799648285,-0.3442785441875458
1761481512856246500,0.23224658203125,-0.2958410978317261,0.1828097254037857,-0.6045200228691101
1761481512876188400,0.2521884765625,-0.0631466880440712,0.4315125048160553,-0.8522158265113831
1761481512896131600,0.272131591796875,0.15008051693439484,0.2713035047054291,-0.8521552085876465
1761481512916073500,0.292073486328125,0.2781255841255188,0.0583745576441288,-0.5026455521583557
1761481512936015600,0.312015625,0.32868319749832153,0.10260946303606033,-0.014057107269763947
1761481512955958500,0.33195849609375,0.23070602118968964,0.4095430076122284,0.3294011652469635
1761481512975900700,0.351900634765625,0.09322461485862732,0.4440646767616272,0.41141802072525024
1761481512995843600,0.371843505859375,0.03370422124862671,0.25544607639312744,0.3446241617202759
1761481513015785500,0.391785400390625,0.11919094622135162,0.20261968672275543,0.29375025629997253
1761481513035728400,0.411728271484375,0.23891408741474152,0.16778786480426788,0.2718602120876312
1761481513055670500,0.43167041015625,0.3194231390953064,0.1547296643257141,0.25349190831184387
1761481513075613400,0.451613525390625,0.3062184453010559,0.09373985230922699,0.23581025004386902
1761481513095555600,0.4715556640625,0.24489577114582062,0.020182080566883087,0.23396511375904083
1761481513115498500,0.49149853515625,0.18204350769519806,0.019678136333823204,0.16959154605865479
1761481513135440600,0.511440673828125,0.10122963786125183,0.12365631014108658,0.019512927159667015
1761481513155383600,0.531383544921875,-0.01915932446718216,0.46414270997047424,-0.10205021500587463
1761481513175325700,0.55132568359375,-0.07869074493646622,0.7526288032531738,-0.10083198547363281
1761481513195268600,0.5712685546875,-0.05684107542037964,0.561144232749939,-0.04497218877077103
1761481513215211000,0.5912109375,0.010288472287356853,0.28705278038978577,0.05556759983301163
1761481513235154000,0.61115380859375,0.2889389097690582,0.5501773357391357,0.13919778168201447
1761481513255095800,0.631095703125,0.6378618478775024,0.7904970049858093,0.3177722096443176
1761481513275038700,0.651038818359375,0.6151873469352722,0.3592275381088257,0.6043513417243958
1761481513294980900,0.67098095703125,0.3054426908493042,-0.2825927138328552,0.9139533638954163
1761481513314923800,0.690923828125,0.12050221860408783,-0.5450711250305176,1.0421477556228638
1761481513334866000,0.710865966796875,0.0865011066198349,-0.3261801600456238,0.814369797706604
1761481513354808800,0.730808837890625,0.09111973643302917,0.012328662909567356,0.39086541533470154
1761481513374751000,0.7507509765625,-0.0030963572207838297,0.19553375244140625,0.11108052730560303
1761481513394692900,0.77069287109375,-0.06817016005516052,0.19288790225982666,0.1278243511915207
1761481513414635800,0.7906357421875,-0.03735921531915665,-0.0037231864407658577,0.3138643503189087
1761481513434577700,0.81057763671875,0.04594506695866585,-0.11361595243215561,0.4240364134311676
1761481513454520600,0.8305205078125,0.06812510639429092,-0.05118883401155472,0.4130745530128479
1761481513474462700,0.850462646484375,0.04524669051170349,-0.02195744588971138,0.2744554281234741
1761481513494405600,0.870405517578125,0.01596718654036522,0.08071086555719376,0.06305471807718277
1761481513514347800,0.89034765625,-0.0709725096821785,0.14716707170009613,0.011909468099474907
1761481513534290700,0.910290771484375,-0.1171044185757637,0.09558053314685822,0.07908717542886734
1761481513554232800,0.93023291015625,-0.07150667905807495,-0.07043863087892532,0.14263761043548584
1761481513574175700,0.95017578125,0.02305411733686924,-0.18490354716777802,0.16296157240867615
1761481513594118000,0.970117919921875,0.0848175659775734,-0.1097174808382988,0.13416999578475952
1761481513614060800,0.990060791015625,0.07382278144359589,-0.07360056787729263,0.0073481397703289986
1761481513634002700,1.010002685546875,-0.022716712206602097,-0.1168806254863739,-0.12361866235733032
1761481513653945600,1.029945556640625,-0.08680296689271927,-0.19090311229228973,-0.23286135494709015
1761481513673887700,1.0498876953125,-0.08892562240362167,-0.3323882222175598,-0.31467536091804504
1761481513693830700,1.06983056640625,-0.09855677932500839,-0.2872687876224518,-0.30771973729133606
1761481513713772800,1.089772705078125,-0.08637680113315582,-0.16847816109657288,-0.31217890977859497
1761481513733715700,1.1097158203125,-0.048890646547079086,-0.1584591567516327,-0.3221859335899353
1761481513753657900,1.129657958984375,0.031248509883880615,-0.2516363561153412,-0.32763469219207764
1761481513773600800,1.149600830078125,0.08681095391511917,-0.1933174580335617,-0.2326667755842209
1761481513793543000,1.16954296875,0.0500529445707798,0.00040993187576532364,-0.042905621230602264
1761481513813485800,1.18948583984375,-0.03458718955516815,0.08634378761053085,0.0796133279800415
1761481513833428000,1.209427978515625,-0.039885152131319046,0.043955832719802856,0.11357280611991882
1761481513853371000,1.229370849609375,-0.004882959183305502,-0.04021843522787094,0.07488426566123962
1761481513873312800,1.249312744140625,0.03634730353951454,-0.04323339834809303,-0.022181300446391106
1761481513893254700,1.269254638671875,0.036563754081726074,0.004214417655020952,-0.07097116857767105
1761481513913197800,1.28919775390625,0.018267285078763962,0.057101763784885406,-0.1441517323255539
1761481513933139700,1.3091396484375,-0.005027512554079294,-0.0577254481613636,-0.19350787997245789
1761481513953083000,1.329082763671875,-0.012564750388264656,-0.15968726575374603,-0.1460915356874466
1761481513973024800,1.349024658203125,0.018293507397174835,-0.17071442306041718,-0.117517851293087
1761481513992968000,1.368968017578125,0.004066633991897106,-0.06845968961715698,-0.09067665040493011
1761481514012909800,1.388909912109375,-0.02987160161137581,-0.019840862601995468,-0.0841299369931221
1761481514032853000,1.40885302734375,-0.0008504569996148348,-0.0530695915222168,-0.06421308219432831
1761481514052794600,1.428794677734375,0.059677109122276306,-0.12465538829565048,-0.06599438935518265
1761481514072737800,1.44873779296875,0.07490693777799606,-0.12276151031255722,-0.08660689741373062
1761481514092679700,1.4686796875,0.019996559247374535,-0.10799535363912582,-0.09884278476238251
1761481514112622800,1.488622802734375,-0.018161648884415627,-0.10090890526771545,-0.07326898723840714
1761481514132564700,1.508564697265625,-0.007060682401061058,-0.04393042251467705,-0.04096129164099693
1761481514152508000,1.5285078125,0.022537795826792717,0.03721939027309418,-0.02169620804488659
1761481514172449800,1.54844970703125,0.01626249961555004,0.03075910173356533,0.008824729360640049
1761481514192392700,1.568392822265625,0.013840749859809875,-0.1027984693646431,0.002640647115185857
1761481514212334000,1.588333984375,0.010801929980516434,-0.16161981225013733,-0.003572419285774231
1761481514232277200,1.60827734375,-0.0041670044884085655,-0.10949254035949707,-0.029878634959459305
1761481514252219000,1.628218994140625,-0.05008692294359207,-0.016393527388572693,-0.029388081282377243
1761481514272162000,1.648162109375,-0.10564088821411133,-0.018772700801491737,-0.002787585835903883
1761481514292104000,1.66810400390625,-0.1315501630306244,-0.16175323724746704,0.09136287868022919
1761481514312046000,1.688046142578125,-0.13520778715610504,-0.2561827600002289,0.16566790640354156
1761481514331989000,1.707989013671875,-0.22211158275604248,-0.2088523656129837,0.19292359054088593
1761481514351931100,1.72793115234375,-0.37803617119789124,-0.22695331275463104,0.13809803128242493
1761481514371874000,1.7478740234375,-0.5075582265853882,-0.1746145486831665,0.04151272401213646
1761481514391816200,1.767816162109375,-0.7238274216651917,-0.10744259506464005,0.0915733128786087
1761481514411759000,1.787759033203125,-0.8002141118049622,-0.8999983668327332,0.17709384858608246
1761481514431701000,1.807700927734375,-0.983431339263916,-2.1014771461486816,0.08515292406082153
1761481514451644000,1.827643798828125,-0.7002004981040955,-2.2461211681365967,-0.4319291114807129
1761481514471586000,1.8475859375,-0.0653647929430008,-1.6844017505645752,-0.967687726020813
1761481514491529000,1.867529052734375,0.2964080572128296,-0.883417010307312,-1.1492851972579956
1761481514511471000,1.88747119140625,0.28633880615234375,0.20466430485248566,-1.2533257007598877
1761481514531414000,1.9074140625,0.34952807426452637,0.8551384210586548,-1.393254280090332
1761481514551356200,1.927356201171875,0.4108957350254059,0.42766502499580383,-1.4616080522537231
1761481514571299000,1.947299072265625,0.7639172673225403,-0.05625707656145096,-1.0070048570632935
1761481514591241200,1.9672412109375,1.3104182481765747,0.8701825737953186,-0.3578793704509735
1761481514611184000,1.98718408203125,1.1571800708770752,0.3118310272693634,0.19813455641269684
1761481514631126300,2.007126220703125,0.5817626118659973,0.026855016127228737,0.8656253218650818
1761481514651069200,2.027069091796875,-0.07603852450847626,0.2391190230846405,0.6004775166511536
1761481514671011000,2.047010986328125,-0.1054345890879631,0.7924951314926147,-0.32830578088760376
1761481514690953000,2.066952880859375,0.03286160156130791,0.8223339915275574,-0.7053137421607971
1761481514710896000,2.086896240234375,-0.022644532844424248,0.802481472492218,-0.23907464742660522
1761481514730838000,2.106838134765625,-0.5743046402931213,0.8484857678413391,0.3065364956855774
1761481514750781200,2.12678125,-0.9639710783958435,0.46411433815956116,0.2614717483520508
1761481514770723000,2.14672314453125,-0.7357501983642578,-0.28127387166023254,-0.18442170321941376
1761481514790666000,2.166666015625,0.15683498978614807,-0.3368597626686096,-0.41773560643196106
1761481514810608000,2.186608154296875,0.8929535150527954,0.224983811378479,-0.6868425607681274
1761481514830551000,2.206551025390625,1.1565039157867432,0.4631841778755188,-0.6775281429290771
1761481514850493000,2.226492919921875,0.8260868787765503,0.14147502183914185,-0.36369413137435913
1761481514870435800,2.246435791015625,0.1873965859413147,-0.35038092732429504,-0.008047550916671753
1761481514890378000,2.2663779296875,-0.14944477379322052,-0.27682599425315857,0.05255094915628433
1761481514910321000,2.28632080078125,-0.12507525086402893,0.3512161076068878,0.0005266295047476888
1761481514930263000,2.306262939453125,-0.011758547276258469,0.7968185544013977,0.014780133962631226
1761481514950206000,2.3262060546875,-0.06794974207878113,0.5578917860984802,0.26988038420677185
1761481514970148000,2.346148193359375,-0.3320261538028717,-0.10582304000854492,0.5725154280662537
1761481514990091000,2.366091064453125,-0.5217534899711609,-0.4226934015750885,0.8357385396957397
1761481515010033200,2.386033203125,-0.4914575517177582,-0.21840783953666687,0.8206274509429932
1761481515029976000,2.40597607421875,-0.34429630637168884,0.20391951501369476,0.5507151484489441
1761481515049918000,2.42591796875,-0.24340669810771942,0.2931916117668152,0.3106927275657654
1761481515069860900,2.44586083984375,-0.23573945462703705,-0.15286710858345032,0.5137150287628174
1761481515089803000,2.465802978515625,-0.02444063313305378,-1.528016448020935,0.5400009751319885
1761481515109745200,2.4857451171875,0.062333784997463226,-2.269104242324829,0.6969229578971863
1761481515129688000,2.50568798828125,-0.2880258858203888,-1.6392914056777954,0.8578450679779053
1761481515149630000,2.5256298828125,-0.5862681269645691,-0.219258651137352,0.5776770114898682
1761481515169573000,2.545572998046875,-0.18660813570022583,1.0556926727294922,-0.047955773770809174
1761481515189515000,2.565514892578125,0.33588868379592896,0.9284381866455078,-0.4568053185939789
1761481515209461000,2.5854609375,0.3740636706352234,-0.1782553791999817,-0.15702079236507416
1761481515229403100,2.605403076171875,0.420902281999588,-0.8534203767776489,0.44803422689437866
1761481515249346000,2.625345947265625,0.7580498456954956,-0.9768754839897156,0.5837634205818176
1761481515269288000,2.645287841796875,0.8782329559326172,-0.7060426473617554,0.160060316324234
1761481515289231000,2.665231201171875,0.7711219787597656,-0.7117859125137329,-0.4023355543613434
1761481515309173000,2.685173095703125,0.655055820941925,-0.9971951842308044,-0.7579002380371094
1761481515329116200,2.7051162109375,0.7301778197288513,-1.0588682889938354,-0.7986688017845154
1761481515349058000,2.72505810546875,0.8928084969520569,-0.8412802219390869,-0.9116881489753723
1761481515369001200,2.745001220703125,0.7013872861862183,-0.14921486377716064,-1.1693214178085327
1761481515388942800,2.76494287109375,0.25148245692253113,0.38490140438079834,-1.6118757724761963
1761481515408886000,2.784885986328125,-0.20696116983890533,0.8289514183998108,-1.7826597690582275
1761481515428828000,2.804827880859375,-0.5642492771148682,0.9404389262199402,-1.5902401208877563
1761481515448771000,2.82477099609375,-0.5134767889976501,0.916878879070282,-0.9827175736427307
1761481515468713000,2.844712890625,-0.14537683129310608,0.6242779493331909,-0.5302452445030212
1761481515488655000,2.864655029296875,0.2399178296327591,0.2263677567243576,-0.4398312568664551
1761481515508598000,2.884597900390625,0.25527963042259216,0.05875731259584427,-0.5046406984329224
1761481515528540200,2.9045400390625,-0.22499409317970276,-0.05095083266496658,-0.6273843050003052
1761481515548483000,2.924483154296875,-0.6446202397346497,-0.36907848715782166,-0.4330429136753082
1761481515568425000,2.944425048828125,-0.5099973678588867,-0.3444214165210724,0.09281288087368011
1761481515588368000,2.964367919921875,0.12220589071512222,-0.06283899396657944,0.8605794906616211
1761481515608310000,2.98431005859375,0.3401736915111542,0.17093496024608612,0.8555018305778503
1761481515628253000,3.0042529296875,0.25218528509140015,-0.8896370530128479,0.5527366399765015
1761481515648195000,3.024195068359375,-0.07944535464048386,-2.401296615600586,0.5191367268562317
1761481515668138000,3.044137939453125,-0.47046658396720886,-1.473534107208252,0.9947831034660339
1761481515688080100,3.064080078125,-0.7876869440078735,1.0619943141937256,1.6797696352005005
1761481515708023000,3.08402294921875,-0.6343421936035156,1.6974154710769653,1.2342894077301025
1761481515727965200,3.103965087890625,-0.5798603296279907,0.9350600838661194,0.17691843211650848
1761481515747908000,3.123908203125,-0.6542125344276428,0.04880031570792198,-0.2000468224287033
1761481515767850200,3.143850341796875,-0.5491485595703125,-0.044521257281303406,0.18619213998317719
1761481515787792000,3.1637919921875,-0.11277149617671967,0.3652370572090149,0.45495739579200745
1761481515807735000,3.183735107421875,-0.10989317297935486,0.609193742275238,-0.09921590238809586
1761481515827677000,3.203677001953125,-0.43381211161613464,0.4698655903339386,-0.951789140701294
1761481515847620000,3.2236201171875,-0.6231195330619812,0.36945241689682007,-1.3945672512054443
1761481515867562000,3.24356201171875,-0.34464311599731445,0.18392956256866455,-1.3512126207351685
1761481515887505200,3.263505126953125,0.048511821776628494,0.03910807892680168,-1.0597838163375854
1761481515907447000,3.283447021484375,-0.07357382774353027,0.07651966065168381,-0.8126481175422668
1761481515927390200,3.30339013671875,-0.29760730266571045,0.42611557245254517,-0.4404197931289673
1761481515947332000,3.32333203125,-0.16357871890068054,0.6358063817024231,-0.1335899829864502
1761481515967275300,3.343275146484375,0.18240153789520264,0.6089535355567932,0.3000630736351013
1761481515987217000,3.363216796875,0.515730082988739,0.07892785966396332,0.4844471216201782
1761481516007160000,3.38316015625,0.6346527934074402,-0.553150475025177,0.558894693851471
1761481516027102000,3.40310205078125,0.40166735649108887,-0.48697054386138916,0.5313853621482849
1761481516047045000,3.423045166015625,0.08006186783313751,-0.34239789843559265,0.2817128598690033
1761481516066987000,3.442987060546875,-0.17339619994163513,-0.6822724938392639,-0.02777251787483692
1761481516086930000,3.462929931640625,-0.04572068527340889,-0.8379937410354614,-0.06862132996320724
1761481516106872000,3.4828720703125,0.19445157051086426,-0.2916342616081238,-0.012158938683569431
1761481516126815000,3.50281494140625,0.10824715346097946,-0.23693065345287323,0.15768912434577942
1761481516146757000,3.522757080078125,-0.03383459523320198,-1.1728577613830566,0.5643675327301025
1761481516166699300,3.54269921875,-0.3050418496131897,-1.134729266166687,1.2755820751190186
1761481516186642200,3.56264208984375,-0.7502484917640686,-0.025051964446902275,1.1829833984375
1761481516206584000,3.582583984375,-0.6378596425056458,0.814521312713623,0.635569155216217
1761481516226527000,3.60252685546875,-0.274624764919281,0.8030481934547424,0.8917048573493958
1761481516246469000,3.62246923828125,-0.12948322296142578,0.3378486633300781,1.3845112323760986
1761481516266412000,3.642412109375,0.023664133623242378,0.20997944474220276,1.3937005996704102
1761481516286354200,3.662354248046875,0.3543177545070648,0.5419183373451233,1.0785373449325562
1761481516306297000,3.682297119140625,0.6424434185028076,1.1988415718078613,0.5654621124267578
1761481516326239200,3.7022392578125,0.5559022426605225,1.4326884746551514,-0.17638467252254486
1761481516346182100,3.72218212890625,0.36299797892570496,0.8691184520721436,-0.8748555779457092
1761481516366124000,3.7421240234375,0.2858280837535858,0.24842298030853271,-1.2222014665603638
1761481516386067000,3.76206689453125,0.40605977177619934,0.32963889837265015,-1.0756014585494995
1761481516406008800,3.7820087890625,0.3510856032371521,0.5754315257072449,-0.9223077297210693
1761481516425952000,3.801951904296875,0.02366477996110916,0.4920373558998108,-0.8623117804527283
1761481516445894000,3.821893798828125,-0.39364415407180786,0.3273926079273224,-0.8764974474906921
1761481516465836000,3.8418359375,-0.5481279492378235,0.25137174129486084,-0.8824480175971985
1761481516485779000,3.861779052734375,-0.3026854991912842,0.2872495949268341,-0.7434123754501343
1761481516505721000,3.88172119140625,0.10994063317775726,0.039147645235061646,-0.5665746927261353
1761481516525664000,3.9016640625,0.28059709072113037,-0.3920198380947113,-0.4376130998134613
1761481516545606000,3.92160595703125,0.026559749618172646,-0.8566391468048096,-0.33141690492630005
1761481516565548800,3.941548828125,-0.11948714405298233,-0.7659158706665039,-0.18297426402568817
1761481516585491000,3.961490966796875,-0.013496113941073418,-0.30665040016174316,-0.16352395713329315
1761481516605433900,3.981433837890625,0.15553100407123566,0.16256579756736755,-0.18260684609413147
1761481516625376000,4.0013759765625,0.2853817939758301,0.22470393776893616,-0.05428814888000488
1761481516645319000,4.02131884765625,0.4392845034599304,-0.4354437589645386,0.23509132862091064
1761481516665261000,4.041260986328125,0.7953912615776062,-1.464963674545288,0.1969543695449829
1761481516685204000,4.061203857421875,1.011273741722107,-2.1824612617492676,-0.6142154335975647
1761481516705146000,4.08114599609375,0.6197413802146912,-1.027955174446106,-0.7134383916854858
1761481516725089000,4.101089111328125,-0.32175925374031067,0.17877690494060516,-0.17713488638401031
1761481516745031200,4.12103125,-0.5141173601150513,0.46710309386253357,-0.5674195885658264
1761481516764974000,4.14097412109375,-0.334343284368515,0.361921101808548,-0.8436273336410522
1761481516784916000,4.160916015625,-0.038100648671388626,0.4416326582431793,-0.06615546345710754
1761481516804857900,4.18085791015625,0.4946282207965851,0.2962844669818878,0.7239609956741333
1761481516824801000,4.200801025390625,0.9597236514091492,-0.28482329845428467,0.9318343997001648
1761481516844743000,4.220742919921875,0.9383476972579956,-0.8497297763824463,0.7335343360900879
1761481516864686000,4.24068603515625,0.36609897017478943,-0.4753551185131073,0.20858950912952423
1761481516884628000,4.2606279296875,-0.32681211829185486,0.1811632364988327,-0.5746912360191345
1761481516904571100,4.280571044921875,-0.6297544240951538,0.3776076138019562,-0.8944839835166931
1761481516924513000,4.300512939453125,-0.38910427689552307,0.13350850343704224,-0.5779131650924683
1761481516944456200,4.320456298828125,-0.13176049292087555,-0.2136915773153305,-0.07236737757921219
1761481516964397800,4.340397705078125,-0.2530251443386078,-0.2534048557281494,0.18467405438423157
1761481516984341000,4.360341064453125,-0.49668508768081665,0.009682536125183105,0.10920117795467377
1761481517004283000,4.380282958984375,-0.650894284248352,0.13715942203998566,0.01815418154001236
1761481517024226000,4.40022607421875,-0.6467603445053101,0.11634724587202072,0.09389603137969971
1761481517044168000,4.42016796875,-0.561963677406311,0.09869986772537231,0.23960134387016296
1761481517064111000,4.440111083984375,-0.5095414519309998,0.0020007765851914883,0.17090576887130737
1761481517084053000,4.460052978515625,-0.5532487034797668,-0.020656416192650795,0.01739855669438839
1761481517103995100,4.4799951171875,-0.5787426233291626,0.0487685464322567,-0.010312214493751526
1761481517123938000,4.49993798828125,-0.48309290409088135,0.14884227514266968,0.15470221638679504
1761481517143880200,4.519880126953125,-0.31660282611846924,0.06619469821453094,0.2569750249385834
1761481517163823000,4.539822998046875,0.05128851532936096,-0.24594394862651825,0.2346157729625702
1761481517183765000,4.559764892578125,0.46571049094200134,-0.3621242642402649,0.34772592782974243
1761481517203708700,4.579708740234375,0.5354819297790527,-0.41233909130096436,0.21235179901123047
1761481517223650800,4.59965087890625,0.22154708206653595,-1.136334776878357,-0.29962217807769775
1761481517243593700,4.61959375,-0.1270110160112381,-0.8839181661605835,0.3224222958087921
1761481517263535600,4.63953564453125,-0.28407078981399536,-0.03355918452143669,1.066297173500061
1761481517283478800,4.659478759765625,-0.07098684459924698,0.7325160503387451,0.6354445815086365
1761481517303420700,4.679420654296875,0.08335792273283005,0.745775580406189,-0.25024548172950745
1761481517323363800,4.69936376953125,0.20458221435546875,0.35667622089385986,-0.39435991644859314
1761481517343305500,4.719305419921875,0.4315703213214874,-0.048179347068071365,-0.058012887835502625
1761481517363248600,4.73924853515625,0.6364542841911316,-0.427677184343338,0.26191914081573486
1761481517383190500,4.7591904296875,0.5930154919624329,-0.7941124439239502,0.37546658515930176
1761481517403132700,4.779132568359375,0.20913706719875336,-0.44295597076416016,0.2530794143676758
1761481517423075600,4.79907568359375,-0.01830391027033329,0.35872843861579895,-0.0993899330496788
1761481517443017700,4.819017822265625,-0.029960688203573227,0.9226754903793335,-0.7392070889472961
1761481517462960600,4.838960693359375,-0.08373984694480896,0.8720064163208008,-1.196603536605835
1761481517482902800,4.85890283203125,-0.33320364356040955,0.371207594871521,-0.8707389235496521
1761481517502845700,4.878845703125,-0.49183472990989685,0.2183552086353302,-0.07100582867860794
1761481517522787600,4.89878759765625,-0.4331572949886322,0.4761890172958374,0.48712629079818726
1761481517542730500,4.91873046875,-0.18367016315460205,0.6816638112068176,0.5683739185333252
1761481517562672600,4.938672607421875,0.07797423750162125,0.5127344131469727,0.3199033737182617
1761481517582615600,4.958615478515625,0.15324482321739197,0.3519214987754822,-0.02222306840121746
1761481517602557700,4.9785576171875,0.09468048810958862,0.5169357061386108,-0.08248081058263779
1761481517622500600,4.99850048828125,-0.08514974266290665,0.4621312916278839,-0.052272357046604156
1761481517642442800,5.01844287109375,-0.15708476305007935,0.23684123158454895,0.07864771038293839
1761481517662384600,5.038384521484375,-0.10739987343549728,0.14104591310024261,0.07957524061203003
1761481517682327800,5.058327880859375,-0.06231292709708214,-0.008755932562053204,0.05130387842655182
1761481517702269700,5.078269775390625,0.048870354890823364,-0.4199126362800598,0.15572091937065125
1761481517722212900,5.098212890625,0.0792168453335762,-0.45058268308639526,0.6230059862136841
1761481517742154500,5.118154541015625,-0.0892641618847847,-0.014610061421990395,0.9995074272155762
1761481517762097700,5.13809765625,-0.37467554211616516,-0.37271517515182495,0.6361169219017029
1761481517782039600,5.15803955078125,-0.6221680045127869,-0.6438820362091064,0.8937132954597473
1761481517801982700,5.177982666015625,-0.4503687024116516,0.37723177671432495,1.4921623468399048
1761481517821924600,5.197924560546875,-0.045831482857465744,1.1992243528366089,0.8589525818824768
1761481517841867800,5.21786767578125,0.015768248587846756,0.9763385653495789,-0.1798838973045349
1761481517861809700,5.2378095703125,-0.11479014158248901,-0.12515109777450562,-0.32535648345947266
1761481517881752800,5.2577529296875,-0.015563590452075005,-0.893376350402832,0.2745692729949951
1761481517901694700,5.27769482421875,0.3425806760787964,-0.8593162894248962,0.602822482585907
1761481517921638000,5.297637939453125,0.3990876078605652,-0.12438584864139557,0.4518018066883087
1761481517941579500,5.31757958984375,0.10679088532924652,0.4437655508518219,-0.05794742330908775
1761481517961521700,5.337521728515625,-0.27482056617736816,0.306142121553421,-0.6901049613952637
1761481517981464600,5.357464599609375,-0.3837321996688843,-0.05210956558585167,-1.083659052848816
1761481518001406700,5.37740673828125,-0.03923782706260681,-0.2416495680809021,-1.0003389120101929
1761481518021349600,5.397349609375,0.07750029861927032,-0.2798973023891449,-0.6700159311294556
1761481518041291800,5.417291748046875,-0.13823843002319336,-0.1244860365986824,-0.29437336325645447
1761481518061234700,5.437234619140625,-0.52781081199646,-0.296608567237854,-0.3136020004749298
1761481518081177600,5.457177490234375,-0.47905686497688293,0.06525629758834839,-0.16901805996894836
1761481518101119700,5.47711962890625,-0.1620803326368332,0.23114095628261566,0.01982349529862404
1761481518121062700,5.497062744140625,0.21847271919250488,0.3348301947116852,0.36224034428596497
1761481518141004500,5.517004638671875,0.28245845437049866,0.3334261178970337,0.8873841762542725
1761481518160947500,5.536947509765625,-0.14393824338912964,0.6600751280784607,1.1716127395629883
1761481518180889600,5.5568896484375,-0.5197858810424805,1.195662498474121,1.2948898077011108
1761481518200831700,5.576831787109375,-0.6577222943305969,0.7513975501060486,1.1100648641586304
1761481518220774100,5.596774169921875,-0.49750328063964844,-0.040319718420505524,0.8366261124610901
1761481518240716300,5.61671630859375,-0.18232129514217377,-0.7972139120101929,0.5786108374595642
1761481518260659200,5.6366591796875,-0.43320536613464355,-1.1635595560073853,-0.07830458134412766
1761481518280601300,5.656601318359375,-0.27647125720977783,-0.9991892576217651,-1.185548186302185
1761481518300544300,5.676544189453125,0.4862627685070038,-0.17950192093849182,-2.2183115482330322
1761481518320486400,5.696486328125,0.7266917824745178,0.8660046458244324,-2.241485595703125
1761481518340429300,5.71642919921875,0.30669647455215454,1.8904865980148315,-0.8018330931663513
1761481518360371500,5.736371337890625,-0.007387202233076096,1.5138485431671143,0.7806069850921631
1761481518380314400,5.756314453125,0.3563331663608551,0.4175581932067871,0.9011926651000977
1761481518400256300,5.77625634765625,0.9451978206634521,0.33516374230384827,-0.027465853840112686
1761481518420199200,5.79619921875,1.3383660316467285,0.5326534509658813,-0.8246211409568787
1761481518440141300,5.816141357421875,0.98920077085495,0.27648764848709106,-0.7361330986022949
1761481518460084200,5.836084228515625,0.44409772753715515,0.045478951185941696,-0.6400002241134644
1761481518480026400,5.8560263671875,-0.26265451312065125,-0.20350754261016846,-0.6285112500190735
1761481518499968300,5.87596826171875,-0.5285809636116028,-0.22150903940200806,-0.7482686638832092
1761481518519911200,5.8959111328125,-0.3097449839115143,-0.38756775856018066,-1.0683684349060059
1761481518539853300,5.915853271484375,-0.00009641118231229484,-0.8473663330078125,-1.0881431102752686
1761481518559796200,5.935796142578125,0.16988857090473175,-0.9591696262359619,-0.7050872445106506
1761481518579738400,5.95573828125,0.33533573150634766,-0.24066975712776184,0.011864373460412025
1761481518599681300,5.975681396484375,0.3501548767089844,0.5242436528205872,0.658294677734375
1761481518619623200,5.995623046875,-0.10186795145273209,0.5645087957382202,0.9445361495018005
1761481518639566000,6.015566162109375,-0.08425156772136688,-0.08352739363908768,0.8026933670043945
1761481518659508200,6.03550830078125,0.1382303386926651,-0.33683106303215027,0.4784281253814697
1761481518679451100,6.055451171875,0.24518677592277527,-0.47291675209999084,0.0716095045208931
1761481518699393300,6.075393310546875,0.15090101957321167,-0.5756354928016663,-0.03852742910385132
1761481518719336200,6.095336181640625,0.05843980610370636,-0.5492013692855835,0.3761441707611084
1761481518739278300,6.1152783203125,0.07688421756029129,-0.3239627182483673,0.8882593512535095
1761481518759221200,6.13522119140625,-0.06964381039142609,-0.43054842948913574,1.0579869747161865
1761481518779163400,6.155163330078125,-0.16793426871299744,-0.7425453066825867,0.9291345477104187
1761481518799105300,6.175105224609375,0.02785368263721466,-0.9605152606964111,0.6749463677406311
1761481518819048200,6.195048095703125,0.09046722203493118,-0.249212384223938,0.7599729299545288
1761481518838990300,6.214990234375,-0.14834779500961304,0.649487316608429,1.400816559791565
1761481518858933200,6.234933349609375,-0.30892616510391235,0.8581680059432983,1.8395094871520996
1761481518878875100,6.254875244140625,-0.2225816398859024,1.0851801633834839,1.3908321857452393
1761481518898818300,6.274818359375,-0.06661868095397949,1.0298329591751099,0.2959555983543396
1761481518918760200,6.29476025390625,0.1119522824883461,0.581038236618042,-0.24344408512115479
1761481518938703400,6.314703369140625,0.48344290256500244,0.00022791046649217606,0.27064570784568787
1761481518958645200,6.334645263671875,0.5574473738670349,-0.5172232985496521,1.0590391159057617
1761481518978588400,6.35458837890625,0.11067216843366623,-0.6581767201423645,1.1089946031570435
1761481518998530000,6.374530029296875,-0.3398810029029846,-0.645406186580658,-0.21262070536613464
1761481519018473200,6.39447314453125,-0.6350111365318298,0.30036255717277527,-1.8701941967010498
1761481519038415000,6.4144150390625,-0.4284690022468567,1.365064024925232,-2.4063658714294434
1761481519058357200,6.434357177734375,0.17482014000415802,1.3999141454696655,-1.5422859191894531
1761481519078300200,6.454300048828125,0.4059911072254181,0.30438944697380066,0.26061463356018066
1761481519098242300,6.4742421875,0.2686345875263214,-0.3673151731491089,1.1695523262023926
1761481519118185200,6.494185302734375,-0.0059538972564041615,-0.20002616941928864,0.38189342617988586
1761481519138127400,6.51412744140625,-0.17573322355747223,0.45076432824134827,-0.8429429531097412
1761481519158070300,6.5340703125,-0.16630855202674866,0.687673807144165,-1.3237119913101196
1761481519178012400,6.554012451171875,-0.024996839463710785,0.3615630865097046,-0.7803788185119629
1761481519197955300,6.573955322265625,-0.14140403270721436,-0.16647452116012573,0.08091099560260773
1761481519217896700,6.593896728515625,-0.46826696395874023,-0.5532429218292236,0.31931543350219727
1761481519237839600,6.613839599609375,-0.5011705160140991,-0.5305787324905396,-0.08093342930078506
1761481519257781800,6.63378173828125,-0.18178525567054749,-0.5688577890396118,-0.4508601129055023
1761481519277724700,6.653724609375,0.35929378867149353,-0.4004596769809723,-0.2903279662132263
1761481519297666800,6.673666748046875,0.061672382056713104,-0.6501493453979492,0.3297535181045532
1761481519317608700,6.693608642578125,-0.9070450663566589,-1.5699149370193481,0.9699277281761169
1761481519337551600,6.713551513671875,-1.1684719324111938,-1.4968852996826172,1.033939003944397
1761481519357493800,6.73349365234375,-0.702254056930542,0.27442851662635803,0.4361379146575928
1761481519377436700,6.753436767578125,-0.3699655532836914,1.7177813053131104,0.2492731511592865
1761481519397378600,6.773378662109375,-0.07828019559383392,1.2806775569915771,0.3660747706890106
1761481519417321700,6.79332177734375,0.22225670516490936,-0.7300124168395996,0.020981526002287865
1761481519437263600,6.813263671875,0.35792556405067444,-1.3691556453704834,-0.3476998805999756
1761481519457206800,6.833206787109375,0.5679395794868469,-0.39704012870788574,-0.5113946795463562
1761481519477148700,6.853148681640625,0.5831679105758667,0.5323212146759033,-0.4467862844467163
1761481519497091800,6.873091796875,0.16891944408416748,0.5732360482215881,-0.3615512549877167
1761481519517033500,6.893033447265625,-0.07551535218954086,-0.13178877532482147,-0.5095450282096863
1761481519536976600,6.9129765625,0.09036842733621597,-0.44982588291168213,-0.6107648611068726
1761481519556918500,6.93291845703125,0.36123356223106384,-0.08308502286672592,-0.5468303561210632
1761481519576861700,6.95286181640625,0.33514603972435,0.6064124703407288,-0.5618346333503723
1761481519596803600,6.972803466796875,-0.10182800889015198,0.9081976413726807,-0.8657259941101074
1761481519616745700,6.992745849609375,-0.39677977561950684,0.19941754639148712,-0.8773509860038757
1761481519636688600,7.012688720703125,-0.2660377323627472,-0.14591708779335022,-0.4518744945526123
1761481519656630800,7.032630859375,0.07039324194192886,-0.04902365058660507,-0.2104484587907791
1761481519676573700,7.05257373046875,0.16822780668735504,0.2510901689529419,-0.43077054619789124
1761481519696515600,7.072515625,-0.018316347151994705,0.11668112874031067,-0.8863745927810669
1761481519716458800,7.092458740234375,-0.23985826969146729,-0.32138746976852417,-1.1502044200897217
1761481519736400600,7.112400634765625,-0.5587438344955444,-0.7386251091957092,-0.9293609261512756
1761481519756343600,7.132343505859375,-0.6837723255157471,-0.4611077904701233,-0.4320397973060608
1761481519776285700,7.15228564453125,-0.49958258867263794,-0.18523475527763367,0.010636787861585617
1761481519796228600,7.172228515625,-0.2658119201660156,-0.12479338049888611,0.48916634917259216
1761481519816170800,7.192170654296875,-0.20808804035186768,0.1273101568222046,1.1670323610305786
1761481519836113700,7.21211376953125,-0.06971558928489685,0.22095872461795807,1.263558030128479
1761481519856055800,7.232055908203125,-0.16887517273426056,0.053520023822784424,0.6237361431121826
1761481519875997700,7.251997802734375,-0.2997412383556366,-0.374729722738266,0.06759345531463623
1761481519895940900,7.27194091796875,0.10206004232168198,-0.0569111593067646,0.10963726788759232
1761481519915882500,7.291882568359375,0.5884935855865479,0.26820704340934753,0.19343127310276031
1761481519935825700,7.31182568359375,0.5230791568756104,-0.0028658718802034855,0.058927398175001144
1761481519955767600,7.331767578125,0.12239322066307068,-0.7760744690895081,-0.19328735768795013
1761481519975710700,7.351710693359375,0.09772862493991852,-0.8092954754829407,-0.5032164454460144
1761481519995652600,7.371652587890625,0.347324013710022,-0.17192237079143524,-0.8796305060386658
1761481520015595800,7.391595703125,0.2748804986476898,0.8233636617660522,-0.9965720772743225
1761481520035537700,7.41153759765625,0.18992745876312256,1.150689721107483,-0.6479901075363159
1761481520055480800,7.431480712890625,0.4308232367038727,0.2739098370075226,-0.19524158537387848
1761481520075422700,7.451422607421875,0.6486688852310181,-0.7833216786384583,-0.15059785544872284
1761481520095364600,7.471364501953125,0.575376033782959,-0.7623143792152405,-0.3603309094905853
1761481520115307500,7.4913076171875,0.39686471223831177,0.2600650191307068,-0.4273342788219452
1761481520135249700,7.511249755859375,0.2147483378648758,1.2434800863265991,-0.24148480594158173
1761481520155192600,7.531192626953125,0.02342209964990616,1.5223617553710938,0.06871820241212845
1761481520175134700,7.551134765625,0.04277442768216133,1.1415458917617798,0.27294251322746277
1761481520195077600,7.57107763671875,0.2195187360048294,0.6848536729812622,0.3383534550666809
1761481520215020500,7.5910205078125,0.3355482220649719,0.42541569471359253,0.26593834161758423
1761481520234963700,7.610963623046875,0.36241525411605835,0.323842853307724,0.24267081916332245
1761481520254905600,7.630905517578125,0.2554086148738861,0.15787796676158905,0.31049397587776184
1761481520274848800,7.650848876953125,0.13952739536762238,0.02859075739979744,0.46304845809936523
1761481520294790700,7.670790771484375,0.012398098595440388,-0.10078628361225128,0.6702311038970947
1761481520314733800,7.69073388671875,-0.10275815427303314,-0.32709750533103943,0.734898030757904
1761481520334675500,7.710675537109375,-0.03691329434514046,-0.3390677869319916,0.5612480640411377
1761481520354618600,7.73061865234375,0.062632717192173,-0.5872148871421814,0.21277816593647003
1761481520374560500,7.750560546875,-0.40269485116004944,-1.518960952758789,0.0231094378978014
1761481520394502700,7.770502685546875,-0.7496498823165894,-1.820742130279541,0.03702205792069435
1761481520414445600,7.790445556640625,-0.3349843919277191,-0.8296915292739868,0.1765798181295395
1761481520434387700,7.8103876953125,0.1427314579486847,0.4084409773349762,0.6669843792915344
1761481520454330600,7.83033056640625,0.2228117287158966,0.673987090587616,0.9970064163208008
1761481520474272800,7.850272705078125,-0.22463351488113403,0.3909049928188324,0.6170697212219238
1761481520494215700,7.870215576171875,-0.44760218262672424,0.09881754964590073,0.0658341720700264
1761481520514157600,7.890157470703125,0.062207046896219254,-0.1775866448879242,0.029657086357474327
1761481520534100500,7.9101005859375,0.2976230978965759,0.14918893575668335,-0.04983032867312431
1761481520554042600,7.930042724609375,0.20356912910938263,0.31008753180503845,-0.5056388974189758
1761481520573985500,7.949985595703125,-0.2393718659877777,1.158866286277771,-0.6166896224021912
1761481520593927700,7.969927734375,-0.0020256051793694496,0.6662614941596985,-0.8031741380691528
1761481520613870600,7.98987060546875,0.3536294996738434,0.2715480327606201,-0.9195044040679932
1761481520633812700,8.009812744140625,0.29846784472465515,0.3492531180381775,-0.9664967060089111
1761481520653754600,8.029754638671875,0.1612793654203415,0.4877145290374756,-0.8719593286514282
1761481520673697800,8.04969775390625,0.14948272705078125,0.7684248089790344,-0.6167270541191101
1761481520693639700,8.0696396484375,-0.09337881952524185,0.9361193180084229,-0.2765379846096039
1761481520713582800,8.089582763671874,-0.40430453419685364,0.6454274654388428,0.03638352081179619
1761481520733524500,8.1095244140625,-0.3152468502521515,0.32595834136009216,0.5167774558067322
1761481520753467600,8.129467529296875,0.0684664398431778,0.0045125423930585384,0.7636522650718689
1761481520773409500,8.149409423828125,0.1929326057434082,-0.2659703493118286,0.6408830285072327
1761481520793352700,8.169352783203125,-0.015477902255952358,-0.6083868145942688,0.37545865774154663
1761481520813294600,8.189294677734376,-0.2610683739185333,-1.0679224729537964,0.2825869023799896
1761481520833237800,8.20923779296875,-0.14641353487968445,-1.5840086936950684,0.6955304145812988
1761481520853179600,8.2291796875,0.27229198813438416,-1.3774645328521729,1.1861461400985718
1761481520873122800,8.249122802734375,-0.05634518340229988,-0.4069610834121704,1.1380776166915894
1761481520893064700,8.269064697265625,-1.2004283666610718,-0.6805745959281921,0.47776108980178833
1761481520913006600,8.289006591796875,-1.7733381986618042,-0.917978048324585,0.08875999599695206
1761481520932949500,8.308949462890626,-0.9228171706199646,-0.13270148634910583,0.32702791690826416
1761481520952891600,8.3288916015625,0.1206851527094841,0.6117837429046631,0.5984070301055908
1761481520972834600,8.34883447265625,0.4819357395172119,0.8500568270683289,0.12551850080490112
1761481520992776700,8.368776611328125,0.009501604363322258,0.3084968626499176,-0.3568521738052368
1761481521012719600,8.3887197265625,-0.3375924825668335,-0.5064753890037537,-0.22303801774978638
1761481521032661800,8.408661865234375,0.2099751979112625,-0.7909436225891113,0.04153207689523697
1761481521052604700,8.428604736328126,0.865710973739624,-0.5139563679695129,0.07560238242149353
1761481521072546800,8.448546875,1.1976332664489746,0.6106364130973816,0.19848400354385376
1761481521092489700,8.46848974609375,1.3768062591552734,1.4564212560653687,0.3738691508769989
1761481521112431600,8.488431640625,1.1388603448867798,0.0933820977807045,-0.08051411807537079
1761481521132374500,8.50837451171875,0.6824733018875122,-0.9852914214134216,-0.8633614182472229
1761481521152316700,8.528316650390625,0.27738991379737854,-0.8087769150733948,-1.4823819398880005
1761481521172258600,8.548258544921875,0.1857076734304428,0.29312095046043396,-1.5633909702301025
1761481521192201700,8.56820166015625,0.30916714668273926,0.8166218400001526,-1.2388067245483398
1761481521212143600,8.5881435546875,0.23044586181640625,0.8236039876937866,-0.6160902380943298
1761481521232086800,8.608086669921875,-0.056493084877729416,0.35215187072753906,-0.13662226498126984
1761481521252028700,8.628028564453125,-0.35565778613090515,0.1059504970908165,0.10213243961334229
1761481521271971600,8.6479716796875,-0.406976580619812,0.05710452049970627,0.01576767861843109
1761481521291913700,8.667913818359375,-0.17982082068920135,0.050169214606285095,-0.12689141929149628
1761481521311856600,8.687856689453126,-0.23500925302505493,0.024571601301431656,-0.2592106759548187
1761481521331798500,8.707798583984374,-0.6151755452156067,-0.06677079945802689,-0.18503452837467194
1761481521351741400,8.727741455078124,-0.724405825138092,-0.6028993725776672,0.0288699883967638
1761481521371683600,8.74768359375,-0.34781983494758606,-0.7829315662384033,0.27435627579689026
1761481521391626500,8.76762646484375,-0.1591290682554245,-0.3736474812030792,0.029281048104166985
1761481521411568600,8.787568603515625,-0.5970566272735596,-0.16497471928596497,-0.40793755650520325
1761481521431510800,8.8075107421875,-1.3698699474334717,-0.9883219003677368,-0.29028791189193726
1761481521451453700,8.82745361328125,-1.601238489151001,-1.2341457605361938,0.4055134057998657
1761481521471395800,8.847395751953124,-0.8261348009109497,-0.42869365215301514,0.835483968257904
1761481521491338800,8.8673388671875,-0.02698102965950966,0.6350367069244385,0.7298392653465271
1761481521511280600,8.88728076171875,-0.1052866131067276,0.40575721859931946,0.010661556385457516
1761481521531223600,8.9072236328125,-0.3797115087509155,-0.7087182402610779,-0.6905823349952698
1761481521551165700,8.927165771484376,0.0679875910282135,-1.118418574333191,-1.0826034545898438
1761481521571108600,8.947108642578126,0.8035389184951782,-0.734640896320343,-1.142574667930603
1761481521591050800,8.96705078125,0.709798276424408,-0.4145239293575287,-0.8169533610343933
1761481521610993700,8.98699365234375,0.09475543349981308,-0.09281884133815765,-0.06558256596326828
1761481521630935600,9.006935546875,-0.047236088663339615,-0.12713411450386047,0.3130009174346924
1761481521650878700,9.026878662109375,0.07511752098798752,-0.4652959108352661,-0.08641625940799713
1761481521670820600,9.046820556640625,0.10707847774028778,-0.22847720980644226,-0.7501720786094666
1761481521690762500,9.066762451171876,0.15401539206504822,0.1458214372396469,-1.2294340133666992
1761481521710705400,9.086705322265624,0.195886492729187,0.0007380140013992786,-1.1425502300262451
1761481521730647600,9.1066474609375,0.192269966006279,-0.01789216138422489,-0.6688845157623291
1761481521750589700,9.126589599609375,0.17301084101200104,0.5355013608932495,-0.05116918683052063
1761481521770532600,9.14653271484375,0.11985558271408081,1.0933759212493896,0.5563722252845764
1761481521790474800,9.166474853515625,0.03759384527802467,1.138069748878479,1.084475040435791
1761481521810417700,9.186417724609376,-0.07633266597986221,0.8538548946380615,1.3773504495620728
1761481521830359800,9.20635986328125,-0.28964781761169434,0.06215009465813637,1.3685890436172485
1761481521850302700,9.226302734375,-0.44282394647598267,-0.47894948720932007,1.0285505056381226
1761481521870244900,9.246244873046875,-0.42341020703315735,-0.44062864780426025,0.7089465260505676
1761481521890187800,9.266187744140625,-0.03488321602344513,0.13539455831050873,0.8713400363922119
1761481521910129700,9.286129638671875,0.44292783737182617,0.5426614284515381,1.3899115324020386
1761481521930072600,9.306072509765626,0.0637262761592865,-0.22902488708496094,1.334526538848877
1761481521950014500,9.326014404296876,-0.6364532709121704,-1.312534213066101,0.9058667421340942
1761481521969957600,9.34595751953125,-0.5693092942237854,-1.1002575159072876,0.2740967273712158
1761481521989899500,9.3658994140625,-0.08762834966182709,0.4639914333820343,-0.15545125305652618
1761481522009841700,9.385841552734375,0.12071613222360611,1.687660574913025,0.06018086150288582
1761481522029784600,9.40578466796875,0.27639850974082947,1.7188808917999268,0.5331417918205261
1761481522049728500,9.425728515625,0.015596193261444569,0.61517333984375,0.6170963048934937
1761481522069670700,9.445670654296874,-0.30308932065963745,-0.4793902337551117,0.3636128306388855
1761481522089612800,9.46561279296875,-0.07297201454639435,-0.7965943813323975,0.11420734226703644
1761481522109555700,9.4855556640625,0.19902561604976654,-0.5510667562484741,0.0784991905093193
1761481522129497600,9.50549755859375,0.4483553469181061,-0.2992549538612366,0.7230613231658936
1761481522149440500,9.5254404296875,0.5013941526412964,-0.3781566619873047,1.537739634513855
1761481522169382700,9.545382568359376,0.3248296082019806,0.13913729786872864,1.389404058456421
1761481522189325600,9.56532568359375,0.271393746137619,0.7717622518539429,0.3549324572086334
1761481522209264600,9.5852646484375,0.3967703878879547,0.9519805312156677,-0.8810793161392212
1761481522229207600,9.60520751953125,0.5412524938583374,0.8082908391952515,-1.5211410522460938
1761481522249149400,9.6251494140625,0.45027461647987366,0.5957367420196533,-1.4550790786743164
1761481522269092600,9.645092529296875,0.0007552255410701036,0.5129228234291077,-1.05534827709198
1761481522289034500,9.665034423828125,-0.4272408187389374,0.31694069504737854,-0.488449364900589
1761481522308977700,9.684977783203125,-0.38262060284614563,-0.10168749839067459,0.12770234048366547
1761481522328919300,9.704919189453125,0.04295467585325241,-0.4198191463947296,0.6400612592697144
1761481522348862500,9.724862548828124,0.23871123790740967,-0.5324081182479858,0.9217491745948792
1761481522368804400,9.744804443359374,-0.0910058468580246,-0.36435142159461975,0.7160956859588623
1761481522388746500,9.76474658203125,-0.5606930255889893,-0.08765468001365662,0.23581260442733765
1761481522408689400,9.784689453125,-0.5922850370407104,0.017758244648575783,0.08686090260744095
1761481522428631600,9.804631591796875,-0.24336671829223633,0.25061845779418945,0.448984295129776
1761481522448574500,9.824574462890626,0.043508775532245636,0.10987631976604462,1.0429463386535645
1761481522468516600,9.8445166015625,0.026440422981977463,-0.1863272339105606,1.1740005016326904
1761481522488459500,9.86445947265625,-0.6657631397247314,-1.2904006242752075,0.5112914443016052
1761481522508401400,9.8844013671875,-0.7216980457305908,-1.018821120262146,-0.24057786166667938
1761481522528344300,9.90434423828125,-0.06373187154531479,0.2755207419395447,-0.40034109354019165
1761481522548286500,9.924286376953125,0.4833349883556366,0.8340557217597961,-0.28042709827423096
