time,seconds_elapsed,z,y,x
1761481454846977800,0.091977783203125,0.12360645085573196,-0.02156054973602295,0.18617986142635345
1761481454866920700,0.111920654296875,0.02627718634903431,0.13303594291210175,0.020461615175008774
1761481454886863600,0.131863525390625,0.028169097378849983,0.15418311953544617,-0.1926969289779663
1761481454906805800,0.1518056640625,0.022581521421670914,0.04359172657132149,-0.3356388211250305
1761481454926748700,0.171748779296875,-0.07067780941724777,-0.1014023870229721,-0.40089401602745056
1761481454946691800,0.19169189453125,-0.14225564897060394,-0.0755968913435936,-0.32760313153266907
1761481454966633700,0.2116337890625,-0.1529999077320099,0.03432215750217438,-0.22858282923698425
1761481454986577000,0.231576904296875,-0.14457902312278748,0.07379463315010071,-0.22055283188819885
1761481455006519800,0.251519775390625,-0.0963822603225708,-0.008513016626238823,-0.24458633363246918
1761481455026462000,0.2714619140625,0.0005981334834359586,-0.13389970362186432,-0.22023054957389832
1761481455046404900,0.29140478515625,0.12335356324911118,-0.12442372739315033,-0.1642707884311676
1761481455066347800,0.31134765625,0.1835135668516159,-0.020241310819983482,-0.1194784864783287
1761481455086290000,0.3312900390625,0.11951690167188644,-0.15408647060394287,-0.15540342032909393
1761481455106232800,0.35123291015625,0.09703145921230316,-0.3474203944206238,-0.22432002425193787
1761481455126178300,0.37117822265625,0.10505551099777222,-0.26374104619026184,-0.2874685525894165
1761481455146121200,0.391121337890625,0.1659359633922577,-0.0036282541695982218,-0.3856554925441742
1761481455166064400,0.411064453125,0.33943381905555725,0.17233319580554962,-0.47126519680023193
1761481455186006300,0.43100634765625,0.44773679971694946,0.01098167710006237,-0.4971250593662262
1761481455205949200,0.45094921875,0.41332125663757324,-0.1638103723526001,-0.43109768629074097
1761481455225892400,0.470892333984375,0.3048369586467743,-0.03695105388760567,-0.3050685226917267
1761481455245834200,0.490834228515625,0.32858625054359436,0.024671830236911774,-0.30178192257881165
1761481455265777400,0.51077734375,0.36806318163871765,0.014058073051273823,-0.2904616892337799
1761481455285720300,0.53072021484375,0.28404927253723145,0.17696842551231384,-0.11784584820270538
1761481455305662500,0.550662353515625,0.20795376598834991,0.3341750204563141,0.03950595483183861
1761481455325605400,0.57060546875,0.18703947961330414,0.34401771426200867,0.02814388833940029
1761481455345548300,0.59054833984375,0.2076237052679062,0.18526381254196167,-0.17970411479473114
1761481455365490400,0.610490478515625,0.23286950588226318,0.20305247604846954,-0.3888242840766907
1761481455385433300,0.630433349609375,0.2562738358974457,0.6251218318939209,-0.3548934757709503
1761481455405376500,0.65037646484375,0.30379465222358704,0.8260000348091125,-0.2030348926782608
1761481455425318100,0.670318115234375,0.3455560505390167,0.5260198712348938,-0.01081127393990755
1761481455445261300,0.69026123046875,0.30325353145599365,0.10407593101263046,0.31967979669570923
1761481455465204200,0.710204345703125,0.2835920751094818,-0.1345054805278778,0.6703360080718994
1761481455485146400,0.730146484375,0.21322934329509735,-0.09438274800777435,0.7066793441772461
1761481455505089300,0.75008935546875,0.058318961411714554,0.21507345139980316,0.5575783848762512
1761481455525032200,0.7700322265625,-0.05986786633729935,0.45959746837615967,0.3826579451560974
1761481455544974300,0.789974365234375,-0.04087383300065994,0.40900325775146484,0.16012416779994965
1761481455564917200,0.809917236328125,-0.03718796372413635,0.15880060195922852,-0.12543874979019165
1761481455584860400,0.8298603515625,-0.05060635507106781,-0.1489953100681305,-0.3132455050945282
1761481455604802300,0.84980224609375,-0.06619985401630402,-0.3674984276294708,-0.23747794330120087
1761481455624745500,0.869745361328125,-0.0010292124934494495,-0.2891254127025604,0.03141659498214722
1761481455644687400,0.889687255859375,0.1461111307144165,-0.1290998011827469,0.21916979551315308
1761481455664630500,0.909630615234375,0.2162591516971588,0.09845586866140366,0.2965617775917053
1761481455684573400,0.929573486328125,0.14009015262126923,0.10782734304666519,0.27920153737068176
1761481455704515300,0.949515380859375,0.044938866049051285,0.010042108595371246,0.23169681429862976
1761481455724458200,0.969458251953125,-0.018642190843820572,-0.007865335792303085,0.16418492794036865
1761481455744401200,0.989401123046875,0.00902981124818325,-0.017512373626232147,0.07210589945316315
1761481455764343300,1.00934326171875,0.03728019818663597,-0.015417708083987236,0.0007848849054425955
1761481455784286200,1.0292861328125,-0.001946140662766993,-0.030795954167842865,0.025201773270964622
1761481455804229400,1.0492294921875,-0.09458547830581665,-0.04322359338402748,0.1646745651960373
1761481455824171300,1.069171142578125,-0.14329075813293457,-0.044632311910390854,0.24211476743221283
1761481455844114200,1.0891142578125,-0.1097961813211441,0.01270874124020338,0.1939709335565567
1761481455864057300,1.109057373046875,-0.07525023818016052,0.12515918910503387,0.1287788301706314
1761481455883999200,1.128999267578125,-0.07881669700145721,0.22437411546707153,0.12196491658687592
1761481455903942400,1.1489423828125,-0.11913365125656128,0.292655348777771,0.1261770874261856
1761481455923885300,1.16888525390625,-0.107835553586483,0.26880577206611633,0.08021929115056992
1761481455943827500,1.188827392578125,-0.030299434438347816,0.09978035092353821,0.03559879958629608
1761481455963770400,1.208770263671875,0.0539960041642189,-0.04427456110715866,0.015107369050383568
1761481455983713300,1.22871337890625,0.08122032880783081,0.09056998044252396,0.06076269969344139
1761481456003655400,1.248655517578125,0.046932023018598557,0.37452083826065063,0.16052460670471191
1761481456023598300,1.268598388671875,-0.04004191607236862,0.6095261573791504,0.31436893343925476
1761481456043541500,1.28854150390625,-0.12926825881004333,0.5462945103645325,0.37989309430122375
1761481456063483100,1.308483154296875,-0.21434618532657623,0.35152071714401245,0.41132861375808716
1761481456083426300,1.32842626953125,-0.21782900393009186,0.32003772258758545,0.3615255355834961
1761481456103368200,1.3483681640625,-0.18190450966358185,0.12657076120376587,0.18852533400058746
1761481456123307800,1.368307861328125,-0.1610785871744156,0.07575560361146927,0.22939559817314148
1761481456143250700,1.388250732421875,-0.18066230416297913,0.03334832563996315,0.4783533215522766
1761481456163192800,1.40819287109375,-0.21455901861190796,-0.012954190373420715,0.6349197626113892
1761481456183135700,1.4281357421875,-0.2833493649959564,-0.041534267365932465,0.544697642326355
1761481456203078700,1.44807861328125,-0.1150253489613533,-0.3369046449661255,0.29462578892707825
1761481456223020800,1.468020751953125,0.16606992483139038,-1.179311752319336,-0.039635125547647476
1761481456242963700,1.487963623046875,0.26264429092407227,-1.7307332754135132,-0.2871970236301422
1761481456262907000,1.507906982421875,0.33154910802841187,-1.9950309991836548,-0.3120874762535095
1761481456282848500,1.5278486328125,0.4825708866119385,-1.2290351390838623,-0.007270528934895992
1761481456302791700,1.547791748046875,0.10323513299226761,-0.37182092666625977,0.5541422963142395
1761481456322734600,1.567734619140625,-0.6140167713165283,0.2993566691875458,0.6194750070571899
1761481456342676700,1.5876767578125,-0.07165789604187012,-0.20673289895057678,0.3255055546760559
1761481456362619600,1.60761962890625,1.0082788467407227,-0.8813992142677307,-0.0261090025305748
1761481456382562600,1.6275625,1.5410810708999634,-0.16537250578403473,-0.07349516451358795
1761481456402504700,1.647504638671875,0.5868642926216125,0.6359531879425049,0.18414370715618134
1761481456422447600,1.667447509765625,-0.6701984405517578,0.7462167143821716,0.3502426743507385
1761481456442389800,1.6873896484375,-0.621325671672821,0.4469657242298126,-0.12499880790710449
1761481456462332700,1.707332763671875,-0.42811283469200134,-0.3038715124130249,-0.4713144600391388
1761481456482275800,1.72727587890625,0.014679865911602974,0.45677435398101807,0.01521400734782219
1761481456502217700,1.7472177734375,0.4316428601741791,1.2353261709213257,0.35933759808540344
1761481456522161000,1.767160888671875,0.6538895964622498,0.660929262638092,0.43053004145622253
1761481456542103800,1.787103759765625,0.7481092810630798,-0.6331870555877686,0.18042442202568054
1761481456562045700,1.807045654296875,0.7379579544067383,-0.8360276222229004,-0.2076728790998459
1761481456581988900,1.82698876953125,0.5728052258491516,-0.4249610900878906,-0.45973435044288635
1761481456601931800,1.846931884765625,0.19220122694969177,0.12630532681941986,-0.56138676404953
1761481456621873700,1.866873779296875,-0.19551385939121246,0.022581959143280983,-0.40805357694625854
1761481456641816600,1.886816650390625,-0.4680316150188446,-0.11052407324314117,0.13711433112621307
1761481456661759500,1.906759521484375,-0.4100065529346466,0.10470692813396454,0.6156997084617615
1761481456681701600,1.92670166015625,-0.12142769247293472,0.6070563197135925,0.6398177146911621
1761481456701644500,1.94664453125,0.08854147046804428,0.6561483144760132,0.24625544250011444
1761481456721587700,1.966587646484375,0.1767437607049942,-0.537666380405426,-0.06514877825975418
1761481456741529600,1.986529541015625,0.5481187701225281,-1.684453010559082,0.34688514471054077
1761481456761472800,2.00647265625,0.49446728825569153,-1.099716067314148,1.2145980596542358
1761481456781414700,2.02641455078125,-0.25012850761413574,0.13414816558361053,1.135651707649231
1761481456801357800,2.04635791015625,-0.8473703861236572,1.2211815118789673,-0.13390330970287323
1761481456821300700,2.06630078125,-1.1875381469726562,1.5095562934875488,-0.8277317881584167
1761481456841243000,2.086242919921875,-0.9997205138206482,1.2340575456619263,-0.6163188815116882
1761481456861185800,2.106185791015625,-0.45922017097473145,0.8208792805671692,0.015762701630592346
1761481456881128700,2.126128662109375,0.043152306228876114,0.39941704273223877,0.27239134907722473
1761481456901070600,2.146070556640625,0.22245223820209503,-0.23878857493400574,-0.20048081874847412
1761481456921013500,2.166013427734375,-0.00005077070090919733,-0.3669380843639374,-1.1888127326965332
1761481456940956700,2.185956787109375,-0.39516186714172363,0.28406256437301636,-1.9624693393707275
1761481456960898600,2.205898681640625,-0.7358274459838867,1.1189169883728027,-1.8775008916854858
1761481456980841700,2.225841796875,-0.7595707774162292,1.3885210752487183,-1.0395921468734741
1761481457000784600,2.24578466796875,-0.6501617431640625,0.8654329180717468,-0.11936697363853455
1761481457020726800,2.265726806640625,-0.6680060029029846,0.2098960131406784,0.384817898273468
1761481457040669700,2.285669677734375,-0.5657161474227905,0.06638234853744507,0.3873894512653351
1761481457060612600,2.305612548828125,-0.26085343956947327,0.10375270992517471,0.07397140562534332
1761481457080554800,2.3255546875,-0.05183007940649986,0.10105697810649872,0.04671943560242653
1761481457100497700,2.34549755859375,-0.05064358934760094,-0.05832069367170334,0.4463191330432892
1761481457120440600,2.365440673828125,-0.1297617256641388,-0.7163845896720886,0.5760405659675598
1761481457140382500,2.385382568359375,-0.09578028321266174,-1.3665671348571777,0.2609831988811493
1761481457160325600,2.40532568359375,0.08706804364919662,-1.0991612672805786,0.025719380006194115
1761481457180267500,2.425267578125,0.14961419999599457,-0.5167859792709351,0.18460750579833984
1761481457200210700,2.445210693359375,0.12548349797725677,-0.33992838859558105,0.8258904218673706
1761481457220153600,2.465153564453125,0.22700591385364532,-0.7191047072410583,1.0491151809692383
1761481457240095500,2.485095458984375,0.5669125914573669,-1.59480619430542,0.47116413712501526
1761481457260038700,2.50503857421875,0.6479330658912659,-1.3586575984954834,0.3435235619544983
1761481457279981600,2.524981689453125,0.34309622645378113,-0.029976949095726013,0.8130978345870972
1761481457299923500,2.54492333984375,0.5663018226623535,-0.07929788529872894,0.2733628451824188
1761481457319866400,2.564866455078125,0.8916566967964172,-0.6131463646888733,-0.18293529748916626
1761481457339809500,2.5848095703125,0.7619171142578125,-0.5477818250656128,0.276357501745224
1761481457359751400,2.60475146484375,0.6524982452392578,0.2915799915790558,0.7651744484901428
1761481457379694300,2.6246943359375,0.5474525690078735,1.3054826259613037,0.3527757525444031
1761481457399637500,2.644637451171875,0.5253981351852417,1.835879921913147,-0.5157113075256348
1761481457419579400,2.664579345703125,0.36686792969703674,1.6918413639068604,-1.235550045967102
1761481457439522600,2.6845224609375,0.05330187827348709,0.9356173276901245,-1.4599299430847168
1761481457459464400,2.70446435546875,-0.20458047091960907,0.7222985029220581,-1.0767672061920166
1761481457479407600,2.72440771484375,-0.2882424592971802,1.190727710723877,-0.5491164326667786
1761481457499350500,2.7443505859375,-0.5080970525741577,1.405623435974121,-0.1925109624862671
1761481457519292700,2.764292724609375,-0.5627838373184204,1.0824878215789795,-0.006282562389969826
1761481457539235600,2.784235595703125,-0.3282250761985779,0.4632755517959595,0.022485580295324326
1761481457559178500,2.804178466796875,-0.1963091343641281,-0.19582121074199677,0.10932239890098572
1761481457579120600,2.82412060546875,-0.1255776435136795,-0.6608876585960388,0.2847798764705658
1761481457599063600,2.8440634765625,-0.21502646803855896,-0.9833124279975891,0.19370143115520477
1761481457619006700,2.8640068359375,-0.4177139401435852,-0.8942579030990601,-0.17357541620731354
1761481457638948400,2.8839482421875,-0.5311583280563354,-0.4476732313632965,-0.41081827878952026
1761481457658891500,2.9038916015625,-0.4684191942214966,-0.21570909023284912,-0.20809462666511536
1761481457678834400,2.92383447265625,-0.3211401104927063,-0.2904595732688904,0.4143664836883545
1761481457698776600,2.943776611328125,-0.09525430202484131,-0.3112701177597046,1.1384209394454956
1761481457718719500,2.963719482421875,0.2441653162240982,-0.2980545461177826,1.491911768913269
1761481457738662400,2.983662353515625,0.3129287660121918,-1.4093505144119263,0.7769066095352173
1761481457758604500,3.0036044921875,-0.05070287361741066,-1.358323574066162,0.482438325881958
1761481457778547500,3.02354736328125,-0.6502386927604675,0.1220991387963295,1.0224642753601074
1761481457798489600,3.043489501953125,-0.6287805438041687,0.761254072189331,1.0293469429016113
1761481457818432500,3.0634326171875,-0.44404110312461853,0.10189835727214813,0.44416916370391846
1761481457838375700,3.083375732421875,-0.33893561363220215,-1.0336273908615112,-0.04437118023633957
1761481457858317600,3.103317626953125,-0.06999949365854263,-0.9355075359344482,0.41712287068367004
1761481457878260700,3.1232607421875,0.19919607043266296,-0.3360167443752289,1.1153564453125
1761481457898203600,3.14320361328125,0.3463621437549591,-0.053565531969070435,1.0053205490112305
1761481457918145500,3.1631455078125,0.37690144777297974,-0.48348894715309143,0.19492365419864655
1761481457938088400,3.18308837890625,0.19542662799358368,-0.7017955780029297,-0.6218670606613159
1761481457958031400,3.20303125,0.046330202370882034,-0.07083862274885178,-1.434029459953308
1761481457977973500,3.222973388671875,0.12985114753246307,0.6107308864593506,-1.9259060621261597
1761481457997916400,3.24291650390625,0.5267845988273621,0.48668137192726135,-1.559537649154663
1761481458017859600,3.262859619140625,0.7909547090530396,-0.16973209381103516,-0.5713241696357727
1761481458037801500,3.282801513671875,0.5333800315856934,-0.4364035427570343,0.2575209140777588
1761481458057744400,3.302744384765625,0.09933494031429291,-0.22435158491134644,0.33221179246902466
1761481458077686500,3.3226865234375,0.006206110119819641,0.1292625069618225,-0.11279846727848053
1761481458097629400,3.34262939453125,-0.04638882353901863,0.24755260348320007,-0.4380304515361786
1761481458117572600,3.362572509765625,-0.17555548250675201,0.03920949622988701,-0.40175381302833557
1761481458137514200,3.38251416015625,-0.35658136010169983,-0.34101736545562744,-0.16560404002666473
1761481458157457400,3.40245751953125,-0.4176345467567444,-0.3102840483188629,0.10706529766321182
1761481458177400300,3.422400390625,-0.30145499110221863,0.09313257038593292,0.4408015310764313
1761481458197342500,3.442342529296875,-0.16903355717658997,0.12159048765897751,0.6691536903381348
1761481458217285400,3.462285400390625,-0.038554221391677856,-0.34446215629577637,0.7057538032531738
1761481458237228300,3.482228271484375,-0.08734866231679916,-0.46729353070259094,0.9049773812294006
1761481458257170400,3.50217041015625,-0.2854653596878052,-0.7126740217208862,0.7065830826759338
1761481458277113300,3.52211328125,-0.20801600813865662,-0.6245635151863098,0.046696536242961884
1761481458297056500,3.542056396484375,-0.25680047273635864,0.21506920456886292,0.01524246484041214
1761481458316998400,3.561998291015625,-0.7067157030105591,0.6401896476745605,0.7485402822494507
1761481458336941600,3.581941650390625,-0.8136189579963684,0.32647112011909485,0.9595609307289124
1761481458356883500,3.601883544921875,-0.5726314783096313,0.21713732182979584,0.3713354170322418
1761481458376826600,3.62182666015625,-0.4018860459327698,0.39477622509002686,-0.0901179239153862
1761481458396769500,3.64176953125,-0.3077924847602844,0.5277312397956848,-0.058218587189912796
1761481458416711400,3.66171142578125,-0.11903436481952667,0.15552501380443573,-0.08669310063123703
1761481458436654300,3.681654296875,0.05048079416155815,-0.35947760939598083,-0.3189673125743866
1761481458456597200,3.70159716796875,0.25705042481422424,-0.321372389793396,-0.9504517316818237
1761481458476539400,3.721539306640625,0.4943287968635559,0.13243238627910614,-1.7928746938705444
1761481458496482300,3.741482421875,0.6888667941093445,0.2423136979341507,-2.017146587371826
1761481458516425500,3.761425537109375,0.7426013350486755,-0.20436063408851624,-1.4586089849472046
1761481458536367400,3.781367431640625,0.7511820793151855,-0.5858651399612427,-0.42578229308128357
1761481458556310500,3.801310546875,0.7101084589958191,-0.36782294511795044,0.29547175765037537
1761481458576252400,3.82125244140625,0.5735324621200562,0.04990875720977783,0.5195539593696594
1761481458596195600,3.841195556640625,0.3788016438484192,0.17620214819908142,0.23124869167804718
1761481458616138500,3.861138427734375,0.12800300121307373,0.10690900683403015,-0.16568642854690552
1761481458636080400,3.881080322265625,-0.03920920193195343,0.018871918320655823,-0.29587051272392273
1761481458656023600,3.9010234375,-0.05411326512694359,0.06739871203899384,-0.039035946130752563
1761481458675966500,3.920966552734375,-0.009913898073136806,-0.018651220947504044,0.2725428640842438
1761481458695908600,3.94090869140625,-0.07101874053478241,-0.10795163363218307,0.5323296785354614
1761481458715851500,3.9608515625,-0.28293663263320923,-0.07612019032239914,0.5869063138961792
1761481458735794400,3.98079443359375,-0.4923540949821472,0.004355207085609436,0.5629475712776184
1761481458755736300,4.000736328125,-0.4372854232788086,0.11290760338306427,0.8826798796653748
1761481458775679200,4.02067919921875,-0.07329101115465164,-0.0691857635974884,1.1849026679992676
1761481458795622400,4.040622314453125,0.0434977151453495,-0.5408923625946045,0.9836011528968811
1761481458815564300,4.060564208984375,-0.3787388503551483,-0.8927127718925476,0.5951345562934875
1761481458835507500,4.080507568359375,-1.0047461986541748,-0.26450544595718384,0.8930976986885071
1761481458855449300,4.100449462890625,-0.7215631604194641,0.8467733263969421,1.0207678079605103
1761481458875392500,4.120392578125,-0.039362818002700806,0.9840091466903687,0.4085193872451782
1761481458895335400,4.14033544921875,0.1857726275920868,0.16236889362335205,-0.43609315156936646
1761481458915277600,4.160277587890625,0.027179410681128502,-0.281514972448349,-0.6376780867576599
1761481458935220500,4.180220458984375,0.20607170462608337,-0.2786158621311188,-0.5173251628875732
1761481458955163400,4.200163330078125,0.5696312785148621,-0.11339006572961807,-0.44440534710884094
1761481458975105500,4.22010546875,0.7578361630439758,-0.11224543303251266,-0.622028648853302
1761481458995048400,4.24004833984375,0.5596091151237488,-0.191108837723732,-0.9383046627044678
1761481459014991600,4.25999169921875,0.18806862831115723,-0.22073455154895782,-1.2357147932052612
1761481459034933200,4.279933349609375,0.05158749595284462,0.24035139381885529,-1.3249541521072388
1761481459054876400,4.29987646484375,0.06578810513019562,1.1271791458129883,-1.2429513931274414
1761481459074818300,4.319818359375,-0.1323493868112564,1.58762526512146,-1.0852073431015015
1761481459094761500,4.339761474609375,-0.36622902750968933,1.3274004459381104,-0.8147280216217041
1761481459114704400,4.359704345703125,-0.3244246244430542,0.70722496509552,-0.42825886607170105
1761481459134646800,4.379646728515625,-0.11440478265285492,0.26990488171577454,-0.19093169271945953
1761481459154590000,4.39958984375,0.09307436645030975,0.01170722208917141,-0.12288784980773926
1761481459174532900,4.419532958984375,0.09886370599269867,-0.17524808645248413,-0.038351114839315414
1761481459194475000,4.43947509765625,-0.13969911634922028,-0.4132770001888275,0.01213259156793356
1761481459214418000,4.45941796875,-0.4017748534679413,-0.5163134932518005,0.20079049468040466
1761481459234360800,4.47936083984375,-0.6238724589347839,-0.21952156722545624,0.585010826587677
1761481459254303000,4.499302978515625,-0.5609261989593506,0.39587247371673584,0.8564515709877014
1761481459274246000,4.519245849609375,-0.2815064787864685,0.45844849944114685,0.5447356104850769
1761481459294189000,4.53918896484375,-0.017423858866095543,-0.043401386588811874,0.22725476324558258
1761481459314130700,4.559130615234375,0.2980557978153229,-0.4907315671443939,0.2782243490219116
1761481459334074000,4.57907421875,0.2510104477405548,-0.8130847811698914,0.32057514786720276
1761481459354015700,4.599015625,-0.1310884803533554,-0.8153058886528015,0.16177533566951752
1761481459373959000,4.618958984375,-0.2672671973705292,-0.4422890245914459,-0.2966897785663605
1761481459393901800,4.63890185546875,-0.1610938310623169,0.2485343962907791,-0.6331287026405334
1761481459413844000,4.658843994140625,-0.01735258661210537,0.5523616671562195,-0.6734389662742615
1761481459433787000,4.678786865234375,0.0523044653236866,0.3552420437335968,-0.40477102994918823
1761481459453729800,4.698729736328125,0.2982104420661926,0.07384773343801498,0.2246054708957672
1761481459473672000,4.718671875,0.7425377368927002,-0.5061745643615723,0.5342323184013367
1761481459493614800,4.73861474609375,0.9526910781860352,-0.8523979187011719,0.5002569556236267
1761481459513558000,4.75855810546875,0.6517630815505981,-0.8364123106002808,0.061599213629961014
1761481459533500000,4.7785,0.27776986360549927,-0.42625361680984497,-0.6511842608451843
1761481459553443000,4.798443115234375,-0.03891487419605255,0.06202596426010132,-1.0771411657333374
1761481459573385000,4.818385009765625,-0.15323440730571747,0.06595172733068466,-0.7086602449417114
1761481459593327900,4.838327880859375,-0.044297076761722565,-0.2620779573917389,-0.003206137102097273
1761481459613271000,4.85827099609375,-0.007140647619962692,-0.5438660979270935,0.49215102195739746
1761481459633213000,4.878212890625,-0.0008830067235976458,-0.21072737872600555,0.44341766834259033
1761481459653155800,4.89815576171875,-0.019184790551662445,0.3841492533683777,0.06700698286294937
1761481459673098800,4.9180986328125,-0.04021662473678589,0.5779224038124084,-0.11017243564128876
1761481459693041000,4.938041015625,0.09800276905298233,0.35829898715019226,0.03559408336877823
1761481459712983800,4.95798388671875,0.16180481016635895,0.03661585599184036,0.27493786811828613
1761481459732926700,4.9779267578125,0.09583564847707748,-0.19268524646759033,0.47015181183815
1761481459752868900,4.997868896484375,0.0037370906211435795,-0.24677884578704834,0.42875686287879944
1761481459772811800,5.017811767578125,-0.08068746328353882,-0.12483064830303192,0.4189649820327759
1761481459792754000,5.03775390625,-0.09065796434879303,0.14147816598415375,0.6312656402587891
1761481459812696800,5.05769677734375,-0.06479936838150024,0.17582178115844727,0.9574685096740723
1761481459832640000,5.077639892578125,0.053227297961711884,-0.22379335761070251,1.0644800662994385
1761481459852582000,5.097581787109375,-0.18760406970977783,-0.950368344783783,1.006874680519104
1761481459872525000,5.117525146484375,-0.7692264318466187,-1.3305374383926392,1.0518431663513184
1761481459892468000,5.137468017578125,-0.9525363445281982,-0.5493051409721375,1.089469313621521
1761481459912409900,5.157409912109375,-0.5322274565696716,0.7597277164459229,0.5786295533180237
1761481459932353000,5.17735302734375,-0.05087140202522278,0.8344590663909912,-0.3233548402786255
1761481459952296000,5.1972958984375,-0.09002925455570221,-0.007282346021384001,-0.7568914890289307
1761481459972237800,5.21723779296875,-0.28963160514831543,-0.3711414337158203,-0.747119128704071
1761481459992180700,5.2371806640625,-0.24624323844909668,0.10055604577064514,-0.6945921778678894
1761481460012124000,5.2571240234375,0.25921210646629333,0.5862438678741455,-0.8490648865699768
1761481460032065800,5.277065673828125,0.6769393682479858,0.4106889069080353,-1.0062758922576904
1761481460052009000,5.297009033203125,0.5003440380096436,-0.05017300322651863,-0.990528404712677
1761481460071950800,5.316950927734375,-0.00987902469933033,-0.3237234055995941,-0.9483027458190918
1761481460091894000,5.33689404296875,-0.08355248719453812,-0.05727894604206085,-1.0948511362075806
1761481460111837000,5.3568369140625,0.32631751894950867,0.517630398273468,-1.182603120803833
1761481460131779300,5.376779296875,0.7013977766036987,0.8710460066795349,-0.8512294888496399
1761481460151722500,5.396722412109375,0.6724076271057129,0.6864791512489319,-0.18018905818462372
1761481460171664100,5.4166640625,0.2693605422973633,0.601510226726532,0.4033513367176056
1761481460191606300,5.436606201171875,0.027933338657021523,0.6604840755462646,0.5531673431396484
1761481460211549200,5.456549072265625,0.09027394652366638,0.8145530223846436,0.3974861204624176
1761481460231492400,5.476492431640625,0.2032887488603592,0.6683353781700134,0.0984342023730278
1761481460251434200,5.496434326171875,0.22942793369293213,0.2708437442779541,0.025301137939095497
1761481460271377400,5.51637744140625,0.2387544959783554,-0.08914365619421005,0.2858404517173767
1761481460291320300,5.5363203125,0.1975359469652176,-0.18579261004924774,0.6979383826255798
1761481460311262500,5.556262451171875,0.22486791014671326,0.07858728617429733,0.9279199242591858
1761481460331205400,5.576205322265625,0.327097624540329,-0.01843220368027687,0.7824916243553162
1761481460351147500,5.5961474609375,0.41198989748954773,-0.3906804323196411,0.8429660201072693
1761481460371090400,5.61609033203125,0.37265443801879883,-0.6126028299331665,0.9808892607688904
1761481460391033300,5.636033447265625,-0.04291468858718872,-0.5420346856117249,0.4023698568344116
1761481460410975200,5.655975341796875,-0.5502114295959473,0.04719118773937225,0.26090219616889954
1761481460430918100,5.675918212890625,-0.3596816062927246,0.41307365894317627,0.8426499366760254
1761481460450861300,5.695861328125,0.04906269907951355,0.5514388680458069,1.0237325429916382
1761481460470803200,5.71580322265625,-0.2373027503490448,0.7281903028488159,0.45714956521987915
1761481460490746400,5.735746337890625,-0.9030297994613647,0.7023488879203796,-0.2384606897830963
1761481460510689300,5.755689208984375,-1.0947701930999756,0.4123877286911011,-0.5154618620872498
1761481460530631400,5.77563134765625,-0.481531023979187,1.6164028644561768,-0.1323714703321457
1761481460550574300,5.79557421875,0.22163797914981842,1.6184287071228027,0.07048551738262177
1761481460570517200,5.815517333984375,0.21627677977085114,-0.0863112062215805,0.25553977489471436
1761481460590459400,5.83545947265625,-0.008236062712967396,-0.7408728003501892,0.4274175465106964
1761481460610402300,5.85540234375,-0.24194122850894928,-1.5663189888000488,-0.055227380245923996
1761481460630345500,5.875345458984375,-0.21371741592884064,-1.4327093362808228,-1.3063817024230957
1761481460650287400,5.895287353515625,-0.00021275771723594517,-0.8146314024925232,-1.9621555805206299
1761481460670230300,5.915230224609375,0.30310311913490295,-0.0791030079126358,-1.72698175907135
1761481460690173400,5.93517333984375,0.12156453728675842,0.1911495327949524,-0.9055013656616211
1761481460710115300,5.955115234375,-0.19648048281669617,0.0261421836912632,-0.003428440075367689
1761481460730058500,5.97505859375,-0.04923282191157341,-0.07241500914096832,0.30808025598526
1761481460750001400,5.99500146484375,0.35766205191612244,0.037000954151153564,0.1437760591506958
1761481460769943300,6.014943359375,0.5599692463874817,0.2453588843345642,-0.06742025166749954
1761481460789886200,6.03488623046875,0.33608925342559814,0.2273554652929306,-0.021777652204036713
1761481460809828400,6.054828369140625,-0.07968947291374207,-0.15325084328651428,0.28586840629577637
1761481460829771300,6.074771240234375,-0.3054043650627136,-0.6388219594955444,0.726318359375
1761481460849714200,6.094714111328125,0.015323802828788757,-0.45489731431007385,1.1371302604675293
1761481460869656300,6.11465625,0.4250113368034363,0.1503009796142578,1.1213959455490112
1761481460889599200,6.13459912109375,0.5465574860572815,0.7914783358573914,0.8780874013900757
1761481460909542400,6.15454248046875,0.10679811984300613,0.251297265291214,0.7526039481163025
1761481460929484300,6.174484375,-0.499009907245636,-1.0904698371887207,0.8559701442718506
1761481460949427500,6.194427490234375,-0.6020718812942505,-0.7711858749389648,1.0574432611465454
1761481460969369300,6.214369384765625,-0.3145168423652649,0.8270443677902222,0.9466347694396973
1761481460989312500,6.2343125,0.05809421464800835,1.6702587604522705,0.41387230157852173
1761481461009255400,6.25425537109375,0.2595274746417999,1.0651427507400513,-0.18961621820926666
1761481461029197300,6.274197265625,0.18653807044029236,-0.01678788661956787,-0.4132445454597473
1761481461049140200,6.29414013671875,0.059899259358644485,0.1058918759226799,-0.24296557903289795
1761481461069083100,6.314083251953125,0.298867791891098,0.7542790174484253,-0.3578342795372009
1761481461089025300,6.334025390625,0.4421287178993225,0.7457243204116821,-0.753680408000946
1761481461108968200,6.35396826171875,0.16004887223243713,0.07883460074663162,-1.2125028371810913
1761481461128910600,6.37391064453125,-0.1416740119457245,-0.6217808723449707,-1.5218154191970825
1761481461148852500,6.3938525390625,0.04844937101006508,-0.7633520364761353,-1.675093412399292
1761481461168795600,6.413795654296875,0.6567879915237427,-0.590700089931488,-1.5842407941818237
1761481461188737500,6.433737548828125,0.8039889931678772,-0.23329105973243713,-1.04318106174469
1761481461208680700,6.4536806640625,0.3246588706970215,-0.21328601241111755,-0.3801004886627197
1761481461228623600,6.47362353515625,-0.0029129430186003447,-0.1294441968202591,0.20857030153274536
1761481461248565500,6.4935654296875,-0.060297828167676926,0.08310551941394806,0.4803265631198883
1761481461268508400,6.51350830078125,0.1267315000295639,0.288175493478775,0.2931492030620575
1761481461288451300,6.533451416015625,0.2462761104106903,0.09473758190870285,-0.10472895950078964
1761481461308393500,6.5533935546875,0.027705948799848557,-0.277274489402771,-0.1907060593366623
1761481461328336400,6.57333642578125,-0.28348052501678467,-0.4625691771507263,-0.04149756208062172
1761481461348278500,6.593278564453125,-0.3214181065559387,-0.35794326663017273,0.10207507759332657
1761481461368221400,6.613221435546875,-0.17010058462619781,0.06744665652513504,0.3376770317554474
1761481461388164600,6.63316455078125,-0.21926501393318176,0.20805419981479645,0.7295688986778259
1761481461408106500,6.6531064453125,-0.3640469014644623,0.015803800895810127,1.268558144569397
1761481461428049700,6.673049560546875,-0.20188574492931366,-0.26707059144973755,1.3849817514419556
1761481461447992600,6.69299267578125,0.21131151914596558,-0.48808491230010986,0.8431380391120911
1761481461467934700,6.712934814453125,0.46318891644477844,-0.7193707823753357,0.18949061632156372
1761481461487877600,6.732877685546875,0.05771941691637039,-0.092860646545887,0.35952624678611755
1761481461507819500,6.752819580078125,-0.5893157720565796,0.8524488210678101,0.9886182546615601
1761481461527762400,6.772762451171875,-0.5472230315208435,1.2253128290176392,0.900939404964447
1761481461547705300,6.792705322265625,0.025200244039297104,0.6572522521018982,0.014831790700554848
1761481461567647500,6.8126474609375,0.33275240659713745,0.05889090150594711,-0.559526264667511
1761481461587590400,6.83259033203125,0.3773308992385864,0.09226642549037933,-0.5269069075584412
1761481461607533600,6.852533447265625,0.43657124042510986,0.3739069998264313,-0.3353501260280609
1761481461627475500,6.872475341796875,0.46762150526046753,0.19022168219089508,-0.30452483892440796
1761481461647418600,6.892418701171875,0.19015729427337646,-0.18742398917675018,-0.5041429400444031
1761481461667360500,6.912360595703125,-0.24978263676166534,-0.3070506751537323,-1.080395221710205
1761481461687303400,6.932303466796875,-0.26012641191482544,-0.11375845968723297,-1.6240571737289429
1761481461707246600,6.95224658203125,0.24452337622642517,-0.049324244260787964,-1.6561336517333984
1761481461727188500,6.9721884765625,0.48696428537368774,-0.1589014232158661,-0.9113681316375732
1761481461747131600,6.992131591796875,0.24483123421669006,-0.11959122121334076,-0.030381133779883385
1761481461767074600,7.012074462890625,-0.16534355282783508,0.0012981845065951347,0.3428570628166199
1761481461787016700,7.0320166015625,-0.38525110483169556,0.10983379930257797,0.47211456298828125
1761481461806959600,7.051959716796875,-0.3650169372558594,0.3045705258846283,0.4210982322692871
1761481461826902500,7.071902587890625,-0.1656232476234436,0.3085534870624542,0.2200188934803009
1761481461846844400,7.091844482421875,-0.05802902951836586,0.12599794566631317,0.020087506622076035
1761481461866787300,7.111787353515625,-0.12905685603618622,-0.22247250378131866,-0.1068207174539566
1761481461886729500,7.1317294921875,-0.28612855076789856,-0.626954197883606,-0.12665678560733795
1761481461906672400,7.15167236328125,-0.19276180863380432,-0.7473692297935486,-0.10108925402164459
1761481461926615600,7.171615478515625,-0.08786703646183014,-0.4313585162162781,-0.11169756948947906
1761481461946557400,7.191557373046875,-0.2718956172466278,-0.15982553362846375,0.09666278958320618
1761481461966500600,7.21150048828125,-0.419577419757843,-0.017827574163675308,0.6769623160362244
1761481461986443500,7.231443603515625,-0.29243800044059753,-0.24824799597263336,1.0962902307510376
1761481462006385700,7.2513857421875,-0.12615641951560974,-0.4069633483886719,0.6282020807266235
1761481462026328600,7.27132861328125,-0.39614737033843994,0.0751238465309143,-0.3476443290710449
1761481462046270700,7.291270751953125,-0.5809686183929443,0.7059540152549744,-0.7272199988365173
1761481462066213600,7.311213623046875,-0.22970160841941833,1.0040165185928345,-0.4754844605922699
1761481462086156500,7.331156494140625,0.13794483244419098,0.5561316013336182,-0.3828872740268707
1761481462106098400,7.351098388671875,0.17917542159557343,-0.3662790358066559,-0.36874502897262573
1761481462126042600,7.371042724609375,0.3362452983856201,-0.7529690265655518,0.17817114293575287
1761481462145985500,7.390985595703125,0.5550535321235657,-1.0127452611923218,0.4827597439289093
1761481462165927700,7.410927734375,0.4464675486087799,-1.0183379650115967,0.2777066230773926
1761481462185870600,7.43087060546875,0.00032556679798290133,-0.20648697018623352,0.02104838378727436
1761481462205812700,7.450812744140625,-0.4391692876815796,0.26373210549354553,0.014658952131867409
1761481462225755600,7.470755615234375,-0.33698177337646484,0.07459484785795212,0.11754561215639114
1761481462245698800,7.49069873046875,0.04546550288796425,-0.31765902042388916,-0.24271179735660553
1761481462265640700,7.510640625,0.10388998687267303,-0.14702612161636353,-0.6855675578117371
1761481462285583600,7.53058349609375,-0.13911232352256775,0.3547566533088684,-0.6515257358551025
1761481462305526800,7.55052685546875,-0.3556582033634186,0.5966345071792603,-0.2521761953830719
1761481462325468400,7.570468505859375,-0.3329172730445862,0.6658588647842407,0.04541094973683357
1761481462345411600,7.59041162109375,-0.18956756591796875,0.8640223145484924,0.09247694164514542
1761481462365353500,7.610353515625,0.009670441970229149,0.7441921830177307,0.09500953555107117
1761481462385296600,7.630296630859375,0.08470292389392853,0.3500310480594635,0.08679965883493423
1761481462405239600,7.650239501953125,0.17693500220775604,0.12325188517570496,-0.11724613606929779
1761481462425181700,7.670181640625,0.1467520296573639,0.2769137918949127,-0.28053656220436096
1761481462445124600,7.69012451171875,-0.08598008006811142,0.20890295505523682,-0.0969623327255249
1761481462465067500,7.710067626953125,-0.23318572342395782,-0.4232962429523468,0.3513091206550598
1761481462485009700,7.730009765625,-0.06162574142217636,-0.8225505352020264,0.7216070890426636
1761481462504952600,7.74995263671875,0.2619507908821106,-0.36768704652786255,0.8211522698402405
1761481462524894700,7.769894775390625,0.34069541096687317,0.2677215337753296,0.8192692995071411
1761481462544837600,7.789837646484375,0.04906146973371506,0.11049612611532211,0.5429133772850037
1761481462564780800,7.80978076171875,-0.31485986709594727,-0.36205214262008667,-0.08632859587669373
1761481462584722700,7.82972265625,-0.05422908440232277,0.21085941791534424,-0.4657146632671356
1761481462604665900,7.849665771484375,0.6215057969093323,0.8529158234596252,-0.5527645349502563
1761481462624607500,7.869607421875,0.7543664574623108,0.8490998148918152,-0.6863847374916077
1761481462644550700,7.889550537109375,0.3269175887107849,-0.07868143171072006,-0.8689364194869995
1761481462664493600,7.90949365234375,0.08566325902938843,-0.7256476283073425,-0.6150239109992981
1761481462684435700,7.929435791015625,0.21495750546455383,-0.6840516328811646,-0.11829787492752075
1761481462704378600,7.949378662109375,0.14776268601417542,-0.2830943763256073,-0.3409756124019623
1761481462724321500,7.969321533203125,-0.04887106642127037,0.6387389302253723,-0.9539042711257935
1761481462744263700,7.989263671875,-0.35453128814697266,1.0249903202056885,-1.311942219734192
1761481462764206600,8.00920654296875,-0.4972192347049713,0.5056099891662598,-1.2612051963806152
1761481462784148700,8.029148681640624,-0.36409980058670044,-0.16604064404964447,-1.1690539121627808
1761481462804091600,8.049091552734374,0.012233945541083813,-0.6079446077346802,-1.1831681728363037
1761481462824034800,8.069034912109375,0.3220604956150055,-0.5654650330543518,-0.9467332363128662
1761481462843976700,8.088976806640625,0.2205626368522644,-0.13536599278450012,-0.5593888759613037
1761481462863919600,8.108919677734375,-0.09550172835588455,0.18016211688518524,-0.21942605078220367
1761481462883862800,8.12886279296875,-0.20727689564228058,0.343752384185791,0.36973118782043457
1761481462903804400,8.148804443359374,-0.14104652404785156,0.19001394510269165,0.8626147508621216
1761481462923747600,8.16874755859375,-0.05443935468792915,0.04438403993844986,0.8462772965431213
1761481462943689500,8.188689453125,0.02264503762125969,0.058142032474279404,0.47483545541763306
1761481462963632600,8.208632568359375,0.016323287039995193,0.09161289036273956,0.32317593693733215
1761481462983575600,8.228575439453126,-0.06655291467905045,0.15553908050060272,0.5935923457145691
1761481463003517700,8.248517578125,-0.1542656570672989,0.163985013961792,0.8993762731552124
1761481463023460600,8.268460693359375,-0.23896320164203644,-0.12947331368923187,1.0634926557540894
1761481463043403500,8.288403564453125,-0.12322140485048294,-0.30177947878837585,1.2505037784576416
1761481463063345700,8.308345703125,0.12816911935806274,-0.30968329310417175,1.0761228799819946
1761481463083288600,8.32828857421875,-0.13425292074680328,-0.45460274815559387,0.4024420976638794
1761481463103230700,8.348230712890626,-0.7361224293708801,-0.8915277123451233,0.03430567681789398
1761481463123172600,8.368172607421876,-0.41408923268318176,-0.6608412861824036,0.42278894782066345
1761481463143115500,8.388115478515624,0.21456541121006012,0.00680596474558115,0.78963702917099
1761481463163057700,8.4080576171875,0.45770567655563354,0.5501651167869568,0.6310642957687378
1761481463183000600,8.42800048828125,0.26821985840797424,0.4435109496116638,0.12917718291282654
1761481463202942700,8.447942626953125,0.09121599793434143,-0.22535350918769836,0.03930142894387245
1761481463222885600,8.4678857421875,0.23092660307884216,-0.5779904723167419,0.18428188562393188
1761481463242828500,8.48782861328125,0.15583489835262299,-0.5581164360046387,0.0498027577996254
1761481463262770700,8.507770751953124,0.03367004543542862,-0.11368059366941452,-0.2793324887752533
1761481463282713600,8.527713623046875,-0.05487271025776863,0.21644316613674164,-0.6918391585350037
1761481463302656800,8.54765673828125,-0.061374977231025696,0.4137284457683563,-0.9846413135528564
1761481463322598400,8.567598388671875,-0.15696004033088684,0.34799009561538696,-1.2554161548614502
1761481463342541600,8.58754150390625,-0.007059918716549873,-0.26891642808914185,-1.439355731010437
1761481463362483500,8.6074833984375,0.2756417691707611,-0.7387760281562805,-1.2313590049743652
1761481463382426600,8.627426513671875,0.15896819531917572,-0.4907829463481903,-0.8570986986160278
1761481463402369500,8.64736962890625,-0.14242781698703766,0.10030440986156464,-0.47135743498802185
1761481463422311400,8.6673115234375,-0.3684065639972687,0.31426116824150085,-0.1869325488805771
1761481463442254600,8.687254638671876,-0.35658589005470276,0.16781607270240784,0.003593399887904525
1761481463462196500,8.707196533203126,-0.25389373302459717,-0.23093174397945404,0.152997687458992
1761481463482139600,8.7271396484375,-0.21412751078605652,-0.42120903730392456,0.2623380124568939
1761481463502082600,8.74708251953125,-0.33261990547180176,-0.3244863748550415,0.2677251994609833
1761481463522024700,8.767024658203125,-0.5710079073905945,-0.2509782612323761,0.20779360830783844
1761481463541967600,8.786967529296875,-0.6144021153450012,-0.20508426427841187,0.38163262605667114
1761481463561910500,8.80691064453125,-0.30070245265960693,0.08251502364873886,0.7988278269767761
1761481463581852700,8.826852783203124,-0.08876613527536392,0.40828603506088257,1.28238844871521
1761481463601795600,8.846795654296875,-0.34688809514045715,0.3429802358150482,1.4608635902404785
1761481463621737500,8.866737548828125,-0.6322377920150757,-0.16880367696285248,0.9209572672843933
1761481463641680400,8.886680419921875,-0.5184119939804077,-0.7976742386817932,0.09544753283262253
1761481463661623600,8.90662353515625,0.012933073565363884,-0.4052780866622925,0.2544885575771332
1761481463681565400,8.9265654296875,0.47110432386398315,0.4659753441810608,1.190999150276184
1761481463701508600,8.946508544921874,0.4902286231517792,1.2017185688018799,1.5021048784255981
1761481463721450500,8.966450439453125,0.1089760884642601,1.1042381525039673,0.7719910740852356
1761481463741393700,8.9863935546875,-0.15963822603225708,0.19935952126979828,-0.10627011209726334
1761481463761336600,9.006336669921875,0.3745529055595398,-0.23112981021404266,-0.28325146436691284
1761481463781278700,9.02627880859375,0.7864874601364136,-0.3052607476711273,-0.024335741996765137
1761481463801221600,9.0462216796875,0.4150503873825073,0.05643557012081146,-0.01541777141392231
1761481463821164500,9.06616455078125,-0.2846542000770569,0.2165689617395401,-0.5010263323783875
1761481463841106700,9.086106689453125,-0.4579579830169678,-0.029478445649147034,-0.885212242603302
1761481463861049600,9.106049560546875,0.1278253048658371,-0.4383935034275055,-1.039677619934082
1761481463880991500,9.125991455078125,0.3261334300041199,-0.6626612544059753,-1.1715527772903442
1761481463900934400,9.145934326171876,-0.022758830338716507,-0.5875534415245056,-1.1786558628082275
1761481463920877600,9.165877685546874,-0.27764591574668884,-0.10121576488018036,-0.8985855579376221
1761481463940819500,9.1858193359375,-0.2335808426141739,0.5208814144134521,-0.5568000674247742
1761481463960762600,9.2057626953125,-0.07502725720405579,0.4971920847892761,-0.2505148947238922
1761481463980704500,9.22570458984375,-0.07121951878070831,-0.18024763464927673,-0.062234051525592804
1761481464000647400,9.2456474609375,-0.09350985288619995,-0.64307701587677,-0.10053464770317078
1761481464020590600,9.265590576171874,-0.06198405846953392,-0.3079991936683655,-0.2676025629043579
1761481464040532500,9.285532470703124,-0.01728704385459423,0.21060535311698914,-0.06699711829423904
1761481464060475600,9.3054755859375,-0.11437918245792389,0.3400089740753174,0.300191193819046
1761481464080417500,9.32541748046875,-0.2786561846733093,0.2048531025648117,0.6442772150039673
1761481464100360700,9.345360595703125,-0.1918216198682785,-0.18643370270729065,1.1552921533584595
1761481464120303600,9.3653037109375,0.015963150188326836,-0.22996653616428375,1.5009037256240845
1761481464140245800,9.385245849609374,-0.17658834159374237,0.1537046879529953,1.1468390226364136
1761481464160188700,9.405188720703125,-0.5717558860778809,0.11353197693824768,0.6004912853240967
1761481464180130800,9.425130859375,-0.4819786250591278,-0.1751466989517212,0.35363486409187317
1761481464200073700,9.44507373046875,0.07432734966278076,-0.11908484995365143,0.6976013779640198
1761481464220015900,9.465015869140625,0.40908730030059814,0.42942771315574646,0.955669105052948
1761481464239958800,9.484958740234376,0.5254703760147095,0.709386944770813,0.9004932045936584
1761481464259901700,9.504901611328124,0.47747913002967834,0.21041502058506012,0.4608670175075531
1761481464279843800,9.52484375,0.3519628942012787,-0.7270728945732117,-0.19107618927955627
1761481464299786800,9.544786865234375,0.5259948968887329,-1.2918267250061035,-0.5050835609436035
1761481464319728600,9.564728759765625,0.6334254741668701,-1.075629472732544,-0.5572327375411987
1761481464339671600,9.584671630859376,0.3352777063846588,-0.036188263446092606,-0.5574639439582825
1761481464359614700,9.60461474609375,-0.47360530495643616,0.9842044711112976,-0.42058494687080383
1761481464379556600,9.624556640625,-0.7143378257751465,0.6123288869857788,0.4051082730293274
1761481464399499800,9.644499755859375,-0.16404037177562714,-0.6594557166099548,0.8614387512207031
1761481464419441700,9.664441650390625,0.41889137029647827,-1.193313479423523,0.38006719946861267
1761481464439384600,9.684384521484375,0.48718902468681335,-0.5025191307067871,-0.546887993812561
1761481464459327700,9.70432763671875,0.030996162444353104,0.7793752551078796,-1.222274661064148
1761481464479269600,9.72426953125,-0.29686930775642395,1.3818726539611816,-1.0840682983398438
1761481464499212800,9.744212890625,-0.14895176887512207,0.7877445220947266,-0.24374209344387054
1761481464519154700,9.76415478515625,0.149702787399292,0.42312347888946533,0.39310967922210693
1761481464539097900,9.784097900390625,0.20701029896736145,0.39438629150390625,0.5520800352096558
1761481464559040800,9.804040771484376,0.2548891305923462,0.18274061381816864,0.4540477395057678
1761481464578982700,9.823982666015626,0.31074005365371704,-0.32334381341934204,0.09822714328765869
1761481464598925600,9.843925537109374,0.08482436090707779,-0.4501758813858032,-0.4290902614593506
