time,ax,ay,az,gx,gy,gz,activity_type
1761430231866737400,0.072402242257446,-0.1594653346878476,9.76151555776e-05,-0.0068164155818521,-0.0494052320718765,-0.0580789223313331,still
1761430231886681300,-0.0029594343274831,-0.0791327378225512,0.1185533141881227,0.0194253791123628,-0.0767799690365791,-0.069669134914875,still
1761430231906624300,0.0030209552563726,-0.0532349292444065,0.2929500961512327,-0.0441488027572631,-0.1343087702989578,-0.0756117179989814,still
1761430231926567400,0.0152792560659348,-0.0420804614908993,0.0408294385164976,-0.0482916869223117,-0.0967975184321403,-0.0853592827916145,still
1761430231946511400,0.0830596837416291,0.0609810498591512,-0.256766437613964,0.0142522379755973,-0.0186486653983593,-0.0870227292180061,still
1761430231966454300,0.2051468711443245,0.1770929987771436,-0.2200572938978671,0.0493672974407672,0.042750421911478,-0.0726108625531196,still
1761430231986398200,0.2478914956323802,0.1123744246237911,0.0297714534074068,0.0128718754276633,0.0727420970797538,-0.0544667020440101,still
1761430232006341000,0.2708558993734419,0.0238786142428405,0.184152452301979,-0.0255420189350843,0.0829879269003868,-0.0373168364167213,still
1761430232026285300,0.2128070305086672,0.0170221176778897,0.2208551662772893,-0.0353415310382843,0.0274336207658052,-0.023537989705801,still
1761430232046228500,0.2365606849312782,-0.0372338251773268,0.0866430951863527,-0.0020126283634454,-0.0048101381398737,0.0131925661116838,still
1761430232066172400,0.0669303867176175,0.0410534017317928,-0.1815460691958665,0.0576154701411724,0.0083215264603495,0.0312331765890121,still
1761430232086115300,-0.104629564384371,-0.0221580923268571,-0.3268184634834528,0.1368729919195175,0.0276829525828361,0.033526886254549,still
1761430232106059300,-0.2060937966056168,-0.1809543321141041,-0.2962836244881153,0.1885551363229751,0.033048465847969,0.0180159825831651,still
1761430232126002400,-0.1502516440048813,-0.3432262851879,0.0056330374509096,0.1527650654315948,-0.0089053167030215,-0.0232321303337812,still
1761430232145945300,-0.1736249208077788,-0.3432673113180324,0.2658282804697752,0.0389808267354965,-0.0705090388655662,-0.0753718018531799,still
1761430232165889300,-0.0903819894537329,-0.2402257467774674,0.2144172421842813,-0.0315662361681461,-0.0781631097197532,-0.0886589363217353,still
1761430232185832200,-0.088084233905375,-0.0160682875517755,-0.1262321782529354,0.0012527226936072,-0.0208583008497953,-0.0860670208930969,still
1761430232205776100,-0.0383422978758811,0.1987461372565478,-0.3160889796763658,0.072917565703392,0.0536361970007419,-0.0601327531039714,still
1761430232225718800,0.0028483751684427,0.1570751333493739,-0.1310375327080488,0.0736298337578773,0.0198814403265714,-0.0340630300343036,still
1761430232245663000,0.0654879328243434,0.128941546809487,0.0576852962493896,0.0426942929625511,0.0439638718962669,0.0118948724120855,still
1761430232265606000,0.0624875819645822,0.0001076250929385,0.202504101550579,0.0116673186421394,0.0006940928287804,0.0404810234904289,still
1761430232285549800,-0.0134571552053093,-0.1157920693138614,0.2812625809669494,-0.0109156016260385,-0.0660072043538093,0.0483028069138526,still
1761430232305493000,-0.074913494426012,-0.1362998006178066,0.2529617846339941,-0.0076011293567717,-0.0958046987652778,0.0388497188687324,still
1761430232325437000,-0.0987302772127091,-0.2127236630741506,0.0768003310859203,0.0123283248394727,-0.0826821103692054,0.0184186901897192,still
1761430232345379800,-0.0682573975376784,-0.1659370331862941,-0.0241752408355474,0.0216027796268463,-0.0178234446793794,0.0094331381842494,still
1761430232365323800,0.0214889243610203,-0.1620375049971044,0.0662292527109384,0.018110217526555,-0.0208218619227409,0.0045018726959824,still
1761430232385266700,0.0938894130527973,-0.1196633212566375,0.1172661969870328,0.0130884582176804,-0.0403014235198497,0.012309480458498,still
1761430232405209900,0.1361097214058041,-0.0134711471980437,0.144485627824068,0.0084421876817941,-0.0643324479460716,0.0360792949795722,still
1761430232425153800,0.1962061704501509,0.0386392349958419,0.0447784684032201,0.0189216565340757,-0.0594257339835166,0.0587692968547344,still
1761430232445096700,0.126667354799807,-0.0417222591703757,0.003453939846158,0.01594721339643,-0.0128351934254169,0.0622173473238945,still
1761430232465041000,0.0801506644271314,-0.1095026503134518,-0.0227285491585731,0.017236603423953,0.0486054942011833,0.057745985686779,still
1761430232484983800,0.0609830226205289,-0.1178520705835893,0.1238730479061603,0.0276502091437578,0.0503238029778003,0.044949147850275,still
1761430232504928000,0.0647001434475183,-0.1887866514412686,0.2925222261279821,0.0132262455299496,-0.053187258541584,0.0112564479932188,still
1761430232524871000,0.0599931348003447,-0.1383284934338182,0.1830091274857521,-0.0265460554510355,-0.0511019900441169,-0.0132065126672387,still
1761430232544814800,0.0840051478981971,0.0192715405724942,-0.0661988575726747,-0.0340559743344783,0.0211395975202322,-0.0007433608407154,still
1761430232564757800,0.1144112459473311,0.1113751661870628,-0.1716746635228395,-0.0011999291600659,0.041363563388586,0.0221219435334205,still
1761430232584701700,0.0809155113197863,0.0868059941304847,-0.0790688605397939,0.0450988113880157,0.0286226402968168,0.0406774170696735,still
1761430232604644900,-0.0324767668433487,0.0450808123506605,-0.0421048652797937,0.0897677466273307,0.0238641053438186,0.0414713062345981,still
1761430232624588800,-0.0886320770464837,-0.0700368283003568,0.1263257017552852,0.0656650513410568,-0.0452247075736522,0.0158359091728925,still
1761430232644531700,-0.0989862978003919,-0.0622663038967177,0.2129372327595949,-0.0143472030758857,-0.0283615943044424,0.0139110973104834,still
1761430232664474600,-0.149499802724272,-0.0191489371061325,0.0475216296315193,-0.049317080527544,0.0326975099742412,0.0147943114861845,still
1761430232684418800,-0.1659409421764314,-0.0118134796515107,-0.2493675595343112,0.0319928638637065,0.0857559740543365,0.0083431797102093,still
1761430232704362000,-0.1358231595493853,-0.0604501943854615,-0.3155401136219501,0.144013449549675,0.0675027966499328,-0.0049033286049962,still
1761430232724306000,-0.0099601068697869,-0.0294411985397338,-0.1993278096020221,0.188832938671112,0.0938495695590972,0.0142875844612717,still
1761430232744248800,-0.0415248734347522,-0.0380684128379449,0.0601198299199342,0.1133485808968544,0.1455605030059814,0.0234118681401014,still
1761430232764192800,-0.0102241646334528,-0.1709436823671683,0.3329991979449987,0.0274304561316967,0.1666287034749984,0.0611949041485786,still
1761430232784136000,-0.2609612589552998,-0.1478658813795074,0.26636019538939,0.0019866146612912,0.2342508882284164,0.0148287396878004,still
1761430232804079900,-0.0152149586580693,-0.2993630319334566,0.2652595406711101,0.0156669840216636,0.1070760414004325,0.000798960274551,still
1761430232824022800,0.0267053438350558,-0.1782899534767493,-0.0059025020420551,0.0667638704180717,0.046321939677,-0.0217883847653865,still
1761430232843966700,0.1517711086571216,0.0241884291106834,-0.1293587858408689,0.0978994891047477,0.0593822449445724,0.0196678396314382,still
1761430232863909600,0.2002374717928469,0.1429649575954303,-0.0871785172373056,0.1271592080593109,0.0871821045875549,0.0623758248984813,still
1761430232883853800,-0.0189677353203296,0.1667705614009872,0.1568658014476299,0.0952375680208206,0.0984412655234336,0.0684876888990402,still
1761430232903797000,0.1395728674717247,-0.0795372087039053,0.29642390974164,0.0162611808627843,0.1047965586185455,0.0739639922976493,still
1761430232923740000,0.1138923366397619,-0.158824315104261,0.3940460795819759,-0.0303290039300918,0.0472931824624538,0.0439498424530029,still
1761430232943683800,0.0423328288167715,-0.1093732883127406,0.2582815183520316,-0.0220994502305984,-0.0376105345785617,0.0024005006998777,still
1761430232963626800,0.1348528532125055,-0.0026209961533546,0.0043178631991147,0.0389200821518898,-0.0464138910174369,-0.0081155598163604,still
1761430232983570700,0.0555889084920287,0.0453220006953924,-0.0877542712986469,0.0896740481257438,0.0129098184406757,-0.0196220427751541,still
1761430233003513900,0.1048133965186774,-0.0084126582320779,-0.0096241529136896,0.0939962193369865,0.043348092585802,-0.0272607766091823,still
1761430233023457800,0.1561436246529221,-0.0425167340163141,0.1484042625725269,0.0527505837380886,0.0235106348991394,-0.0430113822221756,still
1761430233043400700,0.184412710673362,-0.0493884464167058,0.2104892550855875,0.0178222768008708,0.0519234016537666,-0.0399778597056865,still
1761430233063344600,0.2151135538853704,-0.0947987829826772,0.1513888313412666,0.0061575109139084,0.0480993799865245,-0.0369801670312881,still
1761430233083287800,0.1877763418875634,-0.0900852715294808,0.1782435205191373,0.0290384981781244,-0.0177634879946708,-0.0424909368157386,still
1761430233103232000,0.1993937144450843,0.0094477734334766,0.1275882690370083,0.0544475726783275,-0.0846434608101844,-0.035472210496664,still
1761430233123175000,0.1872096479155123,0.1015425581544637,-0.0589502016186714,0.0523750036954879,-0.0536761432886123,-0.0049999924376606,still
1761430233143117800,0.0859212106525898,0.1622892878010869,-0.1372071612536907,0.0115478495135903,0.0772305056452751,0.0194364860653877,still
1761430233163061800,0.0350268897175788,0.0404258992169052,0.0315659356087446,-0.0148531086742877,0.0921304300427436,0.0316359214484691,still
1761430233183005000,-0.0259513105973601,-0.0519062013912945,0.0228787712842226,0.0123894056305289,0.0768457278609275,0.0296270251274108,still
1761430233202948900,-0.071637687625736,-0.0469619499221444,0.0908007993876934,0.0389076396822929,0.0172128714621067,0.0207735206931829,still
1761430233222891500,0.0598792991623282,-0.1294640728462487,0.2696428703218698,0.0096728391945362,-0.0822622776031494,0.0250014383345842,still
1761430233242835500,0.0056833063334226,-0.0893973623305559,0.299288651522994,-0.055593516677618,-0.0764714479446411,0.0323509164154529,still
1761430233262778600,-0.0875374136775732,-0.0850271844223141,0.1394540633976459,-0.0951491817831993,-0.0445012226700782,0.0239704344421625,still
1761430233282722600,-0.1624180287472903,-0.0508154104799032,-0.1465916601926088,-0.0541952103376388,-0.0122216120362281,0.0018260668730363,still
1761430233302665500,-0.2421240181468427,0.0138255501262843,-0.2562012049466371,0.0274601615965366,0.0234457235783338,-0.0019720424897968,still
1761430233322609700,-0.0493957529403269,-0.1372897980358451,-0.075804890307784,0.0657292529940605,-0.0650196969509124,-0.0072285896167159,still
1761430233342552600,-0.0949088192284107,-0.0869845290351659,0.1526011297404766,0.0362607985734939,-0.0907912403345108,-0.0405961871147155,still
1761430233362495700,-0.078461688426882,-0.1396998548522591,0.1975391726195812,-0.025794368237257,-0.0433838255703449,-0.0385142751038074,still
1761430233382439700,0.1449950386509299,-0.2998014964159577,0.1857248161852359,-0.087993212044239,-0.0350099317729473,-0.0321105308830738,still
1761430233402382600,-0.0298372121199965,-0.0895371361274272,-0.055377603828907,-0.0650510117411613,0.0356845334172248,-0.0529689490795135,still
1761430233422326500,0.1659916494503617,-0.0008592471778392,-0.109835754725337,-0.0185022186487913,0.0385880134999752,-0.0317751094698905,still
1761430233442269400,0.2158956441737711,0.0821942260187119,0.0148819273114204,0.0149257536977529,-0.0198199693113565,-0.0017980639822781,still
1761430233462213600,0.2352896420821547,0.1431023567721247,-0.023166940575838,0.0605936162173748,-0.0424499846994876,0.0329748019576072,still
1761430233482156500,0.2308338317170739,0.1167407118082046,-0.0948942061811685,0.0845373719930648,-0.0308826472610235,0.0557963587343692,still
1761430233502100500,0.2258738712221384,-0.0427224857214838,0.0467190810769796,0.0431604906916618,-0.0286027267575263,0.063574880361557,still
1761430233522043400,0.1187763092890381,-0.107185532477498,0.0181318690180778,0.014057102613151,0.0370165780186653,0.0577996112406253,still
1761430233541987600,-0.0128586047902703,-0.1070442243106663,0.0231178407371044,-0.0121696572750806,0.1084354147315025,0.037135761231184,still
1761430233561930800,0.0314807415433228,-0.056009398926422,0.1483773745656013,-0.0060712629929184,0.0973551794886589,0.0406330078840255,still
1761430233581873700,0.1431394739121198,0.0220496269837021,0.1872638623207807,0.0295965503901243,0.0309334676712751,0.0667124763131141,still
1761430233601817600,0.1617414446599781,0.0310578399561345,0.1272241118997335,0.0786909386515617,-0.0069493516348302,0.1008003205060958,still
1761430233621760500,0.1408389418847858,0.070625734104216,0.0815641844868659,0.0985734909772872,-0.0214602798223495,0.1329258978366851,still
1761430233641704400,0.0661418666884303,-0.0684843381613492,0.2347474980294704,0.0521271117031574,-0.0594401955604553,0.1267988830804824,still
1761430233661647600,0.0030927053183317,-0.1879742025472223,0.3724526719331741,-0.0299021229147911,-0.0711088925600051,0.1036632135510444,still
1761430233681591600,0.0033832126975059,-0.2256792254328727,0.0502127684116363,-0.0605936981737613,-0.0274010263383388,0.0902494341135025,still
1761430233701534500,-0.1451264099456369,-0.1164834491115063,-0.2368207971721887,-0.04109713062644,0.0400071777403354,0.0666548758745193,still
1761430233721478400,-0.0824018043547868,-0.0533519432201981,-0.3141168028205633,0.0032479136716574,0.0811063647270202,0.0666776224970817,still
1761430233741421600,-0.0843638982079923,-0.0480447036575526,-0.0636918431878089,0.0254333764314651,0.0186192877590656,0.0634661167860031,still
1761430233761365800,-0.0562060174770653,-0.0492784832362085,0.1014051955103874,0.0112040843814611,-0.0574332065880298,0.0581163354218006,still
1761430233781308700,-0.0581833088994026,-0.0251135445989668,-0.0380780939817428,0.012323142029345,-0.0378943458199501,0.0632519349455833,still
1761430233801251600,-0.1394556708328425,-0.0201404323615133,-0.2429085926532745,0.054860845208168,0.0409380719065666,0.0512330196797847,still
1761430233821195500,-0.1935413351550698,-0.1032020157992839,-0.2311895132869482,0.1075712218880653,0.0851958841085434,0.0201739333570003,still
1761430233841138700,-0.2524588035479188,-0.0733791975308209,0.0959048445284366,0.0778651386499404,0.129800334572792,-0.0222453456372022,still
1761430233861082600,0.0244213245511055,-0.2374214664790779,0.4116360968083143,-0.0065305610187351,0.102688618004322,-0.0242712218314409,still
1761430233881025500,-0.0541987693078815,-0.0732842127237469,0.5015875858902931,-0.0357476659119129,-0.0233645793050527,-0.0299066752195358,still
1761430233900969500,0.2099745835617184,-0.075992375703901,0.2493909404098987,0.007711905054748,-0.1085695996880531,-0.001254501985386,still
1761430233920912400,0.0686009502783417,-0.0249450561642646,-0.0097995094805955,0.0050191562622785,-0.0621538795530796,-0.0117786368355154,still
1761430233940856600,0.0572252775222063,0.0193047852549701,-0.0676747753441333,-0.0413888692855834,0.0540104061365127,-0.016456801444292,still
1761430233960799500,0.0659435676373541,0.143164827549085,-0.1180260754436254,-0.0533790476620197,0.1171774268150329,0.0191985126584768,still
1761430233980742400,0.2451104866117238,0.0941162075459957,-0.1589700802505016,0.0221093893051147,0.0239701922982931,0.059357464313507,still
1761430234000686600,0.2250298216134309,0.0810797619707882,-0.1350619659185409,0.1023606434464454,-0.0911106690764427,0.0892843976616859,still
1761430234020629800,0.1806292466118931,0.0228453804712742,-0.0263110838204622,0.0974220111966133,-0.0984505042433738,0.1133451387286186,still
1761430234040573700,0.0361228682607412,-0.0089040219455957,-0.0263256968677043,0.0604493208229541,-0.0460843071341514,0.1208522990345954,still
1761430234060516600,-0.0707825321011245,-0.0603377835195511,-0.0704424864917993,0.0586165338754653,-0.0240229479968547,0.1080006808042526,still
1761430234080460500,-0.214513834426552,-0.1104058096982538,-0.1462327637523412,0.0826197266578674,-0.0062876371666789,0.074963591992855,still
1761430234100403500,-0.2110781608894467,-0.1858935238156467,0.0309410817086696,0.0658391714096069,-0.0153572289273142,0.026793697848916,still
1761430234120347400,-0.201165984814614,-0.2139458252802491,0.1814952157914638,0.0153919290751218,-0.0270693711936473,-0.0068826079368591,still
1761430234140290600,-0.1159286647729575,-0.0990340093996375,0.1722013177454471,-0.013980533927679,-0.0623034089803695,-0.0216480623930692,still
1761430234160233500,-0.0756875475384294,0.0410088136713951,-0.0571358456730842,0.008107672445476,-0.0773788094520568,-0.0143056092783808,still
1761430234180177400,-0.0746573277078569,0.2701920286372304,-0.1054629464685916,0.0581290796399116,-0.0860577374696731,0.0070757269859313,still
1761430234200120600,-0.0133522335261106,0.1986185653541237,-0.0623684856295585,0.086540013551712,-0.100440464913845,0.0153451897203922,still
1761430234220064300,-0.1182939325995743,0.1515717866927385,-0.0689414342790842,0.1079107224941253,-0.0400316826999187,0.0005836652126163,still
1761430234240007200,-0.1509182912200689,0.090544559604302,0.0432481900960207,0.0923569649457931,0.0144878793507814,-0.021672086790204,still
1761430234259951400,-0.071412792828679,0.0532532320860773,0.1938479168862104,0.061767604202032,0.0768284127116203,-0.032818779349327,still
1761430234279894300,-0.0563965716131031,-0.0421337991133332,0.4039017031639814,0.0081718573346734,0.0314924977719783,-0.05416189879179,still
1761430234299838200,-0.0023309271655976,-0.1439194453086704,0.5625765998601913,-0.0533581301569938,-0.0511572025716304,-0.0739306434988975,still
1761430234319781400,-0.0145439275287091,-0.148915500030294,0.4169067306876182,-0.0914467051625251,-0.0609646514058113,-0.0964211374521255,still
1761430234339724300,-0.0123914256699383,-0.0199841458212584,0.1584469331592321,-0.0737522765994072,-0.0507309809327125,-0.1031959429383277,still
1761430234359668200,0.0857275877766311,0.1391927090477198,0.0090384619802236,-0.0328661948442459,-0.0759366005659103,-0.0833343341946601,still
1761430234379611100,0.1243384734608232,0.1685738479632884,-0.0823024356335401,-0.0303593389689922,-0.0172426421195268,-0.0461490824818611,still
1761430234399555300,0.0854879338018596,0.084051909649372,-0.0351765273213386,-0.054781686514616,0.0427432768046855,-0.0286043770611286,still
1761430234419498200,0.0867436329513788,-0.0462313706252723,-0.0310848740935325,-0.0345823392271995,0.0165089070796966,-0.0147598069161176,still
1761430234439442200,0.0292792859762907,-0.0935713600795716,-0.0062789341390132,0.0217767115682363,-0.0764140784740448,-0.0234288163483142,still
1761430234459385000,0.0467484533019363,-0.141628850153461,-0.0304793094158172,0.0523942522704601,-0.1076362431049346,-0.026339678093791,still
1761430234479329300,0.0309476575799286,-0.0560314646277576,0.0142898066371679,0.0285498574376106,-0.1186093091964721,-0.027376065030694,still
1761430234499272400,0.0788413353942334,-0.0523226732376962,0.1313309626966714,-0.0593902394175529,-0.0786411166191101,-0.0235152430832386,still
1761430234519215400,-0.0405421460077166,-0.0853228794332593,0.1285281802356243,-0.1367713361978531,0.0343876779079437,-0.0329913757741451,still
1761430234539159300,-0.1497230900861322,-0.1319576432276517,-0.0507090274959802,-0.1232748478651046,0.0915435850620269,-0.0553997345268726,still
1761430234559102200,-0.1000564112499356,-0.1797876812212169,-0.1449777952551841,-0.0244917906820774,0.0396690070629119,-0.0800986662507057,still
1761430234579046100,0.0358512117125093,-0.129434043034166,-0.0904044935464859,0.0725194588303566,-0.0265626292675733,-0.0697773396968841,still
1761430234598989300,0.1250654725611209,-0.0470775391258299,0.1482780058443546,0.0597783513367176,-0.1195142567157745,-0.0540026128292083,still
1761430234618933200,0.0796082281135022,-0.0398420349143445,0.3446972345232963,-0.0451361052691936,-0.0804396271705627,-0.0379842594265937,still
1761430234638876200,-0.0163638364322483,-0.1203346446469426,0.1637999846249818,-0.126007467508316,0.0122398473322391,-0.0576202273368835,still
1761430234658820000,-0.0897067205406725,-0.1646998560741543,-0.1127729772210121,-0.1059958562254905,0.0622954741120338,-0.1120536997914314,still
1761430234678763300,0.0011157061569392,-0.1772735064432024,-0.1362011990815401,-0.0174133013933897,0.0718429908156395,-0.0689459145069122,still
1761430234698706200,0.1066565401673316,-0.0537215802501887,-0.0103144732654094,0.0452265478670597,-0.0820077434182167,-0.0863426849246025,still
1761430234718650400,0.1126262622267007,0.0158338942740112,0.0515489854514598,0.023401141166687,-0.0625423416495323,-0.0510537698864936,still
1761430234738593300,0.1302367377191781,0.059528147637099,0.0780061997443437,-0.052392516285181,-0.0165854673832654,-0.0308807473629713,still
1761430234758537200,0.1052848134227096,0.0254940683491528,-0.0430465300440788,-0.0723490789532661,0.0307987444102764,-0.0111417267471551,still
1761430234778480400,0.0878596313692629,-0.007091200369969,-0.1529313846081495,-0.0047850026749074,0.0127410888671875,-0.0081705395132303,still
1761430234798424300,0.0787958888173103,-0.0719472650315612,-0.106950554677844,0.0470531620085239,-0.021238449960947,-0.0088283410295844,still
1761430234818367200,0.0492962380886077,-0.0596273702278733,0.100143212750554,0.0134308980777859,-0.0279008671641349,-0.0033914598170667,still
1761430234838310100,0.0053556818142533,-0.0728344961948692,0.1781663636296987,-0.0327827408909797,0.0110409948974847,0.002089514164254,still
1761430234858254000,-0.0555409776970744,-0.0755267309535294,0.082397712701559,-0.0202924199402332,0.0222726222127676,-0.0029613326769322,still
1761430234878197200,-0.0161596921622753,-0.1557599590975791,0.0652197834074497,0.0001598331728018,-0.0122537799179553,-0.0140664260834455,still
1761430234898141200,-0.0044520109727978,-0.1474167859051376,0.1164215628564357,-0.0191608667373657,-0.0200852900743484,-0.020735029131174,still
1761430234918084000,0.0190529293857514,-0.0767740276008844,0.1929828244894743,-0.0737041756510734,-0.022676046937704,-0.0134138455614447,still
1761430234938028300,0.0747536276891827,-0.0377761884257197,0.1289285777300596,-0.0957600176334381,-0.0180609039962291,-0.0023613690864294,still
1761430234957971500,0.0391597517386078,-0.0871897692836821,-0.077974051040411,-0.0391090102493763,-0.0160929448902606,-0.0141964368522167,still
1761430234977915400,0.0318413915492594,-0.1056090769410133,-0.1755593960016965,0.0078749153763055,0.0002384390681982,-0.0145183494314551,still
1761430234997858300,0.0901319602154195,-0.0225619604200124,0.0457078582078218,-0.015247642993927,0.0305054262280464,-0.0117306904867291,still
1761430235017801200,0.1156096619516611,0.0377477660488337,0.2549380531430244,-0.0562120974063873,0.0017436230555176,0.0158495660871267,still
1761430235037745200,0.1264667176611721,-0.0190446730140596,0.1699754583895206,-0.0210563838481903,-0.0749829038977623,0.0222582072019577,still
1761430235057688300,0.0652991322539746,-0.0995437124874442,-0.0610036270171403,0.0178701691329479,-0.0399169586598873,0.029557004570961,still
1761430235077632300,-0.046008740850538,-0.0790560010582208,-0.0615092384517192,0.0020299542229622,-0.0062463469803333,-0.0082007609307765,still
1761430235097575200,0.0746465140528976,-0.0580083176586776,0.0152069214820861,-0.028653223067522,0.0511382445693016,0.0040902765467762,still
1761430235117519000,0.0495722785510122,0.0866202257674187,0.0407587113678455,-0.0296974945813417,0.0384255051612854,0.0230932086706161,still
1761430235137462000,0.1155491639360785,0.0725700731050223,0.0563987635701894,0.0074865035712718,-0.0138219278305768,0.0494758039712905,still
1761430235157405200,0.0799517808541655,0.0451785736367106,0.1031494088292121,0.0261753089725971,-0.0415347106754779,0.0589012205600738,still
1761430235177349400,-0.0325698519542813,-0.0800317872878164,0.0849298615276813,0.0071323048323392,-0.0471128188073635,0.0271029006689786,still
1761430235197292300,-0.0309073255695402,-0.1075887795161455,0.0563829814791679,-0.0225557927042245,0.0027874317020177,0.0098935812711715,still
1761430235217236500,-0.0314089914813637,-0.0477185404431074,0.0730365946382284,-0.0626052841544151,0.0502760037779808,-0.0038716751150786,still
1761430235237179400,0.0279383927613496,-0.0039058483321219,-0.023968904608488,-0.0525891333818435,0.0610614977777004,0.0089427037164568,still
1761430235257123600,0.1012589189074933,0.0366886854499578,-0.0973895301282405,0.0271735340356826,-0.0168619155883789,0.0195429753512144,still
1761430235277066800,0.0612077712871134,0.002420139819011,-0.0586421585828065,0.0724591091275215,-0.0588030293583869,0.0239931270480155,still
1761430235297010700,0.0062488312616944,-0.0637510260291397,0.0270505040109157,0.0500734262168407,-0.0499598681926727,0.0062546646222472,still
1761430235316953600,-0.0490361258476972,-0.0965586322620511,-0.0529839866906404,-3.82327125407e-05,0.0157831255346536,-0.0086318999528884,still
1761430235336896800,-0.1142198150284588,-0.0911045315746218,-0.155498604747653,-0.0021453741937875,0.096935898065567,-0.0341263934969902,still
1761430235356840700,-0.066408993192017,-0.0710882370494306,-0.1427560275524854,0.0458309166133403,0.1074886471033096,-0.0438049286603927,still
1761430235376783600,-0.0091914605848491,-0.0682941493514925,0.0548386746466159,0.0930412784218788,0.0448731333017349,-0.0468566715717315,still
1761430235396727600,0.0394283395469188,-0.0764941877461969,0.2075064398825168,0.0796263590455055,0.0068852258846163,-0.0454730428755283,still
1761430235416670500,0.0692585374042391,0.0191080205738544,0.32934125995934,0.031907133758068,-0.002434853464365,-0.0326715558767318,still
1761430235436614400,0.0997100820302963,0.0687396280966699,0.3083721216887235,-0.0035954911727458,-0.0224280264228582,-0.020606979727745,still
1761430235456557600,0.0735194097191095,0.0652034167945384,0.1119908869326114,0.0079892333596944,-0.0277080330997705,-0.0124532524496316,still
1761430235476500500,0.0542630667157471,0.0831548146791756,0.0181435594558715,0.0245905835181474,-0.0205609537661075,0.0002197121211793,still
1761430235496444700,0.0423293216854333,0.0549441077824681,0.0773649792313575,-0.0050682420842349,0.0247063934803009,0.004557735286653,still
1761430235516387600,0.0572594720527529,0.0179613347567617,0.1210848784923553,-0.0323465168476104,0.0263654515147209,0.0142408879473805,still
1761430235536331800,0.0896636120513081,-0.0518683535989373,0.0574187542676925,-0.0243988689035177,-0.0179973375052213,0.0185642857104539,still
1761430235556274700,0.0512212148018181,-0.0484232546463608,-0.0415828872323036,-0.0033529964275658,-0.0290505439043045,0.0162951964884996,still
1761430235576218600,0.0551613307297229,-0.0665339347459375,-0.1179658696889877,0.0111166602000594,0.0097227664664387,0.013108255341649,still
1761430235596161500,0.0705593908697366,-0.0373622007973492,-0.1137923833966255,0.0127971870824694,0.0360424146056175,0.0271757338196039,still
1761430235616105500,0.0531350855991244,-0.0297144625231623,-0.0378437007039785,0.0322072729468345,-0.012734942138195,0.0370926596224308,still
1761430235636048600,0.0060094695478677,-0.0195623402126133,-0.0134948568671941,0.0598329193890094,-0.0758134499192237,0.0395725816488266,still
1761430235655991600,-0.146195938873291,-0.0870959535203874,-0.03431611109972,0.0617868788540363,-0.0642523989081382,0.0269931405782699,still
1761430235675935500,-0.1633371894188225,-0.135489324485138,-0.0099257662087678,0.0456814877688884,-0.0249367915093898,0.0023869925644248,still
1761430235695878400,-0.1678632885411381,-0.1749371724501252,-0.0177554369211196,0.036185260862112,0.0008757449686527,-0.0241022296249866,still
1761430235715822600,-0.1671739911027252,-0.0972379928283393,-0.0872819776117801,0.0399078764021396,0.0643890276551246,-0.0424997769296169,still
1761430235735765800,-0.0649511955991387,-0.0490920207533985,0.1287158117622137,-0.0005182559834793,0.0622904039919376,-0.0415530130267143,still
1761430235755709700,0.0309933964177966,-0.0628479397095739,0.2998199819207191,-0.057950172573328,0.0542622134089469,-0.0304045900702476,still
1761430235775652600,0.1290428517594933,-0.0395155794389545,0.1795885053873062,-0.0447477921843528,0.0153292641043663,-0.0147877866402268,still
1761430235795595500,0.1827538375504314,0.0128057786244899,-0.0043324762463569,0.0361221209168434,-0.0500343292951583,0.0077376505360007,still
1761430235815539700,0.176598237530142,0.0742596336271613,0.014655132818222,0.0678912848234176,-0.0829575657844543,0.0249151401221752,still
1761430235835482600,0.1695730150684714,0.057618879949674,0.1637690049648285,0.0263060219585895,-0.0696492716670036,0.0454031527042388,still
1761430235855426600,0.0875793531231582,-0.0127031950328499,0.1502776552289724,-0.0404462292790412,-0.0276402384042739,0.0413452833890914,still
1761430235875369500,0.0428932391785085,-0.0419768549859523,0.0538140077739954,-0.0619641132652759,-0.0017307717353105,0.0347314588725566,still
1761430235895313400,0.0422718924097716,-0.0733031366199254,-0.0438683678209781,-0.0350419506430625,-0.0135639961808919,0.0304155442863702,still
1761430235915256600,0.0037317338742315,0.0060359922286123,-0.0997767175257205,0.0236927829682827,-0.0388631336390972,0.0317525528371334,still
1761430235935200800,-0.0109518943861126,0.0472167284008115,-0.1272118369400501,0.0666041523218154,-0.0766057297587394,0.0449069328606128,still
1761430235955143700,-0.097010906074196,0.0169368140146136,-0.0426753586441278,0.052358079701662,-0.0304207280278205,0.0409441217780113,still
1761430235975086600,-0.1574523691639304,-0.1201750701710581,0.0784410840302705,0.0108766611665487,0.0268023237586021,0.0192728396505117,still
1761430235995030500,-0.1701693735264241,-0.2419575755387544,0.1075157873451709,-0.0043779257684946,0.0164032131433486,-0.0167658533900976,still
1761430236014973700,-0.196285227035731,-0.1271913056086748,0.0809323163241148,0.0200757998973131,0.0025942348875105,-0.0600127764046192,still
1761430236034917600,0.1464455297201871,-0.2788670641325414,0.1298497842282056,0.0151470387354493,-0.0293166041374206,-0.0301285311579704,still
1761430236054860500,-0.1017677452124655,-0.0452342493467032,0.279195127043128,-0.0199949704110622,-0.064299888908863,-0.0519755072891712,still
1761430236074804500,0.0842819190129637,-0.0698543844055384,0.0925356603562831,-0.0501870810985565,-0.0317677669227123,-0.0458392836153507,still
1761430236094747600,0.0252846633821725,-0.0113138595663011,-0.2335562424182891,-0.0242218170315027,0.0553968921303749,-0.0438065156340599,still
1761430236114691600,0.1562453314617276,0.0807159701596945,-0.2438964346468448,0.0341364182531833,0.067522257566452,-0.0178785491734743,still
1761430236134634500,0.2577555947817861,0.0982563760906457,0.115695586669445,0.0342094600200653,-0.0197293981909751,0.0120424591004848,still
1761430236154577400,0.2837219568178057,0.050545726693049,0.2630062087863684,-0.0098723424598574,-0.0725297257304191,0.0369559079408645,still
1761430236174521600,0.1807693857349455,0.0100423052605241,0.0870370629400014,-0.0440043583512306,-0.012428586371243,0.0414835140109062,still
1761430236194464800,0.1022542135551571,-0.033263241045922,-0.137616911098361,-0.0264934450387954,0.0378683730959892,0.0416844710707664,still
1761430236214408700,0.0933088366858661,0.0100808837052434,-0.1072211883127689,0.012109606526792,0.0261272471398115,0.0426768139004707,still
1761430236234351400,0.10618395421952,0.0584849952597171,0.0719289256572723,-0.0147551763802766,-0.0017866403795778,0.0532060675323009,still
1761430236254295300,0.0922452991075813,0.04527750396654,0.1002443350374698,-0.0605626590549945,0.0271495282649993,0.0722361579537391,still
1761430236274238500,0.0250046773970127,-0.041665158688277,-0.0214823484897613,-0.0584921017289161,0.038382165133953,0.068533681333065,still
1761430236294182700,-0.078793696860224,-0.0126272071871906,-0.0903735138863325,-0.0112550063058733,0.0359875671565532,0.0593659281730651,still
1761430236314125600,-0.0290732420101761,0.0108452191412448,0.0071007719159126,0.0038634438533335,-0.0033870961051434,0.056607861071825,still
1761430236334069500,-0.0540735354930162,-0.0472222813587635,0.0717617523968219,-0.0253828838467597,0.0010648877359926,0.0524753592908382,still
1761430236354012400,-0.1181878418765962,-0.1135088902801275,0.1142179153323173,-0.0301517583429813,0.0239952821284532,0.037674456834793,still
1761430236373955600,-0.0613639847621321,-0.1523016353372484,0.1429939279615878,-0.0003920463495887,-0.0148387113586068,0.017031081020832,still
1761430236393899500,-0.0960015829011797,-0.1817641689259558,0.1094020394831895,0.0226184651255607,-0.0620688572525978,-0.0176850389689207,still
1761430236413842400,-0.1259184361286461,-0.1021137821711599,0.0348018487900495,-0.0136684123426675,-0.0164171904325485,-0.0450529381632804,still
1761430236433786400,-0.0556779019497334,-0.0088875822674483,-0.012747253370285,-0.0720059499144554,0.0502363480627536,-0.0401776768267154,still
1761430236453729300,0.0685433748722076,0.1111475679762661,0.0445960975736379,-0.0910458788275718,0.0655858144164085,0.0006330947508104,still
1761430236473673200,0.0758525288417935,0.0872305396854877,0.1341910283029079,-0.0760306864976883,-0.018989410251379,-0.004714289214462,still
1761430236493616400,0.0140286714829504,0.040817455817759,0.0256137492060661,-0.0454056672751903,-0.0250348336994647,-0.0027743941172957,still
1761430236513559300,-0.021187311065942,0.0146558634705841,-0.1157692364275455,-0.012260035611689,0.0300956815481185,0.0018718466162681,still
1761430236533503500,-0.0036867256887257,-0.0199959823895245,0.039532384443283,-0.0020805380772799,0.0169196110218763,0.0017487446311861,still
1761430236553446700,0.0824633252836763,-0.028214725484699,0.3225380096852779,-0.0035568734165281,-0.052903689444065,0.0141715547069907,still
1761430236573390600,0.0648231853052973,-0.1316672089137137,0.3913549408018589,-0.0452131927013397,-0.0825624763965606,0.0018146379152312,still
1761430236593333500,0.0275438404858112,-0.1540392727848142,0.3429530212044716,-0.1108241826295852,-0.0359038636088371,-0.009309509769082,still
1761430236613277400,0.1024148109443485,-0.1280559961466118,0.2718342428863048,-0.1593576073646545,-0.0044655390083789,-0.0098603945225477,still
1761430236633220400,0.1177658170722424,-0.076831420343928,0.0116892687499523,-0.1304569244384765,0.0232517160475254,-0.014040439389646,still
1761430236653163500,0.0232413209863007,0.0440126351298764,-0.1126841298937797,-0.0710013508796691,-0.0407001227140426,-0.0262769404798746,still
1761430236673107500,0.2511488899931311,-0.0274422067422419,-0.122728554046154,-0.0448365956544876,-0.0106871454045176,0.0208525359630584,still
1761430236693050400,0.0586373362772166,0.034498408864066,0.0220925893425941,-0.0962405428290367,-0.0008897013030946,0.0085034715011715,still
1761430236712994300,0.0902856894724071,-0.0126066027905791,0.0044289223581552,-0.1037409529089927,0.0073442491702735,0.0282955151051282,still
1761430236732937200,0.0188473238110542,-0.0314400442067533,-0.1571492945641279,-0.0425779707729816,0.020588219165802,0.0211683865636587,still
1761430236752881400,0.0080630410768091,-0.0861507450921461,-0.1560328577548265,0.0005886514554731,0.0049871327355504,0.009748944081366,still
1761430236772824600,-0.0039367549270391,-0.0458626103781163,-0.0116273094296455,-0.0082203103229403,0.027978666126728,0.0026992645580321,still
1761430236792767500,0.0517560523308813,-0.0087051749052479,0.1156149226486682,-0.065131552517414,0.0675888508558273,0.0178741961717605,still
1761430236812711400,0.0870429081588983,0.0066107964418828,0.2253606610029935,-0.0778638124465942,0.0435776710510253,0.0398874059319496,still
1761430236832654600,0.0852384890854358,-0.0790476716212928,0.1349719495475292,-0.0265033729374408,-0.0221997015178203,0.042862307280302,still
1761430236852598500,0.0305633344374597,-0.1706277117531746,0.0531225183784961,0.0032536522485315,-0.0504045560956001,0.0223203692585229,still
1761430236872541400,-0.0223470024950802,-0.1750890020109713,0.1267161623775959,-0.0491156429052352,-0.0032694537658244,0.0054224105551838,still
1761430236892484400,0.0421193321965634,-0.1205584434654563,0.2091664820492267,-0.1051759794354438,0.0098311677575111,0.0041720564477145,still
1761430236912428300,0.0588885345593094,-0.0990316347794607,0.0660989043295383,-0.0943557098507881,-0.001075867563486,0.0081625487655401,still
1761430236932371500,0.0172236681319773,-0.0709098482752218,-0.0050637131303548,-0.0643830075860023,-0.0047802650369703,0.0165448356419801,still
1761430236952315400,0.0016220482438802,-0.0336001448500901,-0.0377899246901273,-0.0215300638228654,-0.0624624006450176,0.0110004283487796,still
1761430236972258300,0.084861472466588,-0.1107088477654382,-0.0526782817423343,0.0062045562081038,-0.0623565688729286,0.0251930840313434,still
1761430236992202500,-0.0301467164605855,-0.0696596290184184,-0.1042225910186767,0.0132663147523999,-0.0402179881930351,0.0162216555327177,still
1761430237012145400,-0.0187820034898817,-0.0001988105077296,-0.1160468843251466,0.0182311218231916,-0.0039300583302974,0.0214692372828722,still
1761430237032088600,-0.0328691271618008,-0.0142249977726489,-0.0659849225610494,0.029053533449769,-0.007060881704092,0.0144309950992465,still
1761430237052032500,-0.0493215186603367,-0.1181747631993144,0.0068377370655536,0.0164912790060043,-0.0017076502554118,-0.0062073995359241,still
1761430237071975400,-0.0171506028957664,-0.1509742957236245,0.0381739555716514,-0.0171167217195034,0.0321178063750267,-0.024429302662611,still
1761430237091918600,-0.0310962722703814,-0.1202398790355771,0.0897322933733463,-0.0504395738244056,0.0490854680538177,-0.0410565361380577,still
1761430237111862500,0.1079071247503161,0.0207213740546256,0.1201777005195617,-0.0151437083259224,0.0076830978505313,-0.0270219016820192,still
1761430237131805400,0.1903157972373068,0.1650185666345059,-0.0108399584442377,0.0618942305445671,-0.0613364391028881,-0.0018858840921893,still
1761430237151749400,0.1069325806297361,0.1737248740509152,-0.0370510890215635,0.0665802806615829,-0.0359992608428001,0.0096503430977463,still
1761430237171692300,0.0882853094354271,0.071520235258527,0.14942425327003,-0.0119046485051512,0.0362201407551765,0.0174752697348594,still
1761430237191636200,0.0092664255172014,-0.0874547403628006,0.195400407025218,-0.0649228543043136,0.0597350560128688,-0.0027881900314241,still
1761430237211579600,0.0510844366796314,-0.0997798593308776,0.0567734421014785,-0.0185297224670648,0.0221188180148601,-0.0133082987740635,still
1761430237231521800,0.0633970980249345,-0.0490431401103734,-0.0206862296760082,0.0454858914017677,-0.0197652354836463,-0.0121870711445808,still
1761430237251465700,0.0489338345170021,-0.013900989982672,0.1044207439392805,0.0186588764190673,-0.023694833740592,-0.0063365106470882,still
1761430237271409000,0.0100097912304103,0.0051979339692741,0.1167132392793893,-0.0308912452310323,0.0220486745238304,-0.0039924341253936,still
1761430237291352800,0.0338023163586854,0.006955372095853,0.0039548751056194,-0.0207466594874858,0.0410060137510299,0.0050097107887268,still
1761430237311295700,0.0408707934401929,0.0045926615525037,-0.1064747538596391,0.013784154318273,0.0393189005553722,0.0085445242002606,still
1761430237331238700,0.0378824252791702,0.0128436994820833,0.0254407307267189,0.0133797405287623,0.0147024942561984,0.0184602364897727,still
1761430237351182600,0.0381312854737043,-0.0468142485471442,0.1539087052077055,-0.0155567377805709,0.0148179959505796,0.0212554242461919,still
1761430237371126000,0.0408273926898837,-0.1214188962196931,0.1750128680348396,-0.0240707676857709,-0.0059488830156624,0.018724026158452,still
1761430237391070000,0.0130494511872529,-0.1417998593388125,0.0037567221850156,0.0143457660451531,-0.0017072325572371,0.006562546826899,still
1761430237411012900,-0.0617960925690829,-0.1084301622437313,0.0208949039906263,0.0075291153043508,-0.0195818599313497,-0.0178722962737083,still
1761430237430955800,-0.0569955604195594,-0.0859234026096761,0.2287520570069551,-0.0525226257741451,-0.0332249552011489,-0.0322013981640338,still
1761430237450899700,-0.1098331243768334,0.0086149028059095,0.0506546669602394,-0.053108375519514,0.0345384404063224,-0.0291579477488994,still
1761430237470843000,-0.3697571492388844,0.2500385541310533,-0.3259761674404144,0.0589526258409023,-0.0035068008583039,-0.1422698348760604,still
1761430237490786800,-0.1878761490002274,0.22119433510378,-0.5303980853110551,0.2188592255115509,0.1084086671471595,-0.1080213338136673,still
1761430237510729700,0.2758320803508162,-0.0871189690697938,-0.1287590663820505,0.2303739041090011,-0.0431647300720214,-0.0661055594682693,still
1761430237530673000,0.188954884147644,-0.1468633532734587,0.0099748660475015,0.1952332854270935,0.0494556240737438,-0.0208802372217178,still
1761430237550616800,-0.0219182556889951,-0.0915235241716727,0.2100496946245431,0.1187236681580543,0.0701130777597427,-0.0439257211983203,still
1761430237570559700,0.0874731162697076,0.0305958850001916,0.1479986043810844,0.107249416410923,0.0751435011625289,-0.0130773400887846,still
1761430237590504000,0.3818047299072146,-0.1218784765554591,0.0115168347924947,0.1302497833967209,0.0856049060821533,0.0765089318156242,still
1761430237610446800,-0.0696077892333269,-0.0376359031721949,0.1643067651033401,0.1259022355079651,0.0688283964991569,0.0097732665017247,still
1761430237630390000,-0.1969875300861895,-0.0917605112653225,0.4591232396483421,0.0662199482321739,0.0150141660124063,-0.0727644264698028,still
1761430237650334000,-0.0189070911742746,-0.2880341209284961,0.3967448171466589,-0.0133790969848632,-0.017805578187108,-0.0335942171514034,still
1761430237670276900,0.2630041629597544,-0.2086083367098122,0.1201274316370487,-0.0710867717862129,-0.0109841916710138,-0.0344843603670597,still
1761430237690220800,-0.1933224317073822,0.0081025693695992,-0.2363146012157201,-0.0620468631386756,0.1785506904125213,-0.0384501628577709,still
1761430237710163700,-0.2616362356074154,-0.0623598639316856,0.042094928407669,-0.0682515203952789,0.2972989082336426,-0.0894524306058883,still
1761430237730107000,0.1854946606911718,-0.0910384075358509,0.3127659727334976,-0.0721951052546501,0.0157967191189527,-0.0349630676209926,still
1761430237750050800,0.1323969844929874,-0.0209446248838678,0.0138712889641523,-0.0010099716018885,-0.0753397718071937,-0.0185137242078781,still
1761430237769993700,-0.0580430236458778,-0.0467042123014107,-0.0350286432832479,0.0181420780718326,-0.095537930727005,-0.0204584430903196,still
1761430237789937700,-0.0233197930499911,-0.1056901793532073,-0.058342883375287,-0.0270860008895397,-0.0064167543314397,-0.0374562032520771,still
1761430237809880800,-0.1268497256293893,-0.0236603501159697,-0.0651163230329752,-0.0536511503159999,0.1039482802152633,-0.0486133806407451,still
1761430237829823700,0.0037216508716344,-0.0932696737192571,-0.0309562792778015,-0.0497924499213695,0.0762650892138481,-0.0461149662733078,still
1761430237849768000,0.0500666379392147,0.0580761952631175,0.058919221958518,-0.0483090914785862,0.0704434439539909,-0.0348286144435405,still
1761430237869710800,0.1053770217508077,0.1780110269375145,0.1172533375054597,-0.0227484852075576,0.0259244292974472,-0.0057064550928771,still
1761430237889654000,0.2578388891510665,0.0831446220787242,0.0092161566346883,0.0145861050114035,0.0062753153033554,-0.0027345856651663,still
1761430237909598000,0.002423573885113,0.048353988802433,-0.0239601367801427,0.0274534821510314,0.0330532267689704,-0.0132446493953466,still
1761430237929540900,0.1537295492485165,0.1089352987542748,-0.0676017101079225,0.0394646301865577,0.0338798947632312,0.0077296835370361,still
1761430237949484800,0.1684840507879853,0.1493446852277964,-0.0533738627910614,0.0611525662243366,0.0325554572045803,0.0365015268325805,still
1761430237969427700,0.1482191152639687,0.0783516887137666,0.0034124387919902,0.0788967683911323,0.001642154995352,0.0518218800425529,still
1761430237989371000,0.0470024280630052,0.003856310101971,0.1268295596241951,0.0533137694001197,-0.0355342552065849,0.0455554239451885,still
1761430238009314800,-0.0011285656385123,-0.0113773532565683,0.1764373478800058,-0.011151966638863,2.65664421021e-05,0.0489737167954444,still
1761430238029257700,-0.0792345724955201,0.0018972484560683,0.1055564699709415,-0.0281476080417633,0.0437623187899589,0.0285054221749305,still
1761430238049201700,-0.1348065298527479,-0.0653178734870627,-0.0317471373945474,0.013592867180705,0.045085284858942,0.0207011941820383,still
1761430238069144800,-0.1430928582914173,0.0148342887774109,-0.0544236641049385,0.0656733289361,0.0421575307846069,0.0220795944333076,still
1761430238089087700,-0.092880089879781,-0.0394770740594714,0.0752303052902221,0.0423768199980258,0.0033242325298488,0.0155265983194112,still
1761430238109032000,-0.153975779094547,-0.1376919490959495,0.1838356414377689,-0.0261504799127578,0.0400062203407287,-0.0063922987319529,still
1761430238128974800,-0.1333148299902677,-0.1028787751942873,0.0101239191293716,-0.01867501065135,0.0753471404314041,-0.0130385579541325,still
1761430238148918800,-0.0405957758910954,-0.0332381066046655,-0.1215302841722965,0.0375171080231666,0.0764082670211792,-0.0071996301412582,still
1761430238168862000,-0.0850904589168727,-0.0789027101926505,-0.0667173284888267,0.0735240653157234,0.0081673879176378,-0.0453186705708503,still
1761430238188804900,0.0683905223980546,-0.0995250808522105,0.0167658413618803,0.0618309192359447,-0.0083242375403642,-0.0275961309671401,still
1761430238208748800,0.0408041579447686,0.0572336800243705,-0.0123123690843582,0.048923909664154,0.0391575768589973,-0.0154769327491521,still
1761430238228692200,0.0713623778156936,0.0650422348834574,-0.0120949269413948,0.0465109907090663,0.055688913911581,-0.0012502145254984,still
1761430238248635400,0.0504585598662495,-0.1112915064916014,0.1247907472729682,0.0135761862620711,0.0064280880615115,-0.0255124364048242,still
1761430238268579300,-0.0262996856436133,-0.0454501571197062,0.1519429580926895,0.0038462541997432,-0.0248120203614234,-0.0717714056372642,still
1761430238288522200,-0.2217253732405602,0.1288521514929831,-0.070942837229371,0.098141573369503,0.0365051105618476,-0.1028851941227912,still
1761430238308466400,-0.1840855245456099,0.048946620933339,-0.2195189492374658,0.2369974851608276,0.1407154351472854,-0.062153935432434,still
1761430238328409300,0.1551855932757258,0.0064941843248903,-0.091239775326848,0.3375818729400635,0.0482390224933624,-0.0358783863484859,still
1761430238348352500,0.0517497687205672,-0.2790702585544437,0.63824237395823,0.0861986503005027,-0.166708692908287,-0.0635052248835563,still
1761430238368296400,0.0741457249239087,-0.1736719017546623,0.9237275410562752,-0.250736802816391,0.0144719807431101,-0.0398537628352642,still
1761430238388239400,-0.0312803966656327,0.0285010681454092,0.4284393475711345,-0.337501585483551,0.0463837273418903,-0.0196304246783256,still
1761430238408183300,0.0958022609367966,0.0382095383416861,-0.2491980481863021,-0.1484402865171432,-0.018014995381236,-0.0015562262851744,still
1761430238428126200,-0.0250415022760629,0.1523062384471297,-0.5515250444918871,0.1046384498476982,-0.043900016695261,0.0106673575937747,still
1761430238448069400,0.0254511059902608,0.0471701858453452,-0.2888356465697288,0.1749448627233505,-0.0992181077599525,0.0050383079797029,still
1761430238468013300,0.016633008762449,-0.036321751833707,0.0042553193569183,0.0910526514053344,-0.0336667746305465,0.0077814385294914,still
1761430238487956200,0.0174468093633651,-0.007492182386294,0.0864431887000799,0.0016862852498888,0.0319386012852191,0.008124453946948,still
1761430238507900200,0.0274412568941712,-0.0615980857789516,0.1008516532808542,-0.0324759222567081,0.012107441201806,0.0016330250073224,still
1761430238527843300,0.0120171855300664,-0.1230742987439036,0.0924170024126768,-0.0483082197606563,-0.0054581323638558,-0.0170052349567413,still
1761430238547786200,-0.0190786483488976,-0.0817153564605861,0.0706651893317699,-0.0501220263540744,0.0182313807308673,-0.0283001065254211,still
1761430238567730400,0.017606529969722,0.0692655516669154,-0.1724894870370626,-0.0031912461854517,0.0851697400212287,-0.0082792341709136,still
1761430238587673300,0.0766485015250742,0.0846690916996449,-0.0913970117151737,0.0542884841561317,0.0457425862550735,-0.0001897907350212,still
1761430238607617300,0.0869876708403229,-0.0066518591046333,0.159579152059555,0.0567572601139545,0.0024337056092917,0.0004465603269636,still
1761430238627560400,0.0064179042182862,-0.0854951672602444,0.2626379599958658,0.0187377780675888,-0.0062211393378674,-0.013615601696074,still
1761430238647503400,0.026081951239705,-0.0417737336292862,0.0754343034297227,0.0178103446960449,0.0342855527997016,-0.0147175807505846,still
1761430238667447300,0.0692531305767595,0.0568143586337566,-0.0395516736656427,0.053453367203474,0.0602834410965442,0.0141818886622786,still
1761430238687390200,0.1257784431360662,0.0672364569921046,0.110637718757987,0.0195821467787027,0.0017393268644809,0.0034297320526093,still
1761430238707334400,0.0758861388504505,-0.0785860454589128,0.2948796029090881,-0.0932594984769821,-0.0166197530925273,0.0081846574321389,still
1761430238727277300,-0.079976915295422,-0.0765189568612724,0.2009416745394468,-0.140814870595932,0.018388332799077,-0.0321394875645637,still
1761430238747220200,-0.1797622545190155,0.0458488741137087,-0.0049093993514776,-0.0867443159222602,0.0334016233682632,-0.0446257553994655,still
1761430238767164200,0.1838134296059608,-0.1647564816322177,-0.1714233191102743,0.0159583333879709,-0.0302644595503807,-0.0188714601099491,still
1761430238787107300,-0.1569071563713252,-0.05855879114829,-0.0338344650626182,0.023760886862874,-0.0527356564998626,-0.0736850947141647,still
1761430238807050200,-0.075244479946047,-0.0994825568847358,0.1280056176662445,-0.0746861025691032,0.0201389454305171,-0.0769597738981247,still
1761430238826994400,-0.0175306882545351,0.0082358403604477,0.1465057354748249,-0.1413630843162536,0.0572297275066375,-0.0715662837028503,still
1761430238846937300,0.0277324949257075,0.117733449172601,-0.0393400767415761,-0.0858636870980262,0.0361540578305721,-0.0381812453269958,still
1761430238866881300,0.1415748549439013,0.0242864461250603,-0.1726888090014457,0.0137214493006467,-0.0697852075099945,-0.0358090549707412,still
1761430238886824400,0.0852905115336179,0.0862222394257783,-0.3416068672925234,0.1044770181179046,-0.0505274310708045,-0.0296715982258319,still
1761430238906767400,0.130420715983957,0.1019620987407863,-0.187802206981182,0.1412759274244308,-0.0768436640501022,-0.0327243916690349,still
1761430238926711300,0.1420166073620319,-0.0272881852243095,0.011279518905282,0.1222008317708969,-0.0660042688250541,-0.0299568735063076,still
1761430238946654200,0.0589640840135514,-0.0233205967675894,0.2430640754759311,0.0178888346999883,-0.0264717005193233,-0.0414457246661186,still
1761430238966598400,0.1121658051081001,0.0098789313923567,0.2360544889748096,-0.062295701354742,0.0225537717342376,-0.0207457188516855,still
1761430238986541300,0.1073079898133873,0.1160157585345208,0.0990922423928976,-0.0747498273849487,0.0800591483712196,0.0064925961196422,still
1761430239006484200,0.0736985656782984,0.0781565680004656,-0.085144965583086,0.0413555949926376,0.0511779598891735,0.0171468015760183,still
1761430239026428200,0.0195015499360859,0.109636140500009,-0.194177002710104,0.1755452156066894,0.0483088791370391,0.0210073310881853,still
1761430239046371300,0.0541981847859919,0.0926047800697386,0.0362964712619781,0.1889624893665313,0.0063515738584101,0.025995697826147,still
1761430239066315500,0.0055571957357227,0.0447994381260126,0.3211293119311332,0.1094963774085044,-0.0810936763882637,-0.0038009150885045,still
1761430239086258400,0.0874614258319139,-0.108785295824334,0.2857429412513971,0.0838868841528892,0.0258972216397523,0.0048407763242721,still
1761430239106201300,0.3527155596755444,-0.1668565957166254,0.0646253246456384,0.1020450890064239,-0.050009861588478,0.0386019088327884,still
1761430239126145300,-0.0306207637131214,0.0666488663624972,0.1021820251017808,0.1229181960225105,-0.1630161702632904,0.0090635111555457,still
1761430239146088400,0.1717652644157409,0.0540773348852992,-0.0265752877146005,0.0991466268897056,-0.0913740918040275,0.0379368811845779,still
1761430239166032400,0.0724335141785442,0.0799716545984148,-0.1660644224256277,0.0825317427515983,-0.0171234719455242,0.0310790743678808,still
1761430239185975300,0.0633458062291145,0.0628776772607117,-0.1919236708253621,0.0715894028544426,0.0169243346899747,0.0333103723824024,still
1761430239205918200,0.0222977565258741,0.0323446648962795,0.0342325244694948,0.0378186516463756,-0.000483370386064,0.0353569611907005,still
1761430239225862100,0.0597163636855781,-0.0402308881014585,0.2075543706774711,0.0087019717320799,0.0035410365089774,0.0601735040545463,still
1761430239245805300,0.0527512008480727,-0.3113215460788458,0.1695715537637472,-0.0071042771451175,-0.0257601141929626,0.0251740105450153,still
1761430239265748200,-0.297509366890788,-0.2532747961059212,0.2422550971806049,-0.0449934564530849,-0.0292722806334495,-0.0596921071410179,still
1761430239285692400,-0.0679724431164562,-0.3433295263666659,0.2199801370084285,-0.0974278822541236,0.0264298878610134,-0.0298273432999849,still
1761430239305635300,-0.1956507285244763,-0.2111827172424644,0.2487958971261978,-0.1288602203130722,0.0099329929798841,-0.0738187804818153,still
1761430239325579500,-0.1028287985727191,-0.0592393938235938,0.1678898842871189,-0.1012554243206977,0.0201778504997491,-0.0482725948095321,still
1761430239345522400,0.0211029937833547,-0.0278385125834494,0.0755032770127058,-0.0595420151948928,-0.0454357340931892,-0.0390150286257267,still
1761430239365466400,0.0335242300696671,-0.0390502269495278,0.0658352849572896,-0.0589785650372505,-0.0621628984808921,-0.0330081805586814,still
1761430239385409300,0.0545247863918542,-0.0600938186958432,0.0045528409987688,-0.0700465589761734,-0.0138359740376472,-0.0349906533956527,still
1761430239405352400,0.0116986211001873,-0.0852432383257895,-0.1508925722569227,-0.0385534726083278,0.0265786200761795,-0.0596430152654647,still
1761430239425296400,0.1237782092295587,0.0347605669315904,-0.186567696750164,0.0081117898225784,0.0501561872661113,-0.0341030061244964,still
1761430239445239300,0.2507191202737391,0.1422059193890541,-0.154806530830264,0.0389131121337413,0.0208419263362884,-0.0078769465908408,still
1761430239465182200,0.2607559456415474,0.14706271177046,0.0124573305130004,-0.012344385497272,-0.0025103494990617,0.0081027541309595,still
1761430239485126100,0.1795379442438483,0.0657967065125703,0.0306844765990972,-0.0735952034592628,0.1003836616873741,0.0282407589256763,still
1761430239505069300,0.1064583872467279,0.0004649140980094,-0.0087841949582099,-0.0460187755525112,0.103483147919178,0.0235308296978473,still
1761430239525013500,0.1542788536943495,-0.046230566907674,-0.0511462498694658,0.0450615286827087,0.0866968110203743,0.0313164517283439,still
1761430239544956400,0.0584891599781811,-0.0027287673767656,0.0352215355068445,0.0918740630149841,-0.0047757723368704,0.0188960302621126,still
1761430239564900400,0.1472024855673313,0.0475673684693872,0.288792391949892,0.0184687506407499,-0.0070902216248214,0.0460002236068248,still
1761430239584843500,0.037374621887505,0.0388750165130943,0.3428150740385055,-0.0364849977195262,-0.0032149632461369,0.0490424521267414,still
1761430239604786400,-0.0185850196130573,-0.0134179922387003,0.1036672952234745,-0.0132233491167426,-0.0045500062406063,0.050856065005064,still
1761430239624730400,-0.0778888569749891,-0.0315687120877206,-0.0316103592723608,0.0493900366127491,-0.0154640106484293,0.0364586152136325,still
1761430239644673300,-0.0275090614333748,0.0056999652072787,0.0623468583196401,0.0727301016449928,-0.0201190076768398,0.0325874537229537,still
1761430239664616400,-0.1042312127165496,-0.0642731502071023,0.1285106445789337,0.05059165507555,-0.0494696497917175,0.0209230612963438,still
1761430239684560400,-0.053993748255074,-0.0949258434284478,0.1776098987907171,0.0369598045945167,-0.0880787074565887,0.0097768437117338,still
1761430239704503300,-0.1873217299878597,-0.2049729028169065,-0.0216232182651758,0.0307708121836185,-0.0159508362412452,-0.0377799309790134,still
1761430239724447200,-0.0792528388045728,-0.0941539092078804,-0.0398778368800878,0.0208433456718921,0.0720016062259674,-0.0167204048484563,still
1761430239744390100,-0.3699840898625552,0.0459046959541738,0.0276648365169763,-0.0207824669778347,0.1482248902320861,-0.0635594576597213,still
1761430239764334300,-0.0200153446771204,-0.061245765209943,0.3040057431727647,-0.0921366065740585,0.1023632287979126,-0.0309678204357624,still
1761430239784277500,-0.0896092515155673,0.0461564787581562,0.163346395638585,-0.0985342264175415,0.0248395968228578,-0.0242159720510244,still
1761430239804220400,0.1257896951824426,0.0210253254372626,-0.133929747018218,-0.0076836356893181,-0.029272548854351,-0.0144378095865249,still
1761430239824164400,0.0387692911162972,-0.0611489537719637,-0.3678156597822904,0.0848741605877876,-0.0292860493063926,-0.0323616191744804,still
1761430239844107300,0.0596386222742497,-0.059775619592145,-0.2070446675896644,0.1200361996889114,0.0065077282488346,-0.0433246828615665,still
1761430239864051500,-0.0114227267682552,-0.0601809855226427,0.1451946528762578,0.0631043687462806,0.0266104601323604,-0.0769129917025566,still
1761430239883994400,0.0261876035712659,-0.1013455012124031,0.2999351327329874,-0.0587818771600723,0.0255549810826778,-0.0992779806256294,still
1761430239903937300,-0.0437850734516978,-0.0945543067023158,0.3901525792747736,-0.1903839409351349,0.005418587476015,-0.1169857531785965,still
1761430239923881200,0.2394898702509701,-0.1037138377789407,0.5299111785769463,-0.2717046737670898,-0.1668485552072525,-0.1238218992948532,still
1761430239943824400,-0.0766062698185443,-0.2647572171721607,0.7867197017669677,-0.430711567401886,-0.3723072707653045,-0.2425658106803894,still
1761430239963768300,0.091480306084454,-0.3186639447309076,0.5303618449538946,-0.5574297308921814,-0.5362710952758789,-0.1870589703321457,still
1761430239983711200,1.1837215624146162,-0.8001122673034667,-0.4038414974093437,-0.523258626461029,-0.4597097039222717,0.1441666781902313,still
1761430240003654100,1.3448884220570323,0.190372715056315,-0.6531991200715304,-0.3518849611282348,-0.5376540422439575,0.3213404417037964,still
1761430240023598300,0.1478882758744061,1.3711005755476653,-1.0678139404296874,-0.2104044258594513,-0.2608259320259094,0.3487948775291443,still
1761430240043541500,-0.0911013897694647,1.204193126426637,-1.4132523487091064,0.0967345535755157,0.0003997222520411,0.3848976194858551,still
1761430240063484400,0.0351247971341013,0.4573630981080234,-1.21093003346622,0.4853370487689972,0.0086312517523765,0.342775285243988,still
1761430240083428400,0.064457420732826,-0.1051314494919031,-0.7162456510931253,0.7577212452888489,-0.1490541100502014,0.2566108703613281,still
1761430240103371300,-0.0937979353770613,-0.2794070892933756,-0.0997597663909196,0.8151386976242065,-0.1994822025299072,0.2191071659326553,still
1761430240123315500,-0.2014766581989824,-0.2419356559678912,0.34935295137465,0.6475743055343628,-0.0789455845952034,0.1735205650329589,still
1761430240143258400,-0.411882765045762,-0.0109057902220636,0.5459411068797111,0.3916198015213012,0.1104193553328514,0.1357694864273071,still
1761430240163201300,-0.5125406493201852,0.0854411720506846,0.5026642752110958,0.2063846141099929,0.2615067362785339,0.0711178034543991,still
1761430240183145200,-0.1852766340263187,-0.1471774972565472,0.7386679107815027,0.0457470752298831,0.1889314502477646,0.0558032095432281,still
1761430240203088400,-0.0662774757668376,-0.3612230565842241,0.8177087142705917,-0.0809513628482818,0.1154351159930229,0.0382385589182376,still
1761430240223032000,-0.2059685627907514,-0.4500505831375718,0.7140192072153091,-0.1326971054077148,0.0429483503103256,-0.0103795304894447,still
1761430240242975000,-0.3851536019437014,-0.3214644621696323,0.5381850859254599,-0.1024118140339851,-0.100639209151268,-0.0910979211330413,still
1761430240262918000,-0.1239415830977261,-0.1797485913198441,0.2513274614304304,-0.0702810883522033,-0.1296116113662719,-0.1256002932786941,still
1761430240282862000,-0.0913321297854185,0.0961293009340763,-0.0337380189508199,-0.0656728520989418,0.0319755002856254,-0.1030227467417717,still
1761430240302805200,0.0218777775481343,0.2134130335777997,-0.1329167705833911,-0.0808094143867492,0.1557966023683548,-0.066633753478527,still
1761430240322749200,0.1067021328747272,0.1407822432614862,0.0531926610052585,-0.0690679922699928,0.100934587419033,-0.0307720247656106,still
1761430240342692000,0.1726999149173498,-0.0280714445564895,0.1324064829736947,-0.0372322313487529,-0.0348417721688747,-0.0247573666274547,still
1761430240362635000,0.1611686132080853,-0.1251280894685536,0.0196112939208745,-0.0024458754342049,-0.0996780171990394,-0.0299433041363954,still
1761430240382579200,0.2209764545693993,-0.0013002689436078,0.0198971251249313,-0.0175968650728464,-0.0979189574718475,-0.0109922969713807,still
1761430240402522000,0.1584118618458509,0.0245226660337299,0.0909089359372854,-0.0838943421840667,-0.0322785973548889,0.007304785773158,still
1761430240422466000,0.0745937609523534,-0.0136502666246145,0.0733253484517335,-0.1311370283365249,0.0387147739529609,0.0065520014613866,still
1761430240442409000,0.105069709367305,-0.1147637857120484,-0.0466197123557329,-0.1017507910728454,0.0317074060440063,0.0021916176192462,still
1761430240462352100,0.0830212514273822,-0.0523797371871769,-0.2064864491850137,0.0077611492015421,-0.0034733011852949,0.0015385466394945,still
1761430240482296300,0.1224240181416273,0.0247688958797603,-0.1408709444582462,0.0798631832003593,-0.0563018396496772,0.0153390374034643,still
1761430240502239200,0.0215486917242407,-0.0050127135954797,0.0116483522176742,0.0497796088457107,-0.0439178943634033,0.0115561392158269,still
1761430240522182100,-0.0475349275045096,-0.0696968557562679,0.1706377216905355,-0.0418409071862697,0.0302796363830566,0.001730477088131,still
1761430240542126000,0.0231654792711138,-0.1028184233091771,0.1774754587560892,-0.0934495776891708,0.0535725466907024,-0.0088439993560314,still
1761430240562069200,0.0338647140704095,-0.0560731118123978,-0.0272059868335723,-0.0468327328562736,0.0291501432657241,-0.0243900250643491,still
1761430240582013200,0.068864423520118,0.0300960822518914,-0.0610574030309915,-0.0152409113943576,0.0211642384529113,-0.0207810010761022,still
1761430240601956000,0.0477056078962981,0.050960225778073,0.1099836387634277,-0.0620052218437194,0.0375631861388683,-0.0168509744107723,still
1761430240621899000,0.0070844053030014,0.0521835570279508,0.1271510466635227,-0.0918105691671371,0.0707471966743469,-0.0093375472351908,still
1761430240641843200,0.0366831324920058,0.1014446507379412,0.050879123365879,-0.0612830929458141,0.0413763113319873,0.0185821540653705,still
1761430240661786000,0.0897001446694135,0.1397325150128454,0.0881570068806409,-0.0089476443827152,-0.0339462459087371,0.034843809902668,still
1761430240681730000,-0.0154218794070184,0.021637173725292,0.1933890672028064,-0.0266181547194719,-0.0767603665590286,0.0183148365467786,still
1761430240701673000,-0.0834545282781124,-0.0318830387338995,0.3848766846984625,-0.1277188956737518,-0.0501115731894969,0.0026954505592584,still
1761430240721616100,-0.0840104085952043,-0.0797026283986866,0.1279424893021583,-0.1527611017227172,-0.0001080380752682,-0.0101257311180233,still
1761430240741560300,-0.1538020299628376,-0.0407943672031164,-0.0551589926421642,-0.0845468491315841,0.0135815478861331,-0.0309814233332872,still
1761430240761503200,-0.0049532384932041,0.0079254592370241,-0.0957499462276697,-0.0251895617693662,-0.0496300533413887,-0.0363243110477924,still
1761430240781446100,0.017513298728317,0.0326886560283601,0.0060457099050283,-0.0614932179450988,-0.027206165716052,-0.0282975174486637,still
1761430240801390000,0.0471320457920432,-0.0685980276688933,-0.0005120411753654,-0.0833080857992172,-0.0088929263874888,-0.0219748709350824,still
1761430240821333200,-0.0046310208015143,-0.1162226062182337,-0.0409393286317586,-0.0508866943418979,-0.0290350504219532,-0.039262119680643,still
1761430240841277200,-0.0799409671992063,-0.0735375298976898,-0.1310106447011232,-0.0046601742506027,-0.0391145013272762,-0.06441081315279,still
1761430240861220000,0.0085975863449275,0.0957716466028243,-0.1700765806764364,0.0058737914077937,-0.0056842346675693,-0.0645487830042839,still
1761430240881163000,0.0848905524305999,0.0723169020615518,0.0174509010165929,-0.0479978919029235,0.0198093503713607,-0.0460953973233699,still
1761430240901107200,0.1329905664719641,-0.0114393856421113,0.1509632994055748,-0.0741446539759635,0.0194705594331026,-0.0217745266854763,still
1761430240921050000,0.0915564400605857,-0.0261036516148597,0.145960961073637,-0.0574402473866939,-0.0130034461617469,-0.0290668401867151,still
1761430240940994000,0.022749299685657,0.0043932665228843,0.1577595354169607,-0.0746473893523216,-0.0971240177750587,-0.0281505845487117,still
1761430240960937000,0.1155928569473326,0.0704503044720739,0.0687210695266723,-0.0567712150514125,-0.1218659654259681,-0.0419239029288291,still
1761430240980880100,0.0964941887237131,-0.0014603183435276,0.1482937879353761,-0.1085377857089042,-0.1400407552719116,-0.0484285540878772,still
1761430241000824300,-0.0189209735691547,-0.107553927398473,0.4463718946248293,-0.2021814584732055,-0.1305069029331207,-0.0457882992923259,still
1761430241020767200,0.0975366835139691,-0.1188411546861752,0.4399205265283584,-0.2406551241874694,-0.0621628314256668,-0.0107566444203257,still
1761430241040711200,0.0812462045788764,-0.2610476951297372,0.0699216774880886,-0.1705161184072494,-0.1009957045316696,-0.0163489803671836,still
1761430241060654000,-0.1304061029367148,-0.1360927702710032,-0.4269517393618822,-0.0196977127343416,-0.1169312670826911,-0.0678399056196212,still
1761430241080597200,-0.075981269787997,-0.0131868503639474,-0.4393272368103265,0.0484234280884265,-0.0960099995136261,-0.0806645900011062,still
1761430241100541200,0.2284973515935242,0.0045373511686921,-0.0930009397804737,0.0238705370575189,-0.03913314640522,-0.0177493076771497,still
1761430241120484000,0.0907088833205401,-0.0102200364476069,0.0210328511565923,-0.0278914608061313,0.0583060160279274,-0.0023663078900426,still
1761430241140427000,-0.0701321053683757,-0.0807724861199036,-0.2148585562109947,-0.0046685538254678,0.1246382668614387,-0.0164438337087631,still
1761430241160371000,-0.0737688544355332,-0.2078118891024962,-0.27234686858356,0.0166027452796697,0.1504732519388198,-0.030505122616887,still
1761430241180314000,-0.0054424833148717,-0.1905244350193068,0.0436772291630506,-0.0015821394044905,0.1256538033485412,-0.0342047661542892,still
1761430241200258000,0.138506553414464,-0.1302422541445121,0.4821919805467128,-0.011772146448493,-0.067034013569355,-0.0206399019807577,still
1761430241220201000,0.1534912104479968,-0.0116196010472252,0.2090659442842006,0.0291414894163608,-0.1672756522893905,-0.002950046211481,still
1761430241240145000,0.0459646094478666,0.1567957684187218,-0.3524520864337682,0.1374575048685073,-0.0702987089753151,0.0155362077057361,still
1761430241260088800,0.1277969433516264,0.1041177058720961,-0.2135012963831424,0.1160591766238212,0.0300983805209398,0.0296482667326927,still
1761430241280032000,0.0684628569819033,-0.0598500730678439,0.2375578792750835,0.0023522693663835,0.059950940310955,0.0138617921620607,still
1761430241299976000,0.0564982784219086,-0.0468544709596782,0.369465180554986,-0.0742763876914978,0.0476267971098423,0.008269814774394,still
1761430241319918800,0.098536508206278,0.0469024748198688,0.0769581519961357,-0.0153988385573029,-0.0083672413602471,0.0085880253463983,still
1761430241339861800,0.0999960593648254,0.147526785618253,-0.134095751234889,0.0600182265043258,-0.0061005093157291,0.025127762928605,still
1761430241359806000,0.0941087548919022,0.1345811235990375,0.0942979938536882,0.0124240033328533,0.0049168723635375,0.0372494980692863,still
1761430241379749000,0.0053891456924378,0.0387081355135887,0.2980734305143356,-0.0786582380533218,0.0795037597417831,0.0417358577251434,still
1761430241399692000,-0.0165086517304182,-0.0320299729239195,0.1959194624632597,-0.0703914910554885,0.0879582539200782,0.035354733467102,still
1761430241419636000,0.0133389356531202,-0.0931758579559624,0.0196171391397714,0.0112290205433964,-0.0176790542900562,0.0081017045304179,still
1761430241439579100,-0.0841051011413335,-0.0621013591259717,-0.1659112776905298,0.0687461644411087,-0.0173764266073703,-0.026312893256545,still
1761430241459523000,-0.0259423966385424,0.0312439371127635,-0.0528390252619981,0.0006574579165317,0.0990461707115173,-0.0297287534922361,still
1761430241479466000,-0.0498947885036468,-0.0229757288526743,0.0648193859130144,-0.1044687256217002,0.1732394695281982,-0.0277687888592481,still
1761430241499409000,-0.0627625995136797,-0.0311728811705485,0.0720534288197755,-0.1237998083233833,0.1908770054578781,-0.0374466702342033,still
1761430241519352800,0.0106214933879673,-0.1310634343342855,0.071215224429965,-0.1220168992877006,0.1147448346018791,-0.0528665445744991,still
1761430241539296000,-0.0511905274026095,-0.2055043062798678,0.0239700736522674,-0.1350983679294586,0.0694896653294563,-0.0959083139896392,still
1761430241559240000,0.2109258929371833,-0.119678738021478,-0.1263116732299327,-0.1408747136592865,0.1364698559045791,-0.0630248337984085,still
1761430241579182800,0.0386572090439498,0.0689183821970596,-0.1184153670221567,-0.1136481761932373,0.1930550783872604,-0.0359464175999164,still
1761430241599125800,0.1558452262282371,0.0541630769399926,-0.1443558639645576,-0.0624581053853035,0.1670258641242981,-0.0188489630818367,still
1761430241619070000,0.0293237096399068,-0.0123782373948022,-0.0909440072506666,-0.0411725006997585,0.1313310116529464,-0.0174379460513591,still
1761430241639013000,0.0554747805930674,-0.0671324851609766,0.0123702367514371,-0.0586867295205593,0.1429305076599121,-0.016844492405653,still
1761430241658957000,0.0941131388060748,0.0244708993138745,0.0033937340915203,-0.0625031813979148,0.1860315799713134,0.0125528220087289,still
1761430241678900000,-0.0075146134138107,0.0759354578848928,0.0859556974440813,0.0253920257091522,0.1921932995319366,-0.0012384324800223,still
1761430241698843000,-0.0006631400838494,0.0883823766017332,-0.0323456878095865,0.1330665051937103,0.0374662689864635,0.0231312084943056,still
1761430241718787000,0.0418882999196648,0.1157350784296169,0.0608487287163734,0.1832346767187118,0.0202336013317108,0.0403987839818,still
1761430241738730000,0.0293701791301369,0.2606452883413061,0.3071393650233745,0.1751970201730728,0.0427762642502784,0.0649246647953987,still
1761430241758673000,-0.0009428338080644,0.0115644733265042,0.4386813401222229,0.1487520188093185,-0.1134741753339767,0.0552657358348369,still
1761509332948486400,0.0016205412733834,-0.001539658056898,-0.0827104319125413,-0.0008340047206729,-0.0012731617316603,-0.0011810834985226,still
1761509332968639500,0.0025062015341129,-0.0005099953487515,-0.0476934790670871,-0.0007646731100976,-0.0003408985212445,0.0004972894676029,still
1761509332988797700,-0.0116129064449574,0.0068027844831813,-0.0611567717522382,0.0006953412666916,0.0017697699368,-0.0007787008071318,still
1761509333008955600,-0.0184394645293708,-0.0101755488519091,-0.067293082550168,1.0174699127674105e-07,0.0012543629854917,0.0027587828226387,still
1761509333029112600,-0.0078692081382963,0.0062408762841019,-0.0524777907341718,-7.95596279203e-05,0.0017569363117218,-0.0021604471839964,still
1761509333049270500,-0.0071929619777016,0.0051750919498037,-0.0595090045452117,-0.0003309033345431,0.0020704008638858,0.0010321086738258,still
1761509333069428700,-0.0050017264105845,0.0068929926504381,-0.0586094253569841,0.0003918097354471,0.0005546836182475,-0.0024879875127226,still
1761509333089585700,-0.0047868050182703,0.0029072931482922,-0.0668365709543228,0.0036984893959015,0.0001022880896925,0.0009595092851668,still
1761509333109743600,0.0023313107580877,0.0007375387606211,-0.0542658431947231,0.0015944822225719,0.0023468025028705,0.0020654988475143,still
1761509333129901600,-0.0035664511767681,0.0018917228975798,-0.0678793580055236,0.000135995214805,0.0018248613923788,0.0006003673188388,still
1761509333150058800,0.0024456441530259,-0.0007895703419577,-0.0617430472075939,-0.0018731791060417,-0.0003020921722054,-0.0009019701974466,still
1761509333170216400,-0.0111698982180794,-0.0020958032354712,-0.0517173277556896,-0.0001232158392667,0.0034265993162989,-0.0008500386029481,still
1761509333190373600,-0.0148114284916315,0.0035115791843738,-0.0653343496978283,-0.0012669668067246,0.0006974255666136,-0.0002791406586766,still
1761509333210531600,-0.0026980754109798,0.0083725362842436,-0.0482739093035459,0.0002769588027149,-6.70114532113e-05,-0.000644477433525,still
1761509333230689500,0.00249150628848,-0.0055148818308021,-0.0599438888311386,2.9370887205e-05,0.0004897424951195,0.000789683079347,still
1761509333250846700,-0.0049777473133755,-0.0027048385119065,-0.047973465052247,-0.0006383117288351,0.000569675117731,0.0007704035378992,still
1761509333271004700,-0.0022011496063554,0.0031422709479462,-0.0605412702023982,0.0011821966618299,0.0007556015625596,-0.0004589351592585,still
1761509333291162600,-0.0019773325215326,0.0011435622782446,-0.0521615643918514,-0.0003681280650198,-0.0002026800066232,-0.0018969669472426,still
1761509333311319600,-0.0063367104745469,0.0036069749834015,-0.0596440291017293,-0.0014425865374505,-0.0013581868261098,-0.0025586504489183,still
1761509333331477800,-0.0089044740367447,-0.0014183058327063,-0.0466284801840782,-0.0008211026433855,0.0010356521233916,0.0009721450041979,still
1761509333351635700,0.0005126530967187,0.0076601228317245,-0.0358516501039266,-0.0010563298128545,-0.0003351913765072,-0.001484926091507,still
1761509333371792600,-0.0102263657236937,0.0055801382198929,-0.0650309828370809,-0.0013066669926047,-0.0007943203672766,-0.0001478588674217,still
1761509333391950600,-0.002893200690858,-0.005414517595712,-0.0582931990146636,-0.0001207387540489,0.0013649966567754,0.0009572599083185,still
1761509333412107800,-0.0008222213693894,-0.0002263104360084,-0.0648772535800933,-0.0010335533879697,0.0006522703915834,-3.5551842302e-05,still
1761509333432265700,-0.0069450698975473,0.0001574007851071,-0.0546989739149808,-0.000874001532793,-0.0003911927342414,-0.0013190224999561,still
1761509333452423700,0.0042535520915174,-0.000967484192131,-0.062479544788599,-0.0011667569633573,5.02103939652e-05,0.0025340521242469,still
1761509333472580600,0.0081284846955677,-0.0024946024278644,-0.058889411342144,-0.0019930349662899,0.0009859250858426,0.0005821627564728,still
1761509333492738800,0.0048996908082161,0.0070277158128563,-0.0654711278200149,-0.0015428240876644,0.0026978878304362,0.0022089947015047,still
1761509333512896500,-0.0033598455216502,0.0063010455061215,-0.0671183105051517,-0.0003269382286816,-6.35087490081e-05,0.003111180383712,still
1761509333533053700,-0.0178578606825554,0.0017890479743946,-0.0599321983933448,0.0005754439625889,0.0028739031404256,0.0002936923410743,still
1761509333553211600,0.0034582461285172,-0.0029513697520364,-0.056485272809863,0.0005657176952809,0.0017408709973096,-0.0014356655301526,still
1761509333573369900,-0.0113477709690574,0.0055856089794542,-0.0614198066025972,-0.0010622541885823,0.0012867245823144,0.0018770755268633,still
1761509333593526500,-0.009696811724524,0.0028717286445666,-0.0602215367287397,0.0016640953253954,-0.0004744241014122,0.0008009751327335,still
1761509333613684700,-0.0011477498295949,-0.0019593539068475,-0.050644145566225,0.00027368334122,0.0013924622908234,0.0002338665071874,still
1761509333633841700,-0.0108439861653838,0.0116784459618385,-0.0681494071185588,-0.0021877174731343,0.001094102859497,0.0003029073122888,still
1761509333653999600,-0.0009056207699468,-0.0045005080233328,-0.0579734655410051,0.0007789020892232,-0.0018030973151326,-0.0016793162794783,still
1761509333674157600,-0.0049366800840478,-0.0045495621962938,-0.0463040705353021,-0.0005807064007967,-0.0012018261477351,-0.0001436327584087,still
1761509333694314800,-0.0124398313889279,0.0086251228058245,-0.0668038377285003,-0.0003854529932141,-0.0017064716666936,-0.0007126992568373,still
1761509333714472400,-0.0119954394891392,-0.0044058885424397,-0.0341840091526508,0.00148132070899,0.0026691248640418,-0.0015023431042209,still
1761509333734630700,-0.0055102741543436,0.0063631966226734,-0.0657557899802923,3.4950207918e-06,0.0014010118320584,-0.0017674071714282,still
1761509333754787600,0.0047234985576709,0.0012569321253802,-0.0678513009548187,0.001167447771877,-0.0012190509587526,0.0005213760305196,still
1761509333774945800,-0.0022484045478748,-0.0004960946875624,-0.0596200637042522,0.0003770189359784,0.0003802878782153,0.0016134744510054,still
1761509333795102700,-0.0047629629183793,0.0010247216715477,-0.0657552054584026,0.0007990717422217,-0.0007519451901316,8.8425586e-05,still
1761509333815260700,-0.0092624023626325,0.001053235379979,-0.0581242721885442,0.001784659223631,0.0013992255553603,-0.0015284190885722,still
1761509333835418600,-0.0065354707499267,0.0065408364782109,-0.0636614480495452,-0.0001578540541231,0.0006498601287603,0.0012192109134048,still
1761509333855575600,0.0006147663309006,-0.008160053444188,-0.0567804563641548,-0.0024820393882691,0.0001811617985367,0.0011025213170796,still
1761509333875733500,-0.0107208255765959,0.0044947632691357,-0.0623193857908248,-0.0012405451852828,0.0006613759323954,0.0006659610662609,still
1761509333895891700,-0.0032937169163022,0.0051217908599879,-0.0624684388726949,0.0003555468283593,0.0013992860913276,-0.0007250072667375,still
1761509333916048600,-0.007784977620677,0.0015269173063337,-0.0563327125966548,4.24741301685e-05,0.0009516524150967,0.0002808789722621,still
1761509333936206600,-0.0079476939017185,0.0064464635924901,-0.0481014753460884,-0.000418109120801,-0.0009176488965749,-0.0029114563949406,still
1761509333956364500,-0.0094466180894291,0.0003273322582244,-0.0718938543438911,-0.000745806377381,0.0006970409303903,-0.0013191234320402,still
1761509333976525000,-0.0111946582000004,0.0042165947817265,-0.0605167202830314,0.0004699155688285,0.0018728291615843,-0.0018440531566739,still
1761509333996683000,-0.003878485401161,0.0047513957781717,-0.0624602555662393,-0.0010860199108719,-0.0004811976104974,-0.0005627047503367,still
1761509334016840000,-0.0075211344861425,0.003047943727998,-0.0436059174925088,-0.0008938903920352,0.0004876432940363,-0.0001318743452429,still
1761509334036998100,0.0006308224165579,0.0055973085504025,-0.0644043753713369,0.0007398419547826,0.0025902651250362,0.0033275075256824,still
1761509334057156000,-0.0061932240503607,6.70282210689e-05,-0.0558721093475818,-0.0029209319036453,0.0020574405789375,0.0003155912272632,still
1761509334077313000,-0.0051789370078593,-0.0020150296168401,-0.0509334839016199,-0.0001452420838177,-0.0021127630025148,-0.0012440353166311,still
1761509334097471000,-0.0008700790991075,0.0043857225372456,-0.0623036036998033,0.0029887873679399,-0.0003280537202954,-0.0026376470923423,still
1761509334117629000,-0.0080762384850997,0.0046715994070749,-0.0603565612852573,0.0006433057133108,0.0021361066028475,-0.001499431906268,still
1761509334137786000,-0.0021391583200078,0.0023048337431158,-0.0572147561281919,-0.0001785303466022,-0.0018918104469776,0.0025783174205571,still
1761509334157944000,-0.0029004158829338,-0.0031494313410948,-0.0521288311660289,5.11568505316e-05,-0.0009130062535405,-0.0003199032507836,still
1761509334178101000,0.0007056046858197,0.0012495525365229,-0.0588607697695493,0.0005140793509781,-0.0004086149856448,0.0008083535358309,still
1761509334198259200,-0.0031832148796878,0.0018666706547141,-0.0623018501341342,-0.0007520434446632,-0.0004405975341796,-0.0025397217832505,still
1761509334218417200,-0.0101574606393696,0.002907411879301,-0.0618523528009653,0.0021133893169462,-0.0003350973129272,-0.0006544335046783,still
1761509334238574000,0.0011726970411837,-0.0029142434788867,-0.0528740965753793,-0.0016999675426632,0.0022618249058723,-0.001774723874405,still
1761509334258732000,0.0032416259694611,0.0012597725364379,-0.0599058949083089,8.44814348965e-05,-0.0024099992588162,-0.0016196689102798,still
1761509334278890200,-0.0074328899471089,-0.000226319569163,-0.0540706128835678,-0.0008059432730078,0.0016357535496354,-0.0028333752416074,still
1761509334299047000,-0.0153149073346285,-0.0033646358611993,-0.0660468818813562,0.0001103384420275,-0.0013911817222833,0.0001365370117127,still
1761509334319205000,-0.0138636810464318,-0.0089577431605197,-0.0482435141652822,-0.0007338991854339,0.0006684334948658,0.0005488782189786,still
1761509334339362000,0.002245701134135,0.0097920020275749,-0.0629109219431877,-0.001035412074998,-0.0021798517554998,-0.0010005810763686,still
1761509334359520000,-0.0060490572061622,-0.0084982815557625,-0.0504945079624652,-0.000694666057825,-0.0021042330190539,-0.0010944950627163,still
1761509334379678000,-0.0111641397641506,0.0099413382372353,-0.0501987398862838,-0.0038826439995318,0.0005953628569841,0.0007850998081266,still
1761509334399835100,-0.0050104394400026,0.000795927017508,-0.0638157618284225,0.0001038280315697,-0.0018348982557654,0.0018468014895915,still
1761509334419993000,-0.0012685449313605,0.0030783571325708,-0.0636696313560009,-0.000290025724098,-0.0009384602308273,0.0005122637376189,still
1761509334440151000,-0.0093773431123467,0.0047308096478693,-0.061726096072793,3.67644242942e-05,0.0014519728720188,0.0032874993048608,still
1761509334460308000,7.24030825076e-05,-0.0081076839361339,-0.0530506221860647,-0.0011647436767816,-0.0018080314621329,-0.0030099055729806,still
1761509334480466200,-0.0055532867455855,-0.0014137575217522,-0.0620294629335403,0.0012629278935492,-0.001695042476058,-0.0009862167062237,still
1761509334500623000,-0.0021121607152279,0.0019267211457248,-0.0549959110349416,-0.000511999707669,-0.0005580289289355,-0.0013721784343943,still
1761509334520781000,-0.0013829513915348,0.0066484798374585,-0.0563432339906692,-0.0011484953574836,-0.0005935803055763,-0.0004702098667621,still
1761509334540939000,0.0017931396276224,-0.0053642213137354,-0.0534983659535646,-0.0013176626525819,0.002065029926598,-0.0008679971797391,still
1761509334561096000,-0.0065196886589052,0.0039205253114458,-0.0570902529656887,0.0006050060037523,0.0008291769772768,0.0006797648966312,still
1761509334581254000,-0.0052852834591642,0.0112763314343523,-0.066069678235054,-0.0022441858891397,-0.0017404751852154,-0.0016003265045583,still
1761509334601412000,-0.002712446429627,0.0043386776582803,-0.0630804332911968,-0.0008877373766154,-0.0002739261835813,4.01111319661e-05,still
1761509334621569300,0.0008427801002282,-0.0022295856829732,-0.0481184264808893,0.0005618771538138,3.40240076184e-05,-0.003903245087713,still
1761509334641727000,-0.0018842200111364,0.002525481623318,-0.0548550412595272,-0.0012629823759198,0.0017826305702328,0.0009909390937536,still
1761509334661884200,0.0025102612212998,0.0030974636918399,-0.0561971035182476,0.0017131641507148,-0.0015213610604405,-0.0010253227083012,still
1761509334682042000,0.0007194733809679,-0.0013979388981126,-0.0633826311081647,-0.0006673438474535,-0.0006288597360253,0.0001773547846823,still
1761509334702200000,-0.0027944210580782,-0.0076385594538878,-0.0484212088197469,0.0016951473662629,0.0007276656106114,0.0009732372127473,still
1761509334722357000,-0.002771807367471,-0.0058909486015792,-0.0611398206174373,8.32411460578e-05,0.0012501496821641,0.002559250453487,still
1761509334742515200,-0.0029320257307495,0.0053207840308081,-0.0578489623785018,0.0009456661064177,0.0001082057133316,0.0027425731532275,still
1761509334762673200,-0.0043979472645791,0.0019424484378192,-0.0559007509201765,0.0017289931420236,-0.0001814812421798,0.0011288886889815,still
1761509334782830000,0.0028544258833164,-0.0024255466464906,-0.0482674795627594,0.0004731598310172,-0.0008470546454191,-0.0018672836013138,still
1761509334802988000,-0.0023321601414587,0.00165473580393,-0.0494622423052787,-0.0003613682929426,-0.0008887778967618,-0.0007049447158351,still
1761509334823145200,-0.0159888017079327,0.0053551338249817,-0.0545487517893314,0.0008031255565583,0.0003810990601778,0.0010962905362248,still
1761509334843303000,-0.0080112012917175,0.0068709452154114,-0.0612836130023002,0.0012164735235273,-0.0018396256491541,0.0022271166089922,still
1761509334863461000,-0.0090249997104518,0.001665805187216,-0.055299277895689,0.0017355434829369,-0.0007310193032026,-0.0014590142527595,still
1761509334883618000,-0.0003204093270935,0.0047839280745945,-0.0593359860658645,0.0015547524672001,0.0008863303810358,-0.0037210849113762,still
1761509334903776300,-0.0008971634688554,0.0069370418547187,-0.0531979217022657,-7.71328341215e-05,4.40822914242e-05,-0.0010972615564242,still
1761509334923933000,-0.0022437786051072,0.000401849666005,-0.0680114599525928,0.0009155720472335,0.0006354385986924,-0.0011741881025955,still
1761509334944091100,0.0042602740932488,0.0073542352203279,-0.0585854599595069,-5.0938688218e-06,0.0003716358914971,-0.0007070307619869,still
1761509334964245200,-0.0062517538711428,-0.0063803486868739,-0.0566425091981887,-0.00157539290376,-0.0016007432714104,0.0009420809801667,still
1761509334984402400,-0.0107125783380586,-0.0050379302351269,-0.04945990421772,-0.0004587268922477,0.0004402864724397,0.0010670355986803,still
1761509335004560400,-1.14255763124e-05,-0.0018391341938171,-0.0642740269899368,-0.0009320036042481,0.0002143336459994,-0.0018339075613766,still
1761509335024718600,-0.0048585368139203,0.0111957404788117,-0.0563438185125589,-0.000238471198827,0.0028511444106698,1.79156195372e-05,still
1761509335044875300,-0.004135812029941,-0.0082356668305117,-0.0675666387945413,0.0021856313105672,0.0006578024476766,-0.001533783506602,still
1761509335065033500,-0.0051271428885404,0.0025783534548711,-0.0566430937200784,-0.0041843801736831,-0.0011310232803225,-0.0014403753448277,still
1761509335085190700,-0.0033673301417846,-0.0045921409626957,-0.0608347001910209,-0.0016694674268364,0.0009479979053139,0.0023343465290963,still
1761509335105348400,-0.0039964309587143,0.0036263098715338,-0.0618821634173393,0.0002513343933969,0.0005827937275171,-0.0004097640048712,still
1761509335125506300,-0.0069123549380339,0.0027955398695077,-0.0581400542795658,0.0011483882553875,0.0003116810694336,0.0014583151787519,still
1761509335145663500,-0.0111365119717083,0.0057202864760998,-0.0645762248069048,-0.0013710674829781,0.0016603264957666,0.0005186346825212,still
1761509335165821400,-0.0005978471621405,0.0087648874695412,-0.0487169768959283,0.0026554085779935,-0.0005638673901557,-0.0020352576393634,still
1761509335185979400,-0.0042031781777273,0.0111403661629185,-0.061435004171729,0.0028708269819617,0.0005281986668705,-0.0016611269675195,still
1761509335206136600,-0.010157328208629,0.0022448654504958,-0.07460019069314,0.0004004687070846,0.0020985808223485,0.0001272417139261,still
1761509335226294500,-0.0091842910585459,-0.0074590381685178,-0.069063014832139,-0.0001505513209849,-0.0008974112570285,-0.0004647900350391,still
1761509335246451500,-0.0040041393411345,0.0036724962339736,-0.0497609329909086,0.0021980721503496,-0.0008950512856245,0.0022713458165526,still
1761509335266609400,-0.0017777593954,0.0060738856867421,-0.0570920065313577,0.0010717783588916,0.0014762664213776,-0.0016919978661462,still
1761509335286767400,-0.0090833012023707,-0.0003979680753313,-0.0506558360040187,0.0004785205237567,-0.0027517676353454,-0.0004994075279682,still
1761509335306924300,-0.0010523996963398,0.0003964337053708,-0.0472141711175441,-0.0006297854706645,-0.001974917948246,-0.0019340692088007,still
1761509335327082500,-0.0093029764016158,0.0097737265853676,-0.0535007040411233,-0.0001541974488645,-0.0017310380935668,-0.0015044938772916,still
1761509335347240400,0.0033113165050745,0.0023734328667633,-0.0563432339906692,-0.0006219584029167,-0.0015156399458646,-0.0003344027791172,still
1761509335367397600,-0.0129644032523036,-0.0071137318621855,-0.0612871201336383,0.0010988924186676,0.000688336789608,0.0003484908957034,still
1761509335387555300,-0.0066938076833728,-0.0027417455893475,-0.0520090041786432,-0.0009729219600558,-0.0014362428337335,0.0029163148719817,still
1761509335407712500,-0.0034102285685949,0.0083988032366614,-0.0553004469394683,0.0013961237855255,0.0002456819638609,-0.0017285912763327,still
1761509335427870500,0.0016887568045407,-0.0032176651385612,-0.0511076714247465,0.0003930341918021,-6.94906339049e-05,0.0002870024181902,still
1761509335448028400,-0.0028945249982643,0.0024064126877579,-0.0547013120025396,0.0013310627546161,-0.0016891080886125,0.0002270590048283,still
1761509335468185300,-0.0079043525169137,0.0049510100034996,-0.0466226349651813,-0.0013259106781333,-0.0007488317787647,-0.0011539730476215,still
1761509335488343600,-0.0032441330203786,0.0055112377021461,-0.0569458760589361,-0.0009177485480904,0.0003459183499217,-0.0002597125712782,still
1761509335508501500,-0.0065702817684039,0.0078077054757159,-0.0594867927134037,0.0027566275093704,0.0014326488599181,0.0013032122515141,still
1761509335528658400,-3.49799818359e-05,0.0071481912542134,-0.0713081634104251,0.0012276954948902,-5.89219853281e-05,-0.0018211546121165,still
1761509335548816400,0.002043415461108,0.0013569858332164,-0.059486208191514,0.0032245675101876,-0.0008563036099076,0.0022487447131425,still
1761509335568973600,0.0085708262021653,0.0136957132015377,-0.0558925676137208,-0.0009012355003505,0.0002437746152281,-0.0025403103791177,still
1761509335589131300,0.0025970946879591,-0.0034040728224441,-0.0508072271734476,-0.000326283276081,-0.0001796977594494,-0.0005232953699305,still
1761509335609289500,-0.0030838644247502,0.0011046367736533,-0.0563414804250001,-0.0002562408335506,0.001880757510662,-0.0019958049524575,still
1761509335629446400,-0.0190147710661403,0.0027297263579908,-0.0531985062241554,-0.0004559089429676,0.0007634609937667,-0.000358504243195,still
1761509335649604400,-0.0136498647658154,0.0047634880747646,-0.0446697473317384,0.0017574587836861,0.0028170645236968,-2.74931080639e-05,still
1761509335669762300,-0.0101345957870129,0.0015462247950024,-0.0602297200351953,0.0011392515152692,-0.0018967231735587,0.0015248851850628,still
1761509335689919500,-0.0059650002184789,0.0034378015621099,-0.0537953030735254,-0.0010072572622448,0.0011641001328825,0.0032945293933153,still
1761509335710077400,-0.0067035892918705,0.0002011851279065,-0.0630751725941896,0.0014195619150996,0.0009310040622949,-0.002134412061423,still
1761509335730234400,-0.0053182358806952,0.0072350840863771,-0.0508013819545507,0.0004397425800561,0.0028546685352921,0.0012757556978613,still
1761509335750392300,-0.0040623221020447,0.0020986253802198,-0.0608218407094478,0.0010181670077145,0.0004322733730077,0.0002005505375564,still
1761509335770550500,-0.0037866058666259,-0.0017285590919665,-0.0484036731630563,-0.0002169820945709,0.0004804115742444,0.0017835374455899,still
1761509335790707500,-0.0050726088228635,0.0122877460997551,-0.0569365237087011,-0.0008793575689196,-0.0028422605246305,0.0008787186816334,still
1761509335810865400,-0.0012577815087512,0.001072497202875,-0.0478092144012451,-0.0010099413339048,0.0002577193081378,-0.0023414038587361,still
1761509335831022600,-0.0084997519936412,0.0024181031255517,-0.0545393994390964,0.0007109420839697,0.0010535111650824,-0.0032968460582196,still
1761509335851180500,-0.0123560986282303,0.0082090802176855,-0.0536409892946481,0.0015173016581684,-0.0008722878992557,-0.0019741295836865,still
1761509335871338200,-0.0008051515035796,0.003703667690372,-0.0689034403562545,0.0035177504178136,0.0001090634614229,-8.22246074676e-05,still
1761509335891495400,-0.0022210370503365,0.0124238027027342,-0.057529813426733,0.0005870033055543,-0.0003481721505522,0.0009781976696103,still
1761509335911653600,-0.0014485548404976,0.0014758629725314,-0.0575292289048433,-0.0012374767102301,0.0003554439172148,0.0019236975349485,still
1761509335931811300,-0.0045099699714221,0.0057483617931138,-0.0536368976414203,0.0016475180163979,0.0007870225235819,-0.0004863191861659,still
1761509335951968500,-0.0103330455351388,0.0015821820243727,-0.0528887096226215,0.0012904424220323,0.0017655817791819,0.0008991528302431,still
1761509335972130000,-0.0042753483647946,0.0020548867031931,-0.0539355883270502,-0.0010117900092154,0.0023602601140737,0.0012912538368254,still
1761509335992287000,-0.0024350085945799,-0.0022760186405852,-0.0545318006545305,-0.002001516520977,-0.0007275873795151,-0.0018226344836875,still
1761509336012445000,-0.0025175997109618,0.0028160346682649,-0.0570750553965568,-0.0007786599453538,0.0001232223585247,-0.0009572396520525,still
1761509336032603100,0.0026195531149394,0.0019698022356256,-0.0554290417551994,-0.0003832229413092,0.0007719304412603,0.0004511091392487,still
1761509336052760000,-0.0043139953081728,-0.0017458024877123,-0.0569260023146867,0.0013917216565459,8.49599018692e-05,0.0012096147984266,still
1761509336072918000,-0.00065416219295,0.0041350722444243,-0.0515390485793352,0.0004114520270377,-0.0020471168681979,0.0003287750296294,still
1761509336093075000,-0.000697681674268,0.0016487170550972,-0.0621627339243888,0.0002557379193603,0.0019065057858824,-0.0016711964271962,still
1761509336113233200,-0.0060637341854861,-0.0007928948102053,-0.0593161123216152,0.0003322123084217,0.0001175859943032,-0.0005724742077291,still
1761509336133390800,-0.0016556354196509,-0.001166386031406,-0.0584182866990566,0.0015649532433599,-0.0005065780133008,-0.0006068388465791,still
1761509336153548000,-0.0032545493831159,0.0049425161697901,-0.0564712442845106,0.0013628746382892,-0.0020817816257476,0.0004624598659574,still
1761509336173706000,-0.0071216137745417,0.010329214176815,-0.0575210455983877,-0.0003457050770521,-0.0010576928034424,0.0034429165534675,still
1761509336193864200,-0.0067545111949322,0.0059048035969957,-0.0597656096547841,-0.0021382141858339,0.00050790887326,0.0004631672054529,still
1761509336214020900,-0.0046028815524186,0.0086527871308848,-0.0739811820119619,-0.0010590087622404,0.0010714083909988,-0.0010024891234934,still
1761509336234179000,-0.0020979449602076,0.0069724236953537,-0.0569224951833486,0.0018425493035465,0.0016772653907537,-0.000674391281791,still
1761509336254336000,0.001308931740676,0.0092049045883119,-0.0629079993337392,-0.0004277171101421,0.0008566491305828,0.0001244307495653,still
1761509336274494000,-0.000894327624375,-0.0028099428541958,-0.0590220978111028,-0.0022983390372246,0.0007760738953948,0.0005152432713657,still
1761509336294652000,-0.0094812373116612,-0.0005384542582556,-0.0570785625278949,-0.001982832327485,-0.0001991055905818,0.0001035847235471,still
1761509336314809000,-0.0057001113377511,0.0033143578455317,-0.0650099400490522,-0.0024152598343789,5.35007566213e-05,0.0021766079589724,still
1761509336334967000,-0.0074989957195706,0.0062568136387504,-0.0582744943141937,0.0003763986751437,-0.0004818616434931,-0.0002253130078315,still
1761509336355125000,-0.00559108887217,0.0067347059493418,-0.0599193389117717,0.0013099063653498,-0.0004971697926521,0.0012373377103358,still
1761509336375282200,-1.6033252771e-05,0.0045015035371761,-0.0545318006545305,0.0019531683064997,0.002333709038794,-0.001107477932237,still
1761509336395440000,0.0081479200483998,0.0107606643966399,-0.059018006157875,0.0003700132947415,-0.0017502810806035,0.0002746703103184,still
1761509336415597000,-0.0015211131866322,0.002254966719402,-0.0602151069879531,0.0004631124902516,-0.000526207499206,-0.0002873907797038,still
1761509336435755000,-0.0027005870284745,0.0050819611730985,-0.0624579174786806,0.0001276584807783,2.70893797278e-05,-0.0001355384010821,still
1761509336455913000,0.0020191212700679,0.0110127394615672,-0.0542272647500038,0.000104960752651,-0.000729545019567,0.0002817334607243,still
1761509336476070000,0.0003614765564212,-0.0015217205414082,-0.0566202973663806,0.0004599438980221,0.0008797999471426,6.49245921522e-05,still
1761509336496228000,-0.0140935579792829,0.0071007627827581,-0.0503349334865808,0.0002995391841977,0.0030432920902967,0.0010915084276348,still
1761509336516385000,0.0015315660819876,-0.0010495729850139,-0.0596089577883481,-0.0004533822648227,0.0005381302908062,-0.0019876156002283,still
1761509336536543200,-0.0049762860086513,-0.0099195373973809,-0.0618558599323034,-0.0008118222467601,-0.0008323416113853,-0.0010499462950974,still
1761509336556701000,-0.0067590732056181,0.0067119278619531,-0.0540752890586853,-0.0001064271200448,-7.1445479989e-05,0.0005205122288316,still
1761509336576858000,0.0029494061238132,0.0015954250984359,-0.0545236173480749,-0.0018856443930417,0.0024562710896134,0.0030259601771831,still
1761509336597016000,-0.0105825496170669,0.0093598302885424,-0.0459901822805404,0.0020703000482171,0.0018293363973498,-0.0006533584091812,still
1761509336617174000,-0.0034459711688337,0.0050310438366141,-0.0513765514940023,-0.0005825613625347,0.0004296191036701,0.0020134255755692,still
1761509336637331000,0.0005394406389445,0.0019900139065925,-0.0560164862543344,-0.0022648670710623,-0.0002430658787488,-0.0020020657684653,still
1761509336657489200,-0.0005900976805249,0.0038326643649023,-0.0596089577883481,2.1327286958694458e-07,-0.0007827701047062,0.0009010210633277,still
1761509336677645800,0.0006490750258788,0.004501987594366,-0.0618558599323034,0.0004738431889563,0.0004708934575319,-0.001221906277351,still
1761509336697804000,-0.0036769988791551,0.0107893059692345,-0.0548252306431531,0.0003329787869006,0.0013561975210905,0.0019611280877143,still
1761509336717962000,-0.0095694818506948,0.0002144282019697,-0.0558732783913612,-0.0008683241903781,0.0014748629182577,-0.0007059703348204,still
1761509336738119200,0.0038676169472746,0.0069751636417116,-0.0578197362840175,0.0001133494079113,0.0006484249606728,-0.0022362347226589,still
1761509336758276900,-0.0023572626166744,0.0006772782070562,-0.0572217703908681,0.0009007004555314,0.0001247562468051,-5.50542026758e-05,still
1761509336778434000,-0.003999983755825,0.009726553842239,-0.0603612374603748,0.0001040583010762,0.0007341690361499,-1.20494514703e-05,still
1761509336798592000,0.0009987195806112,0.003863233033102,-0.0578168136745691,-0.0006869982462376,0.0021019075065851,-0.0008716507581993,still
1761509336818750000,-0.015889017428155,0.0073362703053746,-0.0652981093406677,-0.0009364255238324,-0.0002887388691306,-2.00408976525e-05,still
1761509336838907000,-0.004011660493887,0.0038351303166244,-0.0497357985496521,0.0019233619095757,0.0001454409211874,-0.0010018985485658,still
1761509336859065000,-0.0001397783634485,0.0078888992194551,-0.0497352140277624,0.0006042253226041,-0.0005118642002344,-0.0004272123333066,still
1761509336879223000,-0.0018218633986078,0.0039134836493059,-0.0506336241722106,0.0001688841730356,-0.0009483005851507,0.0020172907970845,still
1761509336899380000,-0.005601048577181,0.0020305377132259,-0.0603606529384851,0.0009430407080799,-0.0006177118048071,-0.0022360854782164,still
1761509336919538000,-0.0030877323156921,-0.0029942133799195,-0.0605120441079139,-0.0002274562139064,-0.0007174108177423,0.000395389040932,still
1761509336939695000,-0.0084689641297329,0.0083706091886386,-0.0647018970131874,-0.0003614388406276,-0.0017972541972994,-0.0020892806351184,still
1761509336959853000,0.0013480307752033,0.0057901003092993,-0.0648532881826162,-0.0009080925956368,0.0003811921924352,0.0012788670137524,still
1761509336980008200,-0.0036524854924064,0.0048675512374378,-0.0644067134588956,-0.0030372904147952,0.0001915683969855,0.0003380253911018,still
1761509337000165000,-0.0059822710136882,0.0048120399242267,-0.0615647680312395,0.0011606363113969,-0.0031027812510728,0.0010640285909175,still
1761509337020323000,-0.0027500932925846,0.0051952762213069,-0.0572264465659856,-0.0011957057286053,-0.0008567366749048,-0.0014075501821935,still
1761509337040480300,-0.0022855536539107,0.0027227668942417,-0.0548339984714984,-0.0013552734162658,-0.0002184873446822,-0.0018059808062389,still
1761509337060638200,-0.0068907093618065,-0.0010016421900596,-0.0587263297349214,-0.0009294517803937,0.00018962752074,-0.0009452240774407,still
1761509337080796200,0.0033468901419546,-0.001138502510637,-0.0546849453896284,0.002116976538673,0.000436196103692,0.0005407675635069,still
1761509337100953000,-0.0036000703185796,0.0063352035040501,-0.0575274753391742,0.0030634675640612,-0.0004824260249733,0.0007842860650271,still
1761509337121111000,-0.006446061733691,-0.0021497436461038,-0.0599210924774408,0.0001482486259192,-0.0019173389300704,-0.0016815443523228,still
1761509337141268200,0.0049667098961304,0.0023183051460422,-0.0515419711887836,0.0007772252429276,0.0003744345158338,-0.0013610386522486,still
1761509337161426200,-0.0035666064403951,0.00273533411487,-0.0575263062953948,0.0010157192591577,-0.0013948483392596,0.0012918575666844,still
1761509337181584100,-0.0039861470267176,0.0102597291371785,-0.0554313798427581,0.0003552038688212,0.0025079948827624,-0.0006087197689339,still
1761509337201741300,0.0027411793337669,0.0008759973832406,-0.0549842205971479,-0.0013621954713016,-0.0016627088189125,-0.0002062516286969,still
1761509337221899000,-0.0032966303925961,0.0141616410796996,-0.054088733062148,-3.94249800592e-05,-0.0007702466100454,0.0019974024035036,still
1761509337242057000,-0.0079306194693315,0.0059922992173582,-0.0653138914316892,-0.0010684225708246,-0.0026872567832469,-0.0003433101810514,still
1761509337262214100,-0.0023835706682875,0.0044154509552288,-0.0609761544883251,0.0002782132942229,-0.0015148445963859,-0.0007630145410075,still
1761509337282372400,-0.0142342770576477,0.0090336122751701,-0.0564893644630908,0.0011193174868822,0.0005038687959313,-0.0035671759396791,still
1761509337302530000,-0.0023257395338267,0.007952091515623,-0.0588870732545852,0.0003190871793776,-0.0017653303220868,0.0003750035539269,still
1761509337322688000,0.0038270840074867,0.0024562614451628,-0.0554454083681106,0.0012228451669216,-0.0007767006754875,-0.0020794852171093,still
1761509337342845200,0.0142342953239567,0.0102367409872356,-0.0551467176824808,0.0014862567186355,-0.0008927145972847,5.60900662094e-05,still
1761509337363003100,-0.0045412327593658,0.0076500124296639,-0.0549982491225004,-0.0010867270175367,7.26273283362e-05,7.19155650585e-05,still
1761509337383161000,0.0042093887228053,0.0042393180701881,-0.0596370148390531,0.000181648414582,0.0010078493505716,0.0005773829761892,still
1761509337403318300,-0.0048189537222031,0.0042846276497934,-0.0566425091981887,0.0018021973082795,-0.0007636593654751,0.0018038912676274,still
1761509337423476200,-0.0086940415898803,0.0039939193412195,-0.0575403348207473,0.0006427217740565,6.3935294747e-06,0.0034531352575868,still
1761509337443634000,-0.002298814994283,0.0071202529345173,-0.0573918662607669,2.13531311601e-05,0.0002798615023493,0.0010117103811353,still
1761509337463791000,-0.0005263710948172,0.0005329926318489,-0.0563467411220073,-0.0015950929373502,0.0021503213793039,-0.0002539244014769,still
1761509337483949300,-0.0013136124823708,0.0117915326811838,-0.0548521186500787,0.000133438501507,-9.33213159441e-05,-0.0017985037993639,still
1761509337504106000,-0.0044327400167472,0.0099010153600014,-0.0521598108261823,0.0005723184440284,-0.0009361943230032,0.0010532229207456,still
1761509337524264200,-0.006138310958771,-0.0018350790732074,-0.0575450109958648,-0.0005933379288762,0.0025057075545191,0.0024748805444687,still
1761509337544422100,0.0015846571092493,0.006879649111675,-0.062481298354268,0.0010240876581519,0.0002765413373708,-0.0020035153720527,still
1761509337564579300,0.0028617826392874,-0.0018068119599483,-0.0573918662607669,-0.0011262467596679,0.0008579464629292,-7.00778327882e-05,still
1761509337584737000,-0.0006602266075555,-0.0013833441171795,-0.0561941809087991,0.0006542846094816,7.70632177591e-05,-0.0010567891877144,still
1761509337604894200,0.0019970921013504,-0.0078827252069953,-0.062031801021099,-0.0040943976491689,-0.0006715608760714,-0.0004433231661096,still
1761509337625052200,0.0064976092578377,0.0050524519508238,-0.0642798722088336,-0.0028794780373573,-0.0002256408333778,-8.57610721141e-05,still
1761509337645210000,-0.0136584499310702,0.0087101890070829,-0.0638309593975544,-8.81704036146e-05,-2.3441389203e-06,-0.0003918693400919,still
1761509337665367000,0.0010064462293405,0.0074450096431653,-0.0644260026812553,-0.0005490924231708,0.0004919432103633,0.0031059489119797,still
1761509337685525200,-0.0016530735698062,0.003153130268678,-0.0569429534494876,-0.0002683361526578,0.0006588604301214,0.0002526794560253,still
1761509337705682000,0.0061875295285135,0.0010798585254233,-0.063527592536807,0.001144076231867,0.00095677934587,-0.001771321054548,still
1761509337725840100,0.0006916811917442,0.0027346125956624,-0.0542500611037015,-0.0009880294091999,0.0011271135881543,-0.0011615410912781,still
1761509337745998000,-0.0143642692460212,-0.0011436718760989,-0.0508078116953372,-0.0007219919934868,0.0004317173734307,0.0021399098914116,still
1761509337766155300,0.0043813477562274,0.0036004173784516,-0.0590332037270069,-0.0004139964003115,-0.0013699233531951,0.0017077021766453,still
1761509337786313000,-0.002557201068988,0.0050489265531767,-0.0630710809409618,0.0011653364636003,0.0026832204312086,-0.0009862588485702,still
1761509337806471200,-0.0122980574312154,0.0033978348779026,-0.0573836829543113,0.0004442993085831,0.0010904241353273,0.0008559788111597,still
1761509337826628000,-0.0141621799358166,-0.0051247865346726,-0.0539437716335058,0.0012677235063165,-0.0005592592060565,-0.0003234732430428,still
1761509337846786300,-0.0071953548641875,0.0060543681355193,-0.065914779934287,-0.0002115920651704,0.0018230928108096,-0.0027040094137191,still
1761509337866943200,-0.0030739914847072,0.0052693917702883,-0.0527437481939792,0.0003186077810823,0.0012259259819984,-0.0004443970974534,still
1761509337887101200,-0.0034342487649992,-0.0040326347832567,-0.0530412698358297,-0.0010946621187031,0.0015288554131984,0.0016891995910555,still
1761509337907259100,-0.0066186692210845,0.0041460685624741,-0.0525929415464401,-0.0019061807543039,0.0009419368579983,0.000836202641949,still
1761509337927416000,-0.0092426884485874,0.0025770474137738,-0.0638157618284225,-9.21313185244e-05,0.0015005143359303,0.0039738761261105,still
1761509337947574000,0.0008286328438669,0.00684339962136,-0.0606751257151365,-0.0002283328212797,-9.10833477973938e-07,-0.0010971296578645,still
1761509337967730200,-0.004248999213986,0.0077995221692603,-0.0563356352061033,-0.0008292393758893,-0.0007286285981535,-0.0024066602345556,still
1761509337987888400,-0.0061453343546018,0.0015389365376904,-0.0644160658091306,0.001485806889832,-0.000644689425826,-0.0038394797593355,still
1761509338008046300,0.0053162265866994,-0.0016548728012479,-0.0542430468410253,-0.0018335341010242,-0.0008214572444558,-0.0026941627729684,still
1761509338028203500,0.0048050621941685,0.0079232672799378,-0.0642705198585987,0.0012262694071978,-0.0031062867492437,-0.0008970593335106,still
1761509338048361200,-0.0003328212840948,0.0034552276209462,-0.0678612378269434,-0.0013510819990187,-0.0012797657400369,-0.0006056737620383,still
1761509338068518400,0.0055066802580375,0.0026778043745085,-0.0554419012367725,0.0004351790994405,-0.0006905412301421,-0.0001213997602462,still
1761509338088676400,-0.0116000743628479,0.0052095148092135,-0.0496054501682519,0.0011132583022117,-0.000807506032288,0.0004553645849227,still
1761509338108834600,0.0092330803700257,-0.0011915752715896,-0.0615752894252538,0.0023305343929678,-0.0027682054787874,-0.002177070826292,still
1761509338128991500,-0.0036051666188053,0.0048825478771701,-0.0518494297027587,-0.0024547178763896,-0.0006251605227589,-0.0005762659711763,still
1761509338149149400,-0.0064651865592692,0.003741789477365,-0.0509545266896486,-0.0028062227647751,0.000434411689639,-0.0027704131789505,still
1761509338169306400,-0.0034663152705412,0.0088274678443558,-0.0514075311541557,-0.002189093735069,-0.0004021013155579,0.0011863450054079,still
1761509338189464300,0.0043475368181709,0.0117711931460537,-0.0660749389320611,-0.0012717247009277,-0.0004946747794747,0.0011954456567764,still
1761509338209622300,-0.0035271420796867,0.0001966185506433,-0.0529079988449811,-0.0011409493163228,-0.0026937602087855,0.0021590492688119,still
1761509338229779500,-0.0068703606935217,0.0104412505833897,-0.0647322921514511,-0.0021757176145911,-0.001320868730545,-0.0001136143691837,still
1761509338249937400,-0.0016267335521522,0.0098558336445596,-0.0572498274415731,0.0016375785926356,0.0015732645988464,0.0023956540971994,still
1761509338270094300,-0.003412192196818,0.0067778783707879,-0.0502156910210847,-0.0020422299858182,-0.0004472443833947,0.000727022299543,still
1761509338290252500,-0.0075231620464473,-0.0024010606592055,-0.0614385113030672,0.0002893677446991,-0.0006242990493774,0.0005503809079527,still
1761509338310410500,-0.0097578440296463,0.0102744426491204,-0.0521621489137411,0.0007310081273317,-0.0005183443427085,-0.0006266913842409,still
1761509338330567400,-0.0001817315087653,0.001365169139672,-0.0562029487371444,-0.0010651955381035,-0.0020744781941175,0.0001816938165575,still
1761509338350725400,-0.0066157557447906,-0.0001957052351906,-0.0617401245981454,0.0001297073904424,-0.0003711739555001,-0.0001431754790246,still
1761509338370882600,-0.0004442275030072,0.0049437674119602,-0.0517144051462411,-0.0008624196052551,0.0006035361438989,-0.0002644844353199,still
1761509338391040300,-0.0024422511861193,-0.0016919442754704,-0.0621890374094247,0.0012409558985382,-0.0012048445641994,-0.0010298828128725,still
1761509338411198500,-0.001917250064481,0.0020327662029303,-0.0560556492209434,-0.0023713703267276,-0.0025030700489878,-0.0018299849471077,still
1761509338431355400,-0.0119022813129704,0.0067560227320063,-0.0458826302528381,-0.0001233096700161,0.002606519497931,0.000729793915525,still
1761509338451513300,0.0036316801663953,0.0103301822911947,-0.064437693119049,-0.0013636972289532,0.0004854388535022,-0.0010598807130008,still
1761509338471670300,-0.0012722940912935,0.0053125459254253,-0.0612988105714321,-0.0008669982198625,0.0022564623504877,0.00269998726435,still
1761509338491828500,-0.0007517499490641,-2.10153885651e-05,-0.0614490326970815,-0.0008094920776784,-0.0002867532894015,-5.8954115957e-05,still
1761509338511986400,0.0003350497737992,0.0086246570149436,-0.0562158082187175,0.0003091958351433,0.0010597528889775,-0.0016011099796742,still
1761509338532143400,-0.0030996647820807,0.0005154935077764,-0.0702794048845767,0.0002242303453385,-0.0010849125683307,6.37399498373e-05,still
1761509338552301300,-0.0039199955884832,0.0023678616425022,-0.0629477468222379,0.0003638735506683,-0.0005796728655695,0.0010981559753417,still
1761509338572459500,-0.0045590150112286,0.00053113860148,-0.0580097058981656,0.0009432244114577,0.0010401774197816,0.0013285775203257,still
1761509338592616200,0.00143742152513,0.0011946714109741,-0.0635445436716079,-0.0008683900814503,0.0008677104488015,-6.4359046518e-06,still
1761509338612774400,-0.0110907548675313,0.008136663435446,-0.0641425095647573,-6.08838163316e-05,-0.0015395376831293,-0.0005329344421625,still
1761509338632931600,-0.0050761342205107,-0.0009506152557209,-0.0571107112318277,8.3751277998e-05,-0.0003625443205237,-0.0023508055601269,still
1761509338653089300,0.002490985698672,0.0016118099776562,-0.0614507862627506,0.0014738085446879,0.0011675553396344,-0.0001627132296562,still
1761509338673247200,-0.0101592918368522,0.001716402863292,-0.0601052168726921,-0.0028744931332767,-0.000898053869605,0.0006799008697271,still
1761509338693404400,-0.0001073510983027,0.0015801179314497,-0.0551695140361785,-0.0020928357262164,0.0010084873065352,-0.000429589767009,still
1761509338713562400,-0.0063702108853496,-0.0008680332724936,-0.0526280128598213,-0.0011608516797423,-0.0025091851130127,0.0029698435682803,still
1761509338733719300,-0.0049188065006397,0.0072935728079639,-0.0565185905575752,0.0003397911787033,-0.0001400569453835,0.0005392828024923,still
1761509338753877500,-0.0048333567068912,0.0035680038130376,-0.0596592266708612,0.0004245045129209,0.0008180672302842,0.0002572303637862,still
1761509338774035500,-0.0040865477944258,0.0067360302567481,-0.0596551350176334,0.0023739887401461,-2.281088382e-05,-0.0010872378479689,still
1761509338794192400,-0.0082252367680426,0.0008489449795335,-0.0624953268796205,-0.0007881545461714,-0.0004925690591335,-0.000809148303233,still
1761509338814350300,-0.0015062124450225,0.0033437300704885,-0.0536678773015737,-0.0020322296768426,-1.18864700198e-05,0.0003937415312975,still
1761509338834507500,-0.0021275957463774,0.0040831685272511,-0.0538175149053335,0.0008763412479311,0.0007912879809737,0.0020915181376039,still
1761509338854665200,0.0075040554871782,0.0027590072514023,-0.0657891077280044,0.001375134801492,0.0002338532358407,0.00010994868353,still
1761509338874823400,0.0055007437075953,-0.0044944253424182,-0.0583095656275749,-0.0021179502364248,-0.0014066835865378,0.0015183219220489,still
1761509338894980400,-0.0018054145873058,0.0077645421874243,-0.0648942047148943,-0.001040190225467,-0.0002682469785213,-0.0002861672546714,still
1761509338915138600,-0.002177334905928,-0.0106403716183733,-0.0577110152125358,-0.0002473690547049,6.16209581494e-05,0.0015327117871493,still
1761509338935295200,-0.0115409737199079,0.0036664318193681,-0.0620516747653484,0.0005232063122093,0.0001216046512126,-0.0018580788746476,still
1761509338955453400,0.0075411817603278,0.0047801652149297,-0.0577121842563152,-0.0001929143909364,0.0014363704249262,-0.0002494279760867,still
1761509338975611000,0.001471378593659,0.0101324494956992,-0.0548684852629899,0.0026142769493162,-0.0010264050215482,0.0013553674798458,still
1761509338995768000,-0.0036162360020913,0.0053400549868587,-0.0572638559669256,-0.0012108404189348,0.0001476528123021,0.0036625801585614,still
1761509339015926000,-0.0054256235116161,0.0008923913956154,-0.0556201804131269,0.0005688339006155,-0.0010206438601016,-0.0005007094005122,still
1761509339036083000,0.0074228434771299,-0.001869237071136,-0.0560667551368474,0.0010810040403157,0.0019174851477146,-0.0014570403145626,still
1761509339056241200,-0.0026361754561774,0.0043711734220851,-0.0672884063750505,0.0011734149884432,-0.0008258614689111,0.0005024694837629,still
1761509339076399000,0.0034207225631456,0.004852024874743,-0.0508300235271453,-0.0023349823895841,-0.0014448342844843,0.001049633603543,still
1761509339096556000,0.0009169687144458,0.0087813728134613,-0.053225394231081,-0.0016336187254637,-0.0006753494963049,0.0013656092341989,still
1761509339116714000,-0.0039188904767856,-0.0018035148911643,-0.0515799651116132,0.0013537281192839,0.0008356934413313,0.0001257001422345,still
1761509339136871200,1.43755852244e-05,0.0002330050382763,-0.0617547376453876,-0.0001662315335124,0.001890548504889,-0.0002031782642006,still
1761509339157029000,0.0008997527181636,0.0088417064322624,-0.0530751721054315,0.0032823788933455,0.0006415005773305,0.000249943928793,still
1761509339177187000,0.003148965550214,0.0024089243052527,-0.0566635519862174,0.001602771342732,-0.0005135228857398,-0.0024163741618394,still
1761509339197344000,0.0060649534616153,0.0017288330866023,-0.0536719689548015,-0.0006528918165713,-0.0013333922252058,0.0003009703941643,still
1761509339217502200,-0.0019986447376199,0.0052535000814124,-0.0518774867534637,0.0003382961731404,-0.0005264617502689,-0.0006393525982275,still
1761509339237659000,0.0083344510298687,0.0040968865253496,-0.0580149665951728,-0.0013384881895035,-0.0008181678131222,0.0008688885718584,still
1761509339257817000,0.0053436899823602,-0.0028502748645842,-0.0650485184937715,0.0031991880387067,-0.0002619484439492,0.0055726952850818,still
1761509339277975000,-0.0031466822615824,0.0029404008334502,-0.0595113426327705,-0.0005975237581878,-0.00204055942595,0.0002635307610034,still
1761509339298132000,-0.0094140629601199,0.0010835300535429,-0.055770987060666,-0.0005575683899223,-0.0007127560675144,-0.0030592486727982,still
1761509339318290000,-0.0015986856346018,0.0051899972579907,-0.0544242486268281,0.0013443275820463,0.0014975424855947,-0.0006204127566888,still
1761509339338447000,-0.0010640399017836,0.000120630704984,-0.052777650463581,0.0008147757034748,-0.0029851151630282,-0.0005439937813207,still
1761509339358605000,0.0059310705494135,0.0003500829461496,-0.0611585253179073,-0.0002214878331869,0.0007943278178572,0.0009207364637404,still
1761509339378763000,0.0008273907348513,0.0065109801960643,-0.0529267035454511,0.00073450547643,0.0001459401100873,0.0026258784346282,still
1761509339398920000,-0.0058623161621391,0.003255540330382,-0.0602589461296796,-0.0017076293006539,0.0005049742758274,-0.0021861949935555,still
1761509339419078100,0.0070704955086577,0.0008664897693786,-0.0613069938778877,0.0007102282252162,0.0016295267269015,0.0004129973240196,still
1761509339439235000,-0.0026705161171965,0.0043863435917533,-0.055172436645627,-0.0003148715477436,-0.0017511015757918,-0.0024749529547989,still
1761509339459393000,-0.001974423611816,-9.50213396921e-05,-0.0654968467831611,-0.0006933258846402,0.0001924000680446,-0.0009422560688108,still
1761509339479551000,-0.0121947431872133,0.006230345756933,-0.0593634585946798,0.0003999334294348,-0.0019776942208409,-0.0011831219308078,still
1761509339499708200,-0.0023515589616727,0.0001391527423635,-0.0574175852239131,0.0022987443953752,0.0010081091895699,0.0010433960705995,still
1761509339519866000,0.0029395605832338,-0.0012563567366451,-0.0494838696151971,-0.0003629953134804,0.0001822914928197,0.0023913448676466,still
1761509339540023000,-0.0008379395283292,0.0011749803298152,-0.0556184268474578,0.0005293732974678,6.31660223007e-05,-0.0009723705006763,still
1761509339560181200,0.0023738712581805,0.0057048057791776,-0.0750713153362274,0.0021007331088185,-0.0020114900544285,0.0008025660645216,still
1761509339580339000,0.0051682329507544,0.0031018567391671,-0.063702949103713,-0.0030620414763689,5.6161545217e-05,-4.91936225444e-05,still
1761509339600496000,-0.0043112416620831,1.84581052977e-05,-0.0503869559347629,-0.0034346089232712,0.00063082203269,-0.0014415273908525,still
1761509339620654000,0.0010630626542493,-0.00613572627604,-0.0617594138205051,0.0001791613176465,0.0002051386982202,0.0007095504552125,still
1761509339640811000,0.000505474437261,0.0057270084778312,-0.0571206481039524,-0.0001085484400391,0.0019769025966525,0.0025771223008632,still
1761509339660969000,0.0046642015519086,0.0001215622867457,-0.0470966822177171,0.0006079955492168,0.0014094337821006,-0.0016481893835589,still
1761509339681127200,0.0030790969180874,-0.0054166456207167,-0.0535305146574974,-0.0004449270199984,0.0018538795411586,0.0004822937771677,still
1761509339701284000,0.0036384478338994,-0.000369125573337,-0.0560743539214134,-0.0019620729144662,0.0012757694348692,0.001278089126572,still
1761509339721442000,-0.0032501700355205,0.0049189343648031,-0.057568976393342,-0.0012298328801989,0.0001516602933406,-0.0010653511853888,still
1761509339741599000,0.0075255640660878,0.0046044798544608,-0.0646007747262716,0.0016918459441512,-0.0015658177435398,0.0015740543603897,still
1761509339761757200,0.0058668644730933,-0.0075397569882217,-0.0620557664185762,0.002021468244493,-0.0012291418388485,0.0005209022201597,still
1761509339781915000,-0.0033669465492945,0.0041594029680825,-0.0610083031922578,-0.0011792469304054,-0.0011013410985469,0.0016039973124861,still
1761509339802072000,0.0077535915351472,0.01237365255123,-0.0479904161870479,-0.000449473503977,-0.0006884960457682,0.0024405869189649,still
1761509339822230000,-0.0036527320875786,-0.0023556323485914,-0.0640004707455635,0.0004955942276865,0.0004168851301074,-0.0011199689470231,still
1761509339842387000,-0.0010372249600943,0.0042119186066091,-0.0526262592941522,0.0018608589889481,0.0013033626601099,-0.0003910791128873,still
1761509339862545000,-0.001565998074552,-0.0005932440522592,-0.0539724132061004,-0.0006400577258318,-0.0002247877418994,-0.0006561070913448,still
1761509339882702000,-0.0003632712212856,-0.0038404001467861,-0.0643020840406417,-0.001487833680585,0.0007377862930297,0.0008956606034189,still
