time,ax,ay,az,gx,gy,gz,activity_type
1761432101985260500,0.0406553971238434,1.3812424687251448,-0.7798901480078697,-0.2786777019500732,1.0974857807159424,1.9360235929489136,walking
1761432102005202200,0.0471558285264298,1.2959689083263275,-0.5831143609762192,-0.084833912551403,0.9526967406272888,1.9460504055023196,walking
1761432102025144300,-0.2229550611659884,0.9511085921958088,-0.3917436478585004,-0.0536245331168174,0.8894287943840027,1.90535306930542,walking
1761432102045086500,-0.7294043348085135,0.7786854483932256,-0.126046300292015,-0.2351861894130706,0.9245141744613647,1.7099461555480957,walking
1761432102065028400,-0.4899349958889186,0.706719697856903,0.1062134725749492,-0.4932272434234619,0.95632803440094,1.5540361404418943,walking
1761432102084970500,-0.1464912685580551,0.7726733484968542,-0.0464841032773256,-0.652341365814209,0.8748946189880371,1.5044970512390137,walking
1761432102104912400,-0.0040546091530472,0.6419567183062433,-0.8640905262172222,-0.5749516487121582,0.9096167087554932,1.5981203317642212,walking
1761432102124854300,-0.4399746678683907,0.4881035426780581,-1.1428951926380395,-0.3628838062286377,0.9130221009254456,1.7122372388839722,walking
1761432102144796400,-0.9038414487820118,0.2780278368294239,-1.137489534202218,-0.1228499338030815,0.8633853197097778,1.7347122430801392,walking
1761432102164738300,-1.544688671476394,0.2710951149567961,-0.5407897154659033,-0.0685659572482109,0.8175823092460632,1.6007399559020996,walking
1761432102184680400,-1.5099138568237422,0.2234863915637135,-0.030748189485073,-0.1831683665513992,0.8347510099411011,1.4380935430526731,walking
1761432102204622300,-1.1545330234616995,0.1821165625602006,0.3925806832045316,-0.3976093232631683,0.8960762619972229,1.4138948917388916,walking
1761432102224564200,-1.185278290337324,0.3744955759376287,0.3344792073696851,-0.5035766363143921,0.6782379746437073,1.3994797468185425,walking
1761432102244506400,-1.0495019656043498,0.0789192229360341,-0.3390905005574226,-0.2922637462615967,0.3028081655502319,1.3238377571105957,walking
1761432102264448500,-1.3780898499131202,0.0922752558544278,-0.530353661647439,0.029646024107933,-0.0202077776193618,1.2305458784103394,walking
1761432102284390400,-1.5285324864454566,0.0472901589632034,-0.4535919090062379,0.171344369649887,-0.1530661433935165,1.0442670583724976,walking
1761432102304332300,-1.511273308608681,-0.0158975340947508,-0.1558411345750093,0.0418483614921569,-0.0410323664546012,0.8826869130134583,walking
1761432102324274200,-1.564363239891827,0.6761103323206306,-0.0661924278318882,-0.1342252790927887,-0.0117332236841321,0.75258469581604,walking
1761432102344216300,-1.0787849048424512,0.8875736931353807,-0.5817004025250673,-0.1283045411109924,-0.1179684698581695,0.7572720050811768,walking
1761432102364158500,-0.8293240410014987,0.654721507333219,-0.9556202244013547,0.0150745548307895,-0.0275227651000022,0.869594395160675,walking
1761432102384100400,-1.057703611434251,0.3810495276257395,-0.635827129510045,0.0485503934323787,0.2212362289428711,0.9441355466842652,walking
1761432102404042500,-1.4961907441586255,0.2735425081089139,-0.1187654956340789,-0.0240179654210805,0.339855432510376,0.8960981369018555,walking
1761432102423984400,-1.842097646732628,0.2667527018383145,-0.0891144537359476,-0.0395615957677364,0.1415938436985016,0.6744065880775452,walking
1761432102443926300,-1.5756268305756151,0.1664706651389598,-0.3311713979959487,0.1051626428961753,-0.0327999740839004,0.4933261275291443,walking
1761432102463868400,-1.1405988983944058,0.0039992987692356,0.0577893411457538,0.1680261343717575,0.0189311131834983,0.4728743731975555,walking
1761432102483810300,-1.085579460353404,-0.212314132425189,0.8073486482977866,-0.017832638695836,0.2275737971067428,0.5050988793373108,walking
1761432102503752400,-1.338733114297688,-0.5347171175539494,1.0836591598153114,-0.2867215871810913,0.3489004373550415,0.4600898027420044,walking
1761432102523694300,-1.3033639870136975,-0.7587839393541217,0.691290658056736,-0.3633862733840942,0.2966554760932922,0.3733736872673034,walking
1761432102543636200,-1.1943946398593486,-0.8454808105543256,0.5161334131151437,-0.2472804933786392,0.1450071334838867,0.3099721074104309,walking
1761432102563578400,-1.276255323074758,-0.9120596073552966,0.7767781534671783,-0.1523761004209518,0.0218640528619289,0.2348612695932388,walking
1761432102583520500,-1.0762228723347187,-1.195838262796402,1.24491004447937,-0.2404328435659408,0.0630920454859733,0.2013897150754928,walking
1761432102603462400,-0.9077652711622416,-1.2609817660972475,1.5311282020270824,-0.4108894765377044,0.1142630279064178,0.1966191530227661,walking
1761432102623404300,-0.7637683036379516,-1.1682631503894925,1.5038257690817116,-0.50129234790802,0.0084149483591318,0.1912561208009719,walking
1761432102643346400,-0.6950580477662384,-1.0127399957224723,1.1645856309205294,-0.454865425825119,-0.2034435719251632,0.1955919414758682,walking
1761432102663288300,-0.796172882027924,-1.0511293476104735,0.8014286105990409,-0.3699577748775482,-0.3020040690898895,0.1985732465982437,walking
1761432102683229700,-1.0051504173763095,-1.2572495938315986,0.3838204536437988,-0.3380480408668518,-0.2191155850887298,0.1769555658102035,walking
1761432102703171800,-0.954899070519954,-1.33590373609066,0.1747434034436941,-0.3048241734504699,-0.0713499560952186,0.1804279237985611,walking
1761432102723113500,-1.0393510123375802,-1.2529805382102728,0.1050888524591922,-0.2181937247514724,-0.0801292732357978,0.1839188784360885,walking
1761432102743055600,-1.2802777104586365,-1.2427575426205992,-0.0474561631798744,-0.1107307597994804,-0.1479179710149765,0.1299924552440643,walking
1761432102762997500,-1.6011495404973626,-1.0957961723327636,-0.3182861974596977,-0.0043714293278753,-0.1095602437853813,-0.0233822669833898,walking
1761432102782939600,-1.3666018028236926,-0.8940621783718466,-0.3464817798525095,0.0335231125354766,-0.0844076797366142,-0.1782369911670684,walking
1761432102802881800,-0.7388096573397517,-0.6263926539495587,-0.513783050596714,0.0699428766965866,-0.0145822465419769,-0.2297544926404953,walking
1761432102822823400,-0.2724282084577716,-0.3050482379630208,-0.7379892808675765,0.1008086800575256,0.0101144099608063,-0.199630320072174,walking
1761432102842765600,-0.015170133135654,-0.0084475103497505,-1.2476841853678229,0.2155201137065887,-0.0763280764222145,-0.1462478190660476,walking
1761432102862707700,0.2778278390116058,-0.0765218064054846,-1.6931114926189184,0.3804465234279632,-0.1470637172460556,0.0049977069720625,walking
1761432102882649600,0.5144029360607266,-0.7581973716378212,-1.9020009112924336,0.5153192281723022,0.083289511501789,0.2671410739421844,walking
1761432102902591700,0.052083786447905,-0.7265574940100312,-1.2096452543526888,0.49814373254776,0.1895056366920471,0.3868631720542907,walking
1761432102922533600,-0.1560412419906817,-0.994585622611642,-0.7180138298094272,0.2735571265220642,0.1204274669289588,0.4424009621143341,walking
1761432102942475500,-0.3870979409445076,-1.3558160587847232,-0.9867249722391368,0.0997430086135864,0.2483820915222168,0.3187001943588257,walking
1761432102962417700,-0.2373425925565883,-1.2077803372636438,-0.7092851644307374,-0.0186530444771051,0.3663245141506195,0.1811618208885193,walking
1761432102982359600,-0.1679526838576421,-0.4995546187579631,-0.2625906137228012,-0.0835237279534339,0.2261288464069366,0.1334457695484161,walking
1761432103002301700,-0.4436939806524664,0.0568082211539149,-0.3245955267369746,-0.0999510958790779,0.0309925861656665,0.1065291240811348,walking
1761432103022243800,-0.2136423853542655,0.0030599720925092,-0.7872855189561844,-0.0219823755323886,-0.0285325553268194,0.0961651504039764,walking
1761432103042185500,0.361652789770998,-0.1996285461142659,-0.973428852814436,0.1881634145975113,-0.0902045965194702,0.1216525137424469,walking
1761432103062127600,0.37663784866333,0.0190966223970055,-0.2038251210212707,0.2175783365964889,-0.0288997497409582,0.1339485496282577,walking
1761432103082069800,0.2681816386628896,0.3187538149714469,0.5000689980208873,0.0602087453007698,0.0739503353834152,0.1381857395172119,walking
1761432103102011600,0.2498399262864142,0.6191741008728743,0.6624439182788133,-0.0864784270524978,0.0606197193264961,0.1606299132108688,walking
1761432103121953800,0.3820957487430423,0.6060644439309835,0.3903881415963173,-0.0811152309179306,-0.0047756996937096,0.2048984169960022,walking
1761432103141895400,0.3578209930557757,0.4797138999953865,0.1481856513857841,0.0205565225332975,-0.048586368560791,0.2426968365907669,walking
1761432103161837600,0.0496249037873931,0.470552103896439,0.3685036420464515,0.0547030791640281,-0.0846177712082862,0.2115613967180252,walking
1761432103181778700,-0.2225356849764473,0.5793854035809636,0.5548755239635705,0.0463298037648201,-0.1158530637621879,0.155050590634346,walking
1761432103201720800,-0.0731854102580808,0.492689701424539,0.7181102759212256,0.0956260487437248,-0.0767561793327331,0.1491714715957641,walking
1761432103221662500,-0.0329763138633221,0.3377016765475273,1.1740765128433703,0.0922459289431572,0.0882462561130523,0.2259998321533203,walking
1761432103241604600,-0.1581600973081774,0.0746913761079311,1.7842150743454694,-0.0056526702828705,0.2634724080562591,0.2978247702121734,walking
1761432103261546500,-0.5606065053636208,-0.0071139236584305,2.207790030750632,-0.1560296565294265,0.170378565788269,0.268418550491333,walking
1761432103281488600,-1.017282680653408,-0.0983089830607175,2.041395937979221,-0.2640669643878937,0.0303995385766029,0.1349674761295318,walking
1761432103301430800,-0.8660998202130198,-0.4033768025070429,1.6667618303537368,-0.3224951028823852,0.0435648187994957,-0.0022032144479453,walking
1761432103321372400,-0.5436905880065634,-0.6190092656999826,1.4596727391004565,-0.3617717921733856,0.1760279089212417,-0.0378503017127513,walking
1761432103341314600,-0.498931445358321,-0.8047899037256836,1.2403215476453304,-0.3863768279552459,0.2363672703504562,-0.0718361288309097,walking
1761432103361256700,-0.6798400203682482,-0.7431599615037441,0.7192267127305269,-0.2641416192054748,0.0791025310754776,-0.1289071440696716,walking
1761432103381198600,-0.6886384630475193,-0.8625526491254567,0.1775344954669475,-0.0088281892240047,-0.0990674570202827,-0.2392797321081161,walking
1761432103401140700,-0.2298333859702572,-1.0694979479938744,0.2515297060042619,0.1381742656230926,-0.0879119932651519,-0.2876520156860351,walking
1761432103421082600,0.4252875690093263,-1.384811559383571,0.7389233468472958,0.0501837357878685,0.02231927216053,-0.2154954373836517,walking
1761432103441024500,0.14423607350979,-1.3446551978230477,0.8823235175222158,-0.1396742016077041,0.1077509447932243,-0.1837136894464492,walking
1761432103460966700,-0.4056426285471767,-1.00703798468858,0.4642623561024666,-0.2577422559261322,-0.0065966704860329,-0.2759962081909179,walking
1761432103480908500,-0.3169563370954245,-0.8011550543546676,-0.6710363900572062,-0.1016517132520675,-0.2970266342163086,-0.4133868515491485,walking
1761432103500850700,0.1963786044076085,-0.4151972964212298,-1.4014420839279889,0.2178963720798492,-0.4236007332801819,-0.4234822690486908,walking
1761432103520792800,0.711711368664354,-0.1931017746940255,-1.392272104522586,0.4809698164463043,-0.37400683760643,-0.2548114955425262,walking
1761432103540734500,0.8563166773453355,-0.2373310847818851,-0.7694751369774341,0.551077127456665,-0.3244819045066833,-0.081083133816719,walking
1761432103560676600,0.9924576706722378,-0.9107935329422354,-0.1116787522435188,0.3742223680019378,-0.4023430347442627,0.0213315077126026,walking
1761432103580618500,0.4509445363026112,-0.6818386468395591,0.113405429905653,0.0679375082254409,-0.5281450152397156,-0.046820480376482,walking
1761432103600560600,0.2632069189902394,-0.3163581520065665,-0.1150344924122095,-0.2804891169071197,-0.5987020134925842,-0.0670933127403259,walking
1761432103620502800,-0.635940088365227,0.2137269218325614,-0.781222857916355,-0.6323554515838623,-0.5790793299674988,-0.1755335032939911,walking
1761432103640444400,-1.54118007883355,1.227585984712839,-2.018848590606451,-0.6820836663246155,-0.3665113449096679,-0.3586014807224273,walking
1761432103660386600,-0.6819668032638728,1.4376532149940728,-2.652652105334401,-0.3689802885055542,-0.1856187283992767,-0.3738557696342468,walking
1761432103680329200,0.3942281946832314,1.5605945350080728,-2.327990527623892,0.1168610379099845,-0.0379021428525447,-0.1264360249042511,walking
1761432103700271000,0.64697045481503,1.3905126936346293,-0.7723217585802078,0.2996849119663238,0.0384302251040935,0.1449454426765442,walking
1761432103720213200,0.4881252430532127,0.53741088668257,0.4892588501930237,0.1444264948368072,0.1468205899000167,0.2486262619495391,walking
1761432103740155100,0.0510042110502719,0.0463593078538775,1.168055352857709,-0.1664562076330185,0.2276804745197296,0.2088548243045807,walking
1761432103760097300,-0.4687739883080125,-0.0997352164715528,1.226849487131834,-0.4116216003894806,0.199956938624382,0.0402700416743755,walking
1761432103780039400,-0.3806309003548696,-0.0810448367878794,0.8025900555938482,-0.3760170042514801,0.0904636234045028,-0.1068393662571907,walking
1761432103799981300,-0.1625101457438431,0.0283949043571948,0.5789262616366148,-0.1747538149356842,-0.0565795861184597,-0.1498983949422836,walking
1761432103819923200,-0.2186474636325612,0.1555307534515857,0.8325532321810721,-0.046678252518177,-0.1125459447503089,-0.1629697531461715,walking
1761432103839865000,-0.0781851730404421,-0.0069680854469537,1.0544430022031068,-0.0755507573485374,-0.0164065528661012,-0.1410230696201324,walking
1761432103859807200,-0.0260995873610954,-0.2566796361133456,0.9143886348247529,-0.1071622148156166,0.1855713576078415,-0.0772302225232124,walking
1761432103879749400,-0.1682966201907955,-0.549048425245285,0.992384313175082,-0.0983806326985359,0.2001080065965652,-0.0689093917608261,walking
1761432103899690200,-0.4463575373059138,-0.8159989877432584,1.0145581510603427,-0.1172960326075553,0.0978080034255981,-0.1267526894807815,walking
1761432103919632100,-0.4651014738077297,-0.7492930574312806,0.7850514762938022,-0.0726953148841857,-0.1717878431081771,-0.2806169092655182,walking
1761432103939574300,0.0571553540911525,-0.7631704838752746,0.3145721453726291,-0.0365950241684913,-0.3692082166671753,-0.3175863623619079,walking
1761432103959516200,0.3736273417357355,-0.6320329979240894,-0.2839718399256468,0.0795243829488754,-0.1515327095985412,-0.1507889330387115,walking
1761432103979458300,-0.0626199305068235,-0.3908955065965652,-0.2222282081961631,0.1635774075984954,0.0436180159449577,-0.0139877730980515,walking
1761432103999400200,-0.299157974348031,-0.4406631615892052,0.2008586724311113,0.136717215180397,-0.0255037918686866,0.0584334097802639,walking
1761432104019342000,-0.6154268771685659,-0.4783893733933568,0.0452262121707201,0.0726723819971084,-0.2057546079158783,0.0082170367240905,walking
1761432104039284200,-0.5884759610746055,-0.2893263526961207,-0.6672732381314039,0.0462073311209678,-0.425629585981369,-0.0129405679181218,walking
1761432104059226400,-0.5193127007383853,-0.0410904275402426,-1.5706050568908452,0.1764420717954635,-0.5262454152107239,0.0214916840195655,walking
1761432104079168300,0.0246421642275527,-0.1265603872939944,-2.3376018210560083,0.4950486421585083,-0.3042693138122558,0.1811982840299606,walking
1761432104099110400,0.4581685327393934,-0.4415145177215338,-1.9509341612875464,0.7224396467208862,-0.0753337368369102,0.3886290788650512,walking
1761432104119052300,0.1655291465051472,-0.662922057184577,-0.8368389466762542,0.6700615882873535,-0.2123121321201324,0.3768978118896484,walking
1761432104138994200,0.7854769351642579,-1.2258315422609447,-0.7121843930035829,0.485259085893631,-0.4959070980548858,0.3274913728237152,walking
1761432104158936300,0.6387688820503652,-1.2757155171096324,-0.9342313994139432,0.2287551462650299,-0.4455160200595855,0.2113723456859588,walking
1761432104178878200,0.1044013816516846,-0.5107607801660895,-0.8111924642443656,-0.0729735866189003,-0.1056352406740188,0.00134257087484,walking
1761432104198820400,0.3372686188925057,0.6138713182896375,-0.2964092966943979,-0.3490632474422455,0.2197484970092773,-0.1133248656988143,walking
1761432104218762200,1.5205460177361965,1.0145718873247505,-0.1433066471725702,-0.4328509867191314,0.2417527586221695,0.0197380166500806,walking
1761432104238704000,2.244398344440758,0.8493515145078301,-0.6092173550039529,-0.227437674999237,0.1953746080398559,0.2847702503204345,walking
1761432104258646300,1.9481163273878397,0.7025926810547709,-0.4219049773663282,0.0278399996459484,0.1326320469379425,0.3930739760398865,walking
1761432104278588400,1.9414568694986405,0.3474199374854564,0.25058219602108,0.1328164488077163,0.0882330611348152,0.4447173476219177,walking
1761432104298530300,1.8225019887723028,0.1851812108278274,0.8243208258867263,0.1003937870264053,0.1045942455530166,0.4740305542945862,walking
1761432104318472200,1.7422051938727496,0.2671989843010902,1.1471423286885023,0.0304100234061479,0.1867675483226776,0.532958984375,walking
1761432104338414000,1.5879985286317764,0.2294084750890731,1.3923305567115545,-0.0323574841022491,0.3327870070934295,0.6105948686599731,walking
1761432104358356200,1.1911050967946648,0.2920227521732449,1.7907441838532685,-0.1092831566929817,0.3666118085384369,0.6195220947265625,walking
1761432104378298400,0.802150202871859,0.4940417005553841,1.7698638929098844,-0.1236044615507125,0.2638018429279327,0.5717764496803284,walking
1761432104398240300,0.613430296523869,0.4626853160440921,1.5922534095972776,-0.0727721378207206,0.1513195186853408,0.5327709317207336,walking
1761432104418182100,0.5386244271907955,0.2182531670853495,1.3617834427565336,-0.0145251480862498,0.1580465734004974,0.5128200650215149,walking
1761432104438124300,0.7554416431888937,-0.3112663818255066,1.3312754917681215,0.0031330545898526,0.2769373059272766,0.5298198461532593,walking
1761432104458066200,0.7254428107663988,-0.681842446231842,1.6829454879134893,-0.0964238569140434,0.3387415111064911,0.4864707291126251,walking
1761432104478007300,0.5598296392396092,-0.6808204097077251,1.6075602843225,-0.1938492059707641,0.2071163952350616,0.3617924451828003,walking
1761432104497949400,0.5862720943547785,-0.5068018134072423,1.0032517441481352,-0.1557371467351913,0.0315420441329479,0.2628833353519439,walking
1761432104517891000,0.6268078106217086,-0.2871189057797193,0.500685084092617,-0.0539325922727584,0.0464285537600517,0.2666114866733551,walking
1761432104537833200,0.7152392505295574,-0.3588990706160664,0.4051584252268075,0.0179282445460557,0.1237303242087364,0.3217165768146515,walking
1761432104557775400,0.5866401970148086,-0.7265124858245253,0.1707669010281562,0.0544048398733139,0.1071131452918052,0.3412334620952606,walking
1761432104577717200,0.3332207317411899,-1.109919097970426,-0.3004454203426838,0.0823127552866935,-0.0161703005433082,0.2479611933231353,walking
1761432104597659400,0.0267144769895821,-1.1644362855777144,-0.8477268359154463,0.1583959907293319,-0.0777585506439209,0.0753859281539917,walking
1761432104617601300,-0.1108958947701379,-0.7007528984069824,-0.8875696014821529,0.1881479173898697,-0.1057353466749191,-0.050423689186573,walking
1761432104637543200,-0.2503166769526899,-0.1265396367669105,-0.946147462657094,0.2091441601514816,-0.1554123908281326,-0.1120396703481674,walking
1761432104657485300,-0.2967176685238257,0.3227788327038288,-1.3816659548342227,0.3174686431884765,-0.2308754920959472,-0.1326008737087249,walking
1761432104677429800,0.3104678518589586,0.126022042633593,-1.9050263965934515,0.5419259667396545,-0.2610849142074585,-0.0009734873310662,walking
1761432104697371600,0.2524533967204392,-0.2236456737786531,-1.6232272245317696,0.6843607425689697,-0.185861274600029,0.122351087629795,walking
1761432104717313800,0.925282880739495,-1.2352619261682032,-0.8403706279337406,0.6056331992149353,-0.1698002815246582,0.2022933214902877,walking
1761432104737256000,0.2903439322408288,-1.1363158142477274,0.0040969139248132,0.3184559047222137,-0.1125120967626571,0.2238008975982666,walking
1761432104757197800,-0.949893590382859,-0.6015177404120564,0.8326929329127073,-0.286109060049057,-0.0407694168388843,0.0054505206644535,walking
1761432104777140000,-1.6534047745220362,0.4474529678598046,0.3964847049057483,-0.7740839719772339,-0.014767188578844,-0.3072174787521362,walking
1761432104797081600,-1.3351247145421803,1.56509418451488,-0.77966569160223,-0.6912702322006226,-0.0002465774305164,-0.4251917898654938,walking
1761432104817023700,0.0485264958251267,1.63424838476181,-1.3807728053867816,-0.2318315505981445,-0.1126655787229538,-0.2774734795093536,walking
1761432104836966000,0.7222842736702412,1.3754963262885809,-1.0371171888709068,0.2133985161781311,-0.0300611220300197,-0.004104658961296,walking
1761432104856907800,0.5988732903178781,0.8545078743577003,0.4290028266727924,0.2421221286058426,0.1535535454750061,0.167124941945076,walking
1761432104876850000,0.2842672426756471,0.3211740278556942,1.3110428510785102,-0.0126054259017109,0.2532193064689636,0.1267920732498169,walking
1761432104896791800,0.1417798759967088,0.1092778285816311,1.3273457511037587,-0.2667971849441528,0.1635232120752334,-0.0252081304788589,walking
1761432104916733700,0.1365098266392946,0.3345794528737664,0.7286977209091187,-0.3221139013767242,0.0615208856761455,-0.1140792146325111,walking
1761432104936675800,0.0840512520622462,0.5606064688310026,0.2055138047605753,-0.2212806493043899,-0.0296877641230821,-0.1127406805753707,walking
1761432104956617000,0.0575963027916848,0.6340890536710619,0.2292290268689394,-0.1233340352773666,-0.0080055519938468,-0.0614115521311759,walking
1761432104976558600,-0.010428016642481,0.3117734545648097,0.5647212106734514,-0.1812415421009063,0.1021943464875221,0.0066770995035767,walking
1761432104996500700,-0.3434232325321063,0.0150797879710793,0.7002402727097272,-0.2703801691532135,0.2225659787654876,0.0069657387211918,walking
1761432105016443000,-0.465569420113042,-0.1761532702416181,0.6888730755209922,-0.3024339377880096,0.2623267471790313,-0.0471667498350143,walking
1761432105036384800,-0.4532986982133239,-0.3120408733293414,0.6132406191706657,-0.2640272378921509,0.2294275611639022,-0.1223880723118782,walking
1761432105056327000,-0.2657300077270716,-0.2275292372137308,0.4924819038927555,-0.1278767734766006,0.0021918402053415,-0.1632057428359985,walking
1761432105076268800,0.0052614276595413,-0.2439808980599045,0.2540489953488111,0.0641544759273529,-0.1891733855009079,-0.1276800036430359,walking
1761432105096210700,0.2546737761836499,-0.4030763582557439,0.1696954724043607,0.2172617763280868,-0.1181602627038955,0.039647951722145,walking
1761432105116152800,0.0189713520495221,-0.654960284525156,0.5802636477202177,0.2290675044059753,0.0832645297050476,0.2288813292980194,walking
1761432105136094700,-0.5894710730591789,-0.9401897232964634,0.9927046311706303,0.1128850355744361,0.1233280524611473,0.278767317533493,walking
1761432105156036900,-0.9543394638758153,-1.3590513874441383,0.7767442511975765,-0.0256069041788578,-0.0026376936584711,0.1639347374439239,walking
1761432105175979000,-1.0784645137816666,-1.4103478594392538,0.1875660601377487,-0.1265339106321334,-0.1874465495347976,-0.0633891224861145,walking
1761432105195920600,-0.8588182849027216,-1.1017124106392264,-0.8508259709745645,-0.1036254689097404,-0.2418470829725265,-0.2494987100362777,walking
1761432105215862800,-0.404957240098901,-0.4374789785951375,-1.633650418868661,0.0797345861792564,-0.1401703804731369,-0.2268318384885788,walking
1761432105235804700,0.1151312673175707,-0.0262748434633016,-1.826457886791229,0.3238127529621124,-0.0208442639559507,-0.0630282610654831,walking
1761432105255746800,1.0801663492634892,-0.4408455324187874,-1.5715928988844154,0.5139630436897278,0.0821499601006507,0.2434303909540176,walking
1761432105275689000,0.6159903562702238,-0.4225391836166381,-0.7704957121968269,0.5274029970169067,0.1340974122285843,0.4251683056354522,walking
1761432105295630600,1.2129171156302094,-1.6226178604617714,-0.4837357028573751,0.4082598090171814,0.0095202922821044,0.5062215328216553,walking
1761432105315572700,0.0053447950940579,-1.1334370439410208,-0.4351438136458396,0.3080984354019165,-0.0664746910333633,0.3937453329563141,walking
1761432105335515000,-0.6795240132216364,-0.8412021103218197,-0.3343412602037191,0.0979261398315429,-0.0986708924174308,0.1290700435638427,walking
1761432105355456800,-0.7755030920300632,0.0695356007799506,-0.5916653317004442,-0.0145219536498188,-0.001528762280941,-0.1912375390529632,walking
1761432105375399000,0.6576972352083772,0.7556658073335886,-0.6689829646587372,0.1289294809103012,0.1172580197453498,-0.1804317831993103,walking
1761432105395339800,1.4655793327957392,1.3012106083720922,-0.0586117634445428,0.2889229655265808,0.0980887785553932,0.0104251531884074,walking
1761432105415281700,1.7043864814795553,1.2016411038562655,0.7149193709254265,0.2235488146543502,0.0122617501765489,0.2017476707696914,walking
1761432105435223800,1.2623922174170612,0.8320701248392463,0.931246246123314,-0.0315113998949527,-0.0146542470902204,0.2765098810195923,walking
1761432105455166000,0.8312539130855351,0.3551815113976597,0.5712082346051931,-0.2904163300991058,0.0777203515172004,0.2318656146526336,walking
1761432105475107600,0.8561422706265002,0.0116553664803504,0.0327092604249715,-0.414610356092453,0.2578416764736175,0.1659952700138092,walking
1761432105495049700,0.8288434178777039,0.1969970285668969,0.0512736756414175,-0.4349307715892792,0.347150981426239,0.1315323263406753,walking
1761432105514991900,0.6593282704763114,0.8002695036917924,0.2533756261318922,-0.3829903602600097,0.2439341694116592,0.109672725200653,walking
1761432105534933800,0.6612792584136128,1.1802663073942063,0.2389133855372667,-0.246909350156784,0.1920891106128692,0.1790163815021515,walking
1761432105554876000,0.7084156881198287,1.1430626581594348,0.3896130655705928,-0.0773216113448143,0.1977812945842743,0.3308450281620025,walking
1761432105574817800,0.6529368158735335,0.55101592592597,0.9337930079966784,-0.0356443598866462,0.3396987915039062,0.4797487556934356,walking
1761432105594759700,0.445362607984431,-0.2541150463223457,1.5395219363629815,-0.1514946818351745,0.4027488827705383,0.5242438316345215,walking
1761432105614701800,-0.2150721258964389,-0.5463245532393455,1.6751175707668065,-0.3303438127040863,0.3772896528244018,0.3744010925292969,walking
1761432105634643700,-0.3301136325713247,-0.693181586369872,0.9676654669821262,-0.3021820783615112,0.2484253346920013,0.0817745104432106,walking
1761432105654585900,0.5532413103578612,-0.4265048723772168,0.4000830216586589,0.0027714720927178,0.1170688942074775,0.008163115940988,walking
1761432105674525200,1.0909963708356023,-0.0330263635501265,0.864682062369585,0.2906331717967987,0.0871854946017265,0.1820517480373382,walking
1761432105694467300,1.068641038903594,-0.1871975190863013,1.7137667426347731,0.3101400732994079,0.0788889527320861,0.3839438259601593,walking
1761432105714409500,0.5165647902697325,-0.8715911111056804,1.9170465047329663,0.1126486659049987,0.0059442003257572,0.4055846929550171,walking
1761432105734351000,0.0752110891330987,-1.4370271920502184,1.2949550551086664,-0.1769390255212783,-0.132207915186882,0.223915234208107,walking
1761432105754293200,-0.2776171371366828,-1.4387135377019642,-0.0218599496304988,-0.3570782840251922,-0.2319530099630355,-0.0800123140215873,walking
1761432105774234400,-0.3346238400047645,-0.8218941832616925,-1.5088701929897068,-0.2694156169891357,-0.2774630784988403,-0.2629733979701996,walking
1761432105794176300,-0.390535002721101,-0.1915969230890274,-2.577826289191842,0.0842605456709861,-0.2633171379566192,-0.3914439976215362,walking
1761432105814118100,0.0730991019478067,0.5156397843793035,-2.5386457869261503,0.4902753531932831,-0.2703551054000854,-0.369062066078186,walking
1761432105834060300,1.0922080116476862,0.3915522169396281,-1.8465192625671625,0.730073094367981,-0.3251616358757019,-0.0876085385680198,walking
1761432105854002200,0.8455689272291957,-0.1316553723454475,-1.1625164234310388,0.7027435898780823,-0.2197755724191665,0.1407260745763778,walking
1761432105873944300,0.5967763180386275,-0.7016328961119055,-0.750327368915081,0.5016303658485413,0.0054499921388924,0.2288137823343277,walking
1761432105893886200,-0.0846633560786023,-0.5356161122202873,-0.3873743467330932,0.169288694858551,0.3693492114543915,0.2455209195613861,walking
1761432105913827000,-0.6576888327062129,-0.2500269002258777,-0.2323217321872711,-0.2044122666120529,0.6110062599182129,0.1339165866374969,walking
1761432105933769200,-1.818410481674969,0.0329261180460453,-0.3807937992990016,-0.3728360831737518,0.8631014227867126,-0.2080494910478592,walking
1761432105953711400,-2.2877122932493683,0.621099223716557,-0.8062789732396602,-0.1595638245344162,0.7484650015830994,-0.4440664649009704,walking
1761432105973653200,-0.9128616444531829,1.19062929597646,-0.0416629667311906,0.1153146475553512,0.1511499434709549,-0.3923856019973755,walking
1761432105993595400,-0.0217485936439363,1.2194488554865122,0.4044154979050159,0.2655054032802582,-0.3602045476436615,-0.3027350008487701,walking
1761432106013537300,0.4825686318393796,0.7024921432897449,0.7594979328423738,0.1113512516021728,-0.5332912802696228,-0.2342942953109741,walking
1761432106033479200,0.5593966546498239,0.3206996883422136,1.0540636474967002,-0.2386282384395599,-0.3640666604042053,-0.187715008854866,walking
1761432106053421300,0.3852207854283973,-0.0907844327747821,0.605737111672759,-0.4597406387329101,-0.0988363772630691,-0.2557685375213623,walking
1761432106073363200,0.1938576345626264,0.0417149891793727,-0.0216121123492717,-0.427654892206192,-0.0112543199211359,-0.3085169494152069,walking
1761432106093305300,0.6089202717535197,0.0840302823394537,-0.2760129898756742,-0.2398649007081985,-0.094702310860157,-0.2896300554275512,walking
1761432106113246200,0.6440677921760827,0.3185296508267521,-0.3948819458842277,-0.0039760265499353,-0.0690680891275405,-0.2099137008190155,walking
1761432106133188400,0.4366507110774517,0.5462669778332114,-0.1677823322594165,0.1233837977051734,0.0282162837684154,-0.1047290936112403,walking
1761432106153130200,0.1099659204436466,0.486093371899426,0.3890659530818462,0.187421828508377,0.0629766285419464,-0.0639835745096206,walking
1761432106173072400,-0.1118498162277974,0.0220607328996062,0.8853823205709457,0.1401623040437698,0.1851526796817779,-0.028799120336771,walking
1761432106193014300,-0.2816702119197696,-0.3722413672700524,1.4178250634521246,0.0105231348425149,0.2768595218658447,-0.0375901162624359,walking
1761432106212956200,-0.3357537573501467,-0.9685083475470544,1.7462381026506424,-0.1548982709646225,0.1923073530197143,-0.1329608857631683,walking
1761432106232898300,-0.2746139002000913,-1.1754717665940522,1.5010878685504196,-0.2033874839544296,-0.0982422605156898,-0.3589802086353302,walking
1761432106252840200,0.0540880709084449,-0.93048870575428,0.8224597081899643,-0.1246246024966239,-0.2289011776447296,-0.3875578045845032,walking
1761432106272782300,0.441330575989373,-0.4271151132300496,0.2402092705667018,-0.0105283521115779,-0.1261492818593979,-0.2566941082477569,walking
1761432106292725200,0.8055204099573194,-0.2537438749223947,-0.2601023040384054,0.1296368986368179,0.1281583905220031,-0.0072797588072717,walking
1761432106312667100,0.7360738026350736,-0.4525643195241689,0.0268710557907819,0.2304827123880386,0.3136299252510071,0.2668018639087677,walking
1761432106332609300,-0.2206892899247817,-0.7017956854581833,0.5903934120684862,0.1471170783042907,0.1821467280387878,0.2748219668865204,walking
1761432106352551200,-1.207968334116414,-0.686055387751758,0.2182365082114934,-0.0493974536657333,-0.1004689633846283,0.0342463925480842,walking
1761432106372493300,-0.8489540396228432,-0.7990732796445489,-1.0862141049951315,-0.1353166997432708,0.003928885795176,-0.1476729959249496,walking
1761432106392435200,0.7461866158485412,-1.193634030750394,-2.1075006875276565,0.0717951655387878,0.1938331574201584,-0.0112185943871736,walking
1761432106412377300,1.2750498928077518,-1.0846002400577068,-1.834104602152109,0.3578491508960724,0.3623110353946686,0.2387453317642212,walking
1761432106432319200,1.407724379067868,-1.7766446390911936,-0.3355664180845022,0.3170858919620514,0.2572831809520721,0.4427413046360016,walking
1761432106452261000,-0.2588231144154444,-1.4924474659770726,0.4196083908617496,0.0070901690050959,0.0856939554214477,0.3114710748195648,walking
1761432106472203300,-1.5712560681454837,-0.8241697269782423,0.5295727404028177,-0.398287683725357,-0.0428287982940673,-0.095636747777462,walking
1761432106492145400,-0.900885229324922,-0.0601940641999244,-0.1291635555297136,-0.5936219096183777,-0.0459882393479347,-0.3611452281475067,walking
1761432106512086300,0.4672057526106014,0.4648179441586136,-0.8651251299619674,-0.4064836800098419,-0.0234725456684827,-0.2255347073078155,walking
1761432106532028200,0.6205760766252875,0.8017834153860807,-0.7975988231778144,-0.1459283232688903,-0.0799591913819313,-0.0159276165068149,walking
1761432106551970300,0.0963527892253361,0.4983811910644173,-0.404937475952506,-0.1263248771429062,-0.250724196434021,-0.0753266811370849,walking
1761432106571912200,-0.008350922674057,0.481736637994647,-0.5421691871255636,-0.2557002604007721,-0.2899745404720306,-0.2495402097702026,walking
1761432106591854300,0.5456539605014026,0.6201832779154182,-0.9638865329653024,-0.3221084773540497,-0.1280195862054824,-0.2907844185829162,walking
1761432106611796200,1.216152225093916,0.8251356494009494,-1.0156839402198792,-0.2239611446857452,0.1642744839191436,-0.153757706284523,walking
1761432106631738000,1.3404700210928917,0.884173237042129,-0.1770686315208673,-0.1115829423069953,0.4232899844646454,0.0657217875123024,walking
1761432106651680300,0.6690756844434886,0.9256538329437376,1.0301549486428498,-0.1189901158213615,0.4886268079280853,0.1185626089572906,walking
1761432106671625000,0.161590985072311,1.0618053476646545,1.6936317171007391,-0.2332471758127212,0.1985713690519333,0.0168896354734897,walking
1761432106691566800,0.3761183548338711,0.7468412803649902,1.1637608705341815,-0.2649398744106293,-0.0655249208211898,-0.0772515013813972,walking
1761432106711509000,0.834300952631235,0.6372308588281274,0.4623164827316999,-0.142704501748085,-0.0279179904609918,0.0089580863714218,walking
1761432106731451100,1.2597503246061503,0.1470297593489289,0.4327314918071031,-0.0068573271855711,0.1192467287182807,0.1769993156194687,walking
1761432106751393000,0.9325308791063726,-0.2152750280573964,0.6616022067576647,0.0821793228387832,0.2626725435256958,0.2213345319032669,walking
1761432106771335000,0.2950839298421517,-0.1379080029994249,1.1533330000221729,0.0368045084178447,0.2112735509872436,0.0842965543270111,walking
1761432106791277000,0.2269840974863618,0.0597638560891151,1.0987725577950478,-0.0587286725640296,0.007099911570549,-0.1322711706161499,walking
1761432106811219000,0.8849787082061171,0.2230737191095948,0.2269891389876604,-0.0011619728757068,-0.0531264767050743,-0.1689877212047577,walking
1761432106831161000,1.5055574151799085,0.290842017956078,-0.1949053169846534,0.2032431662082672,0.0227923896163702,-0.0035232061054557,walking
1761432106851102200,1.6642749819740652,-0.0648562107920646,-0.0191962833791971,0.4198196530342102,0.120936594903469,0.1850880235433578,walking
1761432106871043800,0.9833296307124196,-0.3612447569593787,0.6878431479513645,0.3774502575397491,0.0999481305480003,0.2528675198554992,walking
1761432106890986000,-0.3341399289453401,-0.248562380631268,0.7504910350441932,0.1391851156949997,-0.1386350244283676,0.0377478972077369,walking
1761432106910928100,-0.8041572318453342,0.1286059216469526,-0.3532201481968164,0.0017821558285504,-0.2069752514362335,-0.2448815405368805,walking
1761432106930870000,-0.1513025412973016,0.6525429942503571,-1.3114204522192476,0.0643365681171417,-0.1282888650894165,-0.2462182790040969,walking
1761432106950812200,1.0456825534466654,0.2524032739683985,-2.001582398506999,0.3827323615550995,-0.0374922230839729,0.02600834146142,walking
1761432106970753800,0.9833522809356452,-0.1891065675780177,-1.5501888763278722,0.6639209389686584,-0.0567822009325027,0.3051156997680664,walking
1761432106990696000,-0.152236680342257,-0.5020402980938553,-0.3970394161790609,0.4990000426769256,-0.2464414834976196,0.2738170027732849,walking
1761432107010638000,-1.1534646635778247,-0.4697311429023742,0.1751058070152998,-0.0352378003299236,-0.3056247532367706,0.0408853739500045,walking
1761432107030580000,-1.136076525599137,-0.2383899461850523,-0.2326864738464355,-0.4957247674465179,-0.0667292401194572,-0.0680838227272033,walking
1761432107050522000,-1.231894203300774,0.40570407641083,-0.4890905078887939,-0.5764880776405334,0.1228264793753624,-0.0841307938098907,walking
1761432107070464000,-1.6581341411314905,1.079640571823716,-0.2108364610880613,-0.4789218306541443,-0.0139336008578538,-0.1342071443796157,walking
1761432107090406000,-1.5328731459982692,0.9770701319262384,-0.2158545815110206,-0.3680730164051056,-0.2412591278553009,-0.2703617215156555,walking
1761432107110348000,-0.9848188463568688,0.9900734058842062,-0.5170265625625848,-0.2532921135425567,-0.3132967948913574,-0.3587262034416199,walking
1761432107130290000,-0.2421094050996005,0.9994505982995032,-0.6609264994531869,-0.1153653189539909,-0.2255740910768509,-0.2976391017436981,walking
1761432107150232000,0.1631195828790776,0.9625739890620112,-0.49976563116014,0.0446286089718341,-0.0659226328134536,-0.1267070323228836,walking
1761432107170174000,0.1385560551119968,0.5916533490017056,0.0887140562415123,0.1349011659622192,0.0299400445073843,-0.0199743844568729,walking
1761432107190115000,-0.1188668736493214,0.2057499516040086,0.8584960672110319,0.0838327333331108,0.0337065905332565,-0.0349705889821052,walking
1761432107210057000,-0.6941228858079761,0.3118067723125219,1.3011889810621735,-0.1157172471284866,-0.0295989122241735,-0.1947637349367141,walking
1761432107229999000,-0.8204132239889353,0.6579390080749988,1.0835989540606736,-0.3278008103370666,-0.0868500918149948,-0.334359347820282,walking
1761432107249941000,-0.4380713915303349,0.8948565436199307,0.26831834371984,-0.3521570265293121,0.0349508188664913,-0.2750245630741119,walking
1761432107269883000,0.0772352610376197,0.5610267400696873,-0.1281137542158365,-0.1758070886135101,0.2835770547389984,-0.051604826003313,walking
1761432107289825000,-0.0261575372265651,-0.2008683170422911,0.2555938867032528,0.0621122941374778,0.3894377946853637,0.107063740491867,walking
1761432107309767000,-0.9694733201216906,-0.5214829574495554,1.3094926990270614,0.039406381547451,0.2129037529230117,0.0089011704549193,walking
1761432107329709000,-1.331858552353084,-0.7912190590128302,1.3564794911295175,-0.1457985788583755,-0.0235899221152067,-0.2727448046207428,walking
1761432107349651200,-0.4899572442533448,-0.7246911156162619,0.6849404122471809,-0.2480518072843551,-0.1571666300296783,-0.3752404749393463,walking
1761432107369592800,0.5825791581209748,-0.844430863109976,0.1765688653051853,-0.2692455351352691,-0.099215380847454,-0.1862143278121948,walking
1761432107389535000,0.8199211296230554,-0.7512367388449609,0.1336784026056528,-0.2089947164058685,-0.0244164317846298,0.1283678561449051,walking
1761432107409477000,0.0952342335241846,-0.8012586608596146,0.2400210545182227,-0.153828352689743,0.1032998189330101,0.3533568680286407,walking
1761432107429419000,-0.6796134450707584,-1.0594273664869367,0.1646329283177852,-0.1811819672584533,0.1330238282680511,0.3494768738746643,walking
1761432107449361200,-1.137184486841038,-1.062234678992629,-0.4367722916305065,-0.1065428778529167,0.0447357706725597,0.2459973692893982,walking
1761432107469302800,-1.512167480969429,-0.7817040655620395,-0.6064987436950207,0.0127830691635608,-0.1937886476516723,0.0454527512192726,walking
1761432107489245000,-1.29206722471267,-0.651525049379468,-1.0137193621486424,0.1727800071239471,-0.2815214097499847,-0.1828719675540924,walking
1761432107509186000,-0.5428451866909861,-0.3957736340269446,-1.2629957362681627,0.339155912399292,-0.0171531271189451,-0.3005126118659973,walking
1761432107529128200,0.6874816942278296,-0.0975432593852281,-1.102974101138115,0.5434938073158264,0.1779473572969436,-0.2470453828573227,walking
1761432107549069800,2.435732963331789,-0.5378349573135376,-0.5006745626986027,0.7149014472961426,0.0605705603957176,0.0937001183629036,walking
1761432107569012000,1.9260225690014656,-0.4751821017846465,0.434048419624567,0.5559093356132507,-0.1063397005200386,0.3513565957546234,walking
1761432107588953900,1.1336235794890672,-0.8240797106072306,0.5536491970390081,0.1342264860868454,-0.0874543637037277,0.4287795722484588,walking
1761432107608896000,0.2949666966706514,-0.4648664594754576,0.1471405262470245,-0.2211341708898544,-0.0478472560644149,0.3683010339736938,walking
1761432107628838100,-0.1713037478512153,0.0648363370478153,-0.4835521629840135,-0.3917820751667022,0.0588751956820488,0.3090579509735107,walking
1761432107648780000,-0.3486438532572239,0.4847366965934634,-0.7455307822883128,-0.3050931394100189,0.1616368591785431,0.2374728918075561,walking
1761432107668722000,-0.0848414799913298,0.8814911583513021,-0.3845096049517393,-0.099613256752491,-0.0242599733173847,0.2025106847286224,walking
1761432107688661000,0.1375183095620945,1.1034764977023004,0.0980628993451595,0.0274679940193891,-0.2904965281486511,0.2195487767457962,walking
1761432107708603000,0.4020941422853619,0.4881126027673482,0.1443032569944858,0.0166468489915132,-0.3043729960918426,0.2903605699539184,walking
1761432107728545000,0.3132006378237157,-0.082060151310265,0.0813075793772935,-0.0404449738562107,-0.097288079559803,0.2910549938678741,walking
1761432107748487000,0.4086303025884553,-0.1642284391701221,0.4272258801281452,-0.1304103136062622,0.0576400496065616,0.2742473185062408,walking
1761432107768429000,0.1160366003931499,0.3391173885643482,0.6864689369887114,-0.1733387261629104,0.0328629352152347,0.223147764801979,walking
1761432107788371200,-0.0523859111996367,0.8307876838132738,0.776808548605442,-0.1734526604413986,-0.032385841012001,0.1704336404800415,walking
1761432107808312000,0.054787227587169,1.099843255766481,0.7653028197288513,-0.1037337705492973,-0.0636824145913124,0.2182186096906662,walking
1761432107828254000,0.1169966775969602,0.8866901882991194,0.8543506379693746,0.0170408487319946,-0.0864132940769195,0.346996009349823,walking
1761432107848196000,-0.0546788809750229,0.2973421936303377,1.2960364206045865,0.0251288693398237,0.0064937439747154,0.4060119390487671,walking
1761432107868138000,-0.3553280071962624,-0.1507569631785154,1.5751771871119735,-0.084306314587593,0.0873295441269874,0.3552060723304748,walking
1761432107888080000,-0.6508736727986484,-0.2897404864549636,1.6943500945031642,-0.2456888854503631,-0.0157293044030666,0.193934828042984,walking
1761432107908022000,-0.3678496351171285,-0.5083342836715281,1.0865963823109863,-0.3244101107120514,-0.1373269408941269,0.0588400214910507,walking
1761432107927964000,0.0195700485950335,-0.5654555162973701,0.2767792980730533,-0.2997721433639526,-0.1706951111555099,0.062544085085392,walking
1761432107947906000,0.1015047468947246,-0.7653333609975874,-0.4894026425778865,-0.1783172041177749,-0.0953500643372535,0.1126064285635948,walking
1761432107967848000,-0.2843732055344619,-0.8092254019550978,-0.7325783617347479,-0.0429821535944938,-0.0205632336437702,0.1328655183315277,walking
1761432107987790000,-0.9025247401602564,-0.6997481052786111,-0.8373924889057874,0.1278688609600067,0.0932272374629974,0.0593897737562656,walking
1761432108007732000,-0.7144254499286413,-0.7122973518587649,-0.521881016856432,0.355865329504013,-0.0264161638915538,-0.0302270967513322,walking
1761432108027673900,-0.3832691764365881,-0.7570186832472682,0.0571674098551273,0.5315026044845581,-0.2360845655202865,-0.0443252250552177,walking
1761432108047616000,-0.6149081139914692,-0.7359978147894144,0.6685755529016256,0.4533473253250122,-0.390731930732727,-0.1243342161178588,walking
1761432108067558100,-1.0351271110322326,-0.5449433280140161,0.5726555108040571,0.174687385559082,-0.462309181690216,-0.3505444824695587,walking
1761432108087499000,-0.6427141125448048,0.0850765765219926,-0.630103491166234,0.0809462964534759,-0.4550221264362335,-0.4931830465793609,walking
1761432108107441000,0.1030798141917213,0.7798924860954284,-1.751218229150772,0.3500285148620605,-0.4077104330062866,-0.3616068065166473,walking
1761432108127383000,0.8168417221777141,0.3313502616941928,-1.7591349936246872,0.70457524061203,-0.3963411748409271,-0.0762884840369224,walking
1761432108147325000,0.7502272695414721,-0.5256269253864884,-0.938138928246498,0.796800971031189,-0.2914929986000061,0.0702205151319503,walking
1761432108167267000,0.3837283914461731,-1.176302956721187,-0.2671703427284956,0.5893737077713013,-0.1319170892238617,0.0925533846020698,walking
1761432108187209000,-0.638057299714908,-0.6724556092053652,0.4092950866401195,0.1523521542549133,0.039834588766098,-0.0862747877836227,walking
1761432108207150800,-1.5083566905096173,0.2328226674467325,0.9427525595217944,-0.4702623784542084,0.031974010169506,-0.3984460234642029,walking
1761432108227093000,-1.4760297074005009,1.2294321971014142,0.0214320796072483,-0.8221011757850647,0.2077732235193252,-0.598151683807373,walking
1761432108247035100,-0.5892492835346609,1.4080275997981428,-1.1559095725119113,-0.648681104183197,0.3941551148891449,-0.5320799946784973,walking
1761432108266977000,0.0884590950997546,1.4969976766273378,-1.1337690523743629,-0.2199790030717849,0.2860982716083526,-0.3636930286884308,walking
1761432108286919000,0.348272718389891,1.1123501245096326,-0.2352887652993202,0.0220341309905052,0.1090829148888588,-0.1836011111736297,walking
1761432108306860800,0.0300035085976123,0.3796715172708034,0.6564069762021303,-0.0968981236219406,0.1903584152460098,-0.1355106830596923,walking
1761432108326803000,-0.2597982065252959,-0.0043529345124959,0.9865729965478182,-0.3196544945240021,0.2979319095611572,-0.2116947919130325,walking
1761432108346745000,-0.4016689756758511,0.3141419372618198,0.7537778016299009,-0.358994722366333,0.2016465961933136,-0.305706262588501,walking
1761432108366686200,-0.3032310690058395,0.6210013163000345,0.522031823503971,-0.2580451667308807,-0.0134875513613224,-0.3197201192378998,walking
1761432108386627800,-0.3428594977021217,0.6153589264988899,0.3513467555403709,-0.1339066624641418,-0.0772760212421417,-0.3173503279685974,walking
1761432108406570000,-0.0159158369364216,0.5116989377990365,0.1640536671251058,0.0022470783442258,0.0059619210660457,-0.2377551198005676,walking
1761432108426512100,0.1337465176721103,0.2894444261178374,0.3364402783095836,0.1237024739384651,0.1487547904253006,-0.0730667784810066,walking
1761432108446454000,-0.2290070181487128,-0.1842071050986647,0.9890753347575664,0.1196593791246414,0.2147396951913833,-0.0036647848319262,walking
1761432108466396200,-0.7812097792390733,-0.5477095778569578,1.2498422401845457,0.0514479465782642,0.2897498905658722,-0.066647857427597,walking
1761432108486337800,-1.0483346023254096,-0.7272104049608111,1.5435709194928406,-0.113680675625801,0.2216722667217254,-0.2125081419944763,walking
1761432108506280000,-0.8104714564934372,-0.8517129829421639,1.1882833173722027,-0.2309595197439193,-0.0204667318612337,-0.3636647462844848,walking
1761432108526222000,-0.2394979256932623,-0.8825755925871431,0.325721315896511,-0.2027724981307983,-0.0769883915781974,-0.4262041449546814,walking
1761432108546164000,0.1468206649092026,-0.3960727631039917,-0.2101888108342886,-0.0496147871017456,0.04415138438344,-0.3158214390277862,walking
1761432108566106000,0.4673254700001329,-0.0148252286881208,-0.1353577339947223,0.1144642680883407,0.1024100333452224,-0.0830966830253601,walking
1761432108586048000,0.3591348886659368,-0.1788945317737758,0.1243891807347536,0.1812171339988708,0.0592939481139183,0.1509354561567306,walking
1761432108605990000,-0.5830253309858963,-0.4440034119278192,0.1251864685922861,0.0933667048811912,0.0053916973993182,0.1709218770265579,walking
1761432108625931000,-1.195668239991739,-0.5014052150607109,-0.6952730056911707,0.0392546951770782,-0.1308424025774002,0.0229887794703245,walking
1761432108645873200,-0.8287370348937809,-0.3254895529672503,-1.6721628126144408,0.2061075419187545,-0.1117344498634338,-0.0577769726514816,walking
1761432108665815000,0.3046482240610755,-0.5040270879969001,-1.8000836746066808,0.4824943840503692,-0.0032370758708566,0.0373066738247871,walking
1761432108685757400,1.1238359065767376,-0.6424322268635034,-0.7724994532346725,0.6487229466438293,0.0706303641200065,0.2059319764375686,walking
1761432108705699300,1.379237412513047,-0.9563771802484988,0.5437906508475542,0.4917592704296112,-0.0522565208375453,0.3550652861595154,walking
1761432108725641500,0.0636412820443511,-0.6078527886524796,1.0577806221932171,0.0431816391646862,-0.4258129298686981,0.2327632009983062,walking
1761432108745583600,-0.9922394978769123,-0.090243750026822,0.0158773680895566,-0.3960460722446441,-0.7875210046768188,-0.1246924102306366,walking
1761432108765525500,-1.1836025391448288,0.6168126324385405,-1.6187480332911013,-0.4691642224788666,-0.9842677712440492,-0.5421179533004761,walking
1761432108785467400,0.2823257897516712,1.017748763795197,-2.6439894909292456,-0.1493284851312637,-0.7396191954612732,-0.6408518552780151,walking
1761432108805409500,2.2682757713735104,1.2141478264689445,-2.134564051020145,0.1821575909852981,-0.2300184965133667,-0.188515692949295,walking
1761432108825351400,2.5311186062917117,1.3394050222098826,-0.4985287828415632,0.1718390882015228,-0.0031718218233436,0.3446458280086517,walking
1761432108845293600,1.7333723374672234,1.2092241063311695,0.547226470515132,-0.1434396505355835,-0.0489463433623313,0.597582995891571,walking
1761432108865235500,0.7175187397688627,0.5792264136269688,0.0174988318115472,-0.4419084787368774,0.0139091853052377,0.6386900544166565,walking
1761432108885176300,0.1665017909295857,0.1245899640038609,-1.0589081649184229,-0.356840968132019,0.20445416867733,0.5153031349182129,walking
1761432108905118500,0.3350341378387063,0.0911661255687475,-1.0172399374902248,-0.0264976732432842,0.2505058050155639,0.4113181531429291,walking
1761432108925060600,0.729566028176248,0.1566165028616785,0.1106605151116847,0.2037477195262909,0.1421225070953369,0.413615733385086,walking
1761432108945002500,0.5105578414725139,0.3251408856600523,1.0460697261333465,0.1667051464319229,-0.0395326279103755,0.3776880800724029,walking
1761432108964944600,0.3003507277965545,0.3837719383269548,1.2559288666218518,-0.0199456997215747,-0.090187981724739,0.3071892857551574,walking
1761432108984886500,0.4280457451436668,0.3621928514644503,0.954021557033062,-0.1759780496358871,0.0505493618547916,0.3497573733329773,walking
1761432109004828400,0.5051770617496222,0.1338143039450049,0.7012690312355756,-0.1919994950294494,0.1742269843816757,0.4563698172569275,walking
1761432109024770600,0.1781827302426099,-0.1507026026427745,0.6516805322021245,-0.1256541162729263,0.1937838643789291,0.4858253002166748,walking
1761432109044712400,-0.0348019949205219,-0.4355300364844501,0.6336930400907993,-0.0413109809160232,0.1646994054317474,0.4202896654605865,walking
1761432109064654600,-0.1054581972282379,-0.2809675435431301,0.7294412327527999,0.0365141592919826,-0.007561279926449,0.2983145117759704,walking
1761432109084596500,0.0755754654660821,-0.1435696820229292,0.5998059680581093,0.1516424566507339,-0.0626433119177818,0.2345367521047592,walking
1761432109104538400,0.70969082262218,-0.2161538567185401,0.8066969063907862,0.2702411413192749,0.0074822125025093,0.3102551996707916,walking
1761432109124480500,0.7231989042971283,-0.371348802344501,1.4346329903900623,0.2545101344585418,0.103227823972702,0.4090625941753387,walking
1761432109144421600,0.4109895425330847,-0.7293129301980137,1.7209674677938225,0.0088366083800792,0.2401443570852279,0.3931259512901306,walking
1761432109164363300,0.2090804112009704,-0.8495315472498536,1.134183478394151,-0.208674669265747,0.2109962254762649,0.2905693650245666,walking
1761432109184305400,0.1560699748948216,-0.7410735106185078,0.0084516020029783,-0.1163367852568626,0.0694919973611831,0.1533647924661636,walking
1761432109204247600,0.2497683954201638,-0.5452843965366483,-0.5438093555480241,0.1485282480716705,-0.1167668923735618,0.0672399550676345,walking
1761432109224189400,0.2102027662944048,-0.3081500033706426,-0.5288222142964601,0.3724398612976074,-0.2183598279953003,0.0186053477227687,walking
1761432109244131600,0.0714131581548601,-0.1776169130533933,-0.1945826609015464,0.3697008788585663,-0.2158024609088897,-0.029796615242958,walking
1761432109264073700,-0.2180281992230564,0.1568383289188146,-0.238532277265191,0.262830525636673,-0.261847972869873,-0.0869241058826446,walking
1761432109284015400,-0.3375936861284077,0.3272112621933221,-1.046913775742054,0.3631933927536011,-0.3823543488979339,-0.1026518791913986,walking
1761432109303957500,-0.0219037887722253,-0.1771153932720422,-1.6417022078990935,0.6844956278800964,-0.4262329339981079,-0.0442429706454277,walking
1761432109323899400,0.1212031711097806,-1.0435293940007686,-1.2416402290284634,0.9318615794181824,-0.3060661852359772,0.0275216475129127,walking
1761432109343841500,0.1318168465174734,-1.5284060835868118,0.1358522395133972,0.7136523127555847,-0.1799416989088058,-0.0203927848488092,walking
1761432109363782400,-0.7870018066439777,-0.9847910815671086,1.0782733751237392,0.0652435049414634,-0.1870294958353042,-0.2375257015228271,walking
1761432109383724500,-1.609069519841671,0.0686538495093584,0.369651643037796,-0.7022829651832581,-0.1779869049787521,-0.5547802448272705,walking
1761432109403666400,-1.2453849685147405,1.2688105600267647,-1.6096096180677413,-0.8477631211280823,-0.0302925817668437,-0.6281877160072327,walking
1761432109423608600,-0.0800442083779722,1.3643687830746174,-3.0260569634258747,-0.2892581224441528,0.2547165751457214,-0.3764160871505737,walking
1761432109443550500,0.0541157671995461,1.44009213257879,-2.0347890870600938,0.3494488894939422,0.4298320412635803,-0.0545956119894981,walking
1761432109463492400,-0.6204973123006522,1.050703231152892,0.2518552846968174,0.4794084727764129,0.3047971725463867,-0.0235719140619039,walking
1761432109483434500,-0.5396668489158153,0.5146247621178627,1.6432611277788876,0.1868690103292465,0.2219047397375106,-0.1486059576272964,walking
1761432109503376400,-0.1743394257526844,-0.1266910279363393,1.9423375978559252,-0.2494626343250274,0.3842305541038513,-0.2575372159481048,walking
1761432109523318500,0.3268440728487446,0.171509536089003,2.021522778251767,-0.5588473677635193,0.3672330379486084,-0.2712910175323486,walking
1761432109543260700,0.295571311500296,0.5629942407503724,1.6480705738872288,-0.7534441351890564,0.1613597422838211,-0.2181572467088699,walking
1761432109563202300,-0.2429440658254548,0.6488958699196576,0.6846428906053305,-0.7728138566017151,0.0135081242769956,-0.2074607461690902,walking
1761432109583144400,-0.506255175842531,0.5373670475408434,-0.7135001517772674,-0.454170823097229,-0.0460511222481727,-0.222546711564064,walking
1761432109603086600,-0.288921644352749,0.3325941242754459,-1.1059551627755164,0.0893013328313827,0.0586235448718071,-0.1408967822790146,walking
1761432109623027500,-0.3999349549574777,-0.1249655193179845,0.5202905327945947,0.2998881936073303,0.1269440352916717,-0.0914191976189613,walking
1761432109642969600,-0.9076720399208368,-0.2969935263231396,1.9491823491841556,0.0850845649838447,0.2150559723377227,-0.1880180537700653,walking
1761432109662911500,-1.037802394656092,-0.1266182549610734,2.454095864626765,-0.3421385288238525,0.1912007480859756,-0.3776033222675323,walking
1761432109682853400,-0.3983403792424127,0.0271276609003543,1.206768822133541,-0.4929088652133941,0.0177037063986063,-0.4397890567779541,walking
1761432109702795500,-0.0224046874990686,0.1364028591334819,-0.4367413119703531,-0.1985865086317062,-0.053591888397932,-0.3470037579536438,walking
1761432109722737700,-0.0217930584067478,0.0741477707505226,-1.01952424903512,0.2280808985233307,0.0482337921857833,-0.2056763023138046,walking
1761432109742679600,-0.1650367598783224,0.0332926132708787,-0.3556961829215287,0.5158613920211792,0.0719005540013313,-0.1246676295995712,walking
1761432109762621400,0.1554596792430616,-0.4672022089466452,0.6035509998053312,0.4897454082965851,-0.0377833470702171,-0.1165831610560417,walking
1761432109782563300,0.1744072668245062,-0.5056058816209436,0.784468123447895,0.2639344334602356,-0.0296472702175378,-0.1217100918292999,walking
1761432109802505500,-0.0652688649798743,-0.383885335573554,0.4347457542389631,-0.053906001150608,0.0841740444302558,-0.1327857673168182,walking
1761432109822447600,-0.2069634921122342,-0.3200678201794624,-0.6756243023693561,-0.1769123673439026,0.1534648090600967,-0.1355838030576706,walking
1761432109842388500,-0.2937888302640058,-0.1406467803135514,-2.0575147136092187,0.0936040431261062,0.1485543549060821,-0.1084598749876022,walking
1761432109862330400,0.4371257812432944,-0.5418418548673392,-2.718804201155901,0.618346631526947,0.2163046449422836,0.0060573862865567,walking
1761432109882272500,1.0353162769287825,-0.963055635099113,-1.1531214030981063,0.8928906321525574,0.1543262302875518,0.1588825732469558,walking
1761432109902214400,0.8209408280596137,-1.0075412580356,0.7086106261700391,0.5895130038261414,-0.0842455551028251,0.2125876396894455,walking
1761432109922155300,0.6798007112711668,-1.1958709960222245,1.0423474907398222,0.1574121266603469,-0.5457538962364197,0.0468598641455173,walking
1761432109942097400,-0.1960615743476897,-0.6651753890693187,0.1242313598245382,0.0795215889811515,-0.8203754425048828,-0.2361044287681579,walking
1761432109962039600,-0.3431445982538163,0.3496551491916179,-1.345693308699131,0.3287154138088226,-0.7521685361862183,-0.3438948094844818,walking
1761432109981981400,0.5103718173811211,0.6977773897275328,-2.0349106676131488,0.6880261898040771,-0.3538897633552551,-0.1195619627833366,walking
1761432110001923600,1.7759258232973516,0.7227393970265984,-0.4265589406520128,0.529870331287384,-0.2460922747850418,0.2208058536052703,walking
1761432110021864400,1.8284337169088425,0.131346744787693,1.1635083570778368,0.0573451854288578,-0.4017269313335418,0.3196977972984314,walking
1761432110041806300,1.228326573947072,-0.6230924433603883,0.7472504456877708,-0.2826249301433563,-0.3910563886165619,0.2569548189640045,walking
1761432110061748500,0.8999909108337014,-1.1875485733568667,-0.7401280464619397,-0.3804614841938019,-0.0906867161393165,0.1368004381656646,walking
1761432110081690600,1.0807687721360475,-1.0432783418491482,-1.4338140752226114,-0.2661718130111694,0.2205617576837539,0.1827559620141983,walking
1761432110101632500,1.4192556807771324,-0.3890311740294098,-0.6999532724618911,-0.2062132209539413,0.2228510677814483,0.2887977659702301,walking
1761432110121574400,0.8627853619027882,-0.1105930028334259,0.8570745099753141,-0.3810089826583862,0.1734142005443573,0.2636454403400421,walking
1761432110141516500,-0.1291902974061667,0.2477873046055436,1.7790818031102418,-0.6905112266540527,0.0555249936878681,0.1121054962277412,walking
1761432110161458400,-0.2117887933768331,0.521431227262318,1.4127262790083883,-0.6428657174110413,-0.0440377406775951,0.0808548182249069,walking
1761432110181400600,0.4911098848871886,0.7139043486639857,0.0501198294311761,-0.1683956831693649,0.0193691812455654,0.3007318377494812,walking
1761432110201342500,1.058373546585068,0.6450897556349635,-0.0383954893678426,0.3753253519535064,0.1607474982738495,0.6075432300567627,walking
1761432110221284400,0.830904515125975,-0.0099009240284562,1.4043728766828774,0.5488424301147461,0.3632619678974151,0.7620084881782532,walking
1761432110241225500,-0.5712425022009759,-0.39383331361413,3.314792656752467,0.1769795417785644,0.4616099596023559,0.5337809324264526,walking
1761432110261167600,-1.5405015950500964,-0.4770733223587274,4.353876177260279,-0.4648709893226623,-0.1130439788103103,-0.0246963705867528,walking
1761432110281110500,-0.1245019934594631,0.0654123833701014,1.87255912823081,-0.6300258040428162,-0.6078317761421204,-0.3147411346435547,walking
1761432110301052700,1.1296617631860078,0.4294648912265896,0.1037210712373256,-0.4003344774246216,-0.654550313949585,-0.15087890625,walking
1761432110320994600,1.516454656769335,0.1932175100281834,-0.7405693604886532,-0.0517565459012985,-0.1534719616174698,0.1509556621313095,walking
1761432110340936400,0.851406985732913,-0.2192316567286849,0.2395680500537157,0.051309484988451,0.1281253099441528,0.2507163882255554,walking
1761432110360878600,0.1173326132867485,-0.5053805484324694,1.0056664040744303,-0.1742541491985321,0.2396805137395858,0.1470866501331329,walking
1761432110380820500,-0.0907294146519154,-0.4530588250428438,0.9644026657938956,-0.4313820302486419,0.2008726745843887,0.0272105485200881,walking
1761432110400762600,0.0995708196900784,-0.4572890099585056,0.3235813812583685,-0.491135686635971,0.2341689169406891,-0.032851692289114,walking
1761432110420704500,0.4254598933689296,-0.2877931517794728,0.1093839193046092,-0.3855257034301758,0.219121053814888,-0.0224418491125106,walking
1761432110440646400,-0.3319135216001421,0.2606058696463704,-0.0095545948088169,-0.3034528791904449,0.1152112632989883,-0.0562564432621002,walking
1761432110460588500,-0.7985902453679591,0.6737172997042536,-0.6483622014343738,-0.257615715265274,-0.1931135654449463,-0.2414636313915252,walking
1761432110480529700,0.2476712039452046,0.1140207853250205,-1.98554136428833,-0.0870571434497833,-0.4427185654640198,-0.2937272489070892,walking
1761432110500471600,0.9829781138610094,-0.047069940341264,-2.401837854123116,0.069502018392086,-0.379401832818985,-0.1110545769333839,walking
1761432110520413400,0.7259804978396743,-0.3658506433196365,-1.829432518687844,-0.0162743907421827,-0.0538126453757286,0.1380320787429809,walking
1761432110540355300,-0.6966304847147315,-0.7741871140606701,-1.2823013252407311,-0.3039062619209289,0.3981411159038543,0.1286949813365936,walking
1761432110560297500,-1.987625330955535,-0.3596570493765175,-1.1015940449565649,-0.399263322353363,0.5917033553123474,-0.1128918901085853,walking
1761432110580239600,-2.3473870097503067,0.7516229616835713,-0.7298474754661322,-0.3862474262714386,0.2101090997457504,-0.3216124475002289,walking
1761432110600181500,-1.8289771761357785,1.286335695323348,-1.0505769744247198,-0.3020881414413452,-0.2984188199043274,-0.484399139881134,walking
1761432110620123400,-0.7054401794403791,1.1469586426846683,-2.055576439023018,-0.1315295249223709,-0.3757577836513519,-0.4381960332393646,walking
1761432110640065500,-0.4308842565052211,1.0310932524062693,-2.4868279214054345,0.1129330992698669,0.0241171158850193,-0.3137350976467132,walking
1761432110660007400,-0.3483745347965508,0.8318851236611604,-1.4649369432389736,0.2120534628629684,0.5104405283927917,-0.1904890984296798,walking
1761432110679948500,-0.4108149166185408,0.6796509275369346,-0.0196522104531526,0.1525222510099411,0.5587078928947449,-0.2140006870031356,walking
1761432110699889700,-0.5888776737432927,0.963307271772623,0.8856827648222446,-0.0085213184356689,0.1550981551408767,-0.3357065320014953,walking
1761432110719831800,-0.4791770531723275,1.3233733403414487,0.8590472713530063,-0.1486075967550277,-0.4570966958999634,-0.4921963810920715,walking
1761432110739773400,-0.1903839671026915,1.5181116301961242,-0.1272521689504385,-0.1162938997149467,-0.7377575635910034,-0.4622075855731964,walking
1761432110759715600,-0.1399809368159622,1.1537854199647903,-0.8373603402018547,0.0906114429235458,-0.4997465014457702,-0.433220624923706,walking
1761432110779657700,0.2824760484099388,0.9185681124664844,-0.4368693222641944,0.2446501851081848,0.1413193047046661,-0.2414260804653167,walking
1761432110799599600,0.5180975527949631,0.5946836566083132,0.6574784048259258,0.2130307406187057,0.5969353914260864,0.061205830425024,walking
1761432110819541800,-0.3475252244908362,0.1773873420812189,1.5273369930505751,0.0257664658129215,0.6394310593605042,0.0271499715745449,walking
1761432110839483600,-1.1217491634305563,-0.0210591546416282,1.8527987812280653,-0.291858822107315,0.2145611941814422,-0.2849584817886352,walking
1761432110859425500,-0.9773186998598276,-0.3234964794538915,0.9329004430711269,-0.5188819766044617,-0.0828714966773986,-0.5670360922813416,walking
1761432110879367700,-0.336598099219799,-0.3204422064498067,-0.119988899949193,-0.5560901761054993,0.0484029650688171,-0.6128104329109192,walking
1761432110899308800,0.0730464949777349,-0.2004940769024193,-0.823877758294344,-0.3108915984630584,0.3866364657878876,-0.5045284628868103,walking
1761432110919250700,0.0860549383011646,-0.1561253583438694,-0.2756546779572963,-0.0462911948561668,0.6013966202735901,-0.3219935297966003,walking
1761432110939192600,0.0811967942128889,-0.3343601110346615,0.6454372538983821,-0.0196424629539251,0.4771667122840881,-0.178316593170166,walking
1761432110959134500,0.2697510068714618,-0.7402217160947621,0.6212444774061441,-0.0562309324741363,0.176959291100502,-0.0941873788833618,walking
1761432110979076600,0.1874901453573256,-1.075471907836944,0.0520990205496549,-0.0768443346023559,-0.1370236724615097,-0.0221027955412864,walking
1761432110999018800,-0.059877490797732,-0.8738955886557698,-0.4676905769854784,-0.0413520261645317,-0.4121717512607574,0.0314960293471813,walking
1761432111018960600,-0.3422942650347947,-0.6629714492842554,-1.134641743555665,-0.0058276392519474,-0.6146335005760193,0.1138048022985458,walking
1761432111038902500,-0.3493033766118809,-0.7352716924719512,-2.488056001895666,0.2373842149972915,-0.2879678308963775,0.1482621133327484,walking
1761432111058844700,0.5018306008659303,-1.3719165681056678,-3.066299541965127,0.6126633286476135,0.1633820682764053,0.2942714989185333,walking
1761432111078786600,0.1635243094887584,-0.9147427089594304,-2.110062062448263,0.8208903074264526,0.3953926861286163,0.3857911229133606,walking
1761432111098727700,0.5498508276693522,-1.458278800524026,-0.618089228245616,0.5467419028282166,0.4564897119998932,0.3546388745307922,walking
1761432111118669600,0.2727379137277603,-1.1814381276525556,0.3523135547459125,0.0499599538743495,0.3162040114402771,0.2100212574005127,walking
1761432111138611500,-0.1595807046958245,-0.2329547693938016,-0.0483043044418096,-0.1474283188581466,0.0111536849290132,0.0508586056530475,walking
1761432111158553600,-0.3355712769227102,0.7579271763943135,-0.7089531559973955,0.0083929998800158,-0.1098959371447563,-0.0996844694018364,walking
1761432111178495700,0.6922714127223938,0.8889496576637029,-0.5970657294392585,0.2013522982597351,0.1570663303136825,0.0122189261019229,walking
1761432111198437600,0.969213865467906,1.086334954895824,0.5398848755806684,0.1620368063449859,0.4026142954826355,0.2847040295600891,walking
1761432111218379800,0.7408381674926727,0.9378189025118948,1.2205465875953436,-0.0412055514752864,0.2391617894172668,0.3958585560321808,walking
1761432111238321700,0.5993752484906465,0.5714128172665834,0.6281330678761005,-0.0222778841853141,-0.083717443048954,0.3739015161991119,walking
1761432111258263600,0.4384165517061948,0.1609974944248795,-0.0221311677873134,0.1755296736955642,-0.1891231685876846,0.3372907042503357,walking
1761432111278205700,0.2680471803619526,-0.0668406626075506,0.2233341236114502,0.2546232342720032,-0.0621647387742996,0.2780888378620147,walking
1761432111298146800,0.0951928786004893,0.0538344660401344,1.1452958240389823,0.0626663938164711,0.0354344621300697,0.1825686246156692,walking
1761432111318088400,-0.1079821627479046,0.6177861536458135,1.3221049278408288,-0.1966854035854339,-0.0738699734210968,0.067117266356945,walking
1761432111338030600,0.0209157823818735,1.0950666890144347,0.3636398354023695,-0.1451747119426727,-0.1616137325763702,0.0472229532897472,walking
1761432111357972700,0.4282453593689948,1.0604261682659386,-0.1007528690814971,0.1674829423427581,-0.1050352677702903,0.2048262655735016,walking
1761432111377914600,0.6181276605598628,0.6127656951352953,0.5159568875044585,0.3470354676246643,0.1127089858055114,0.408608078956604,walking
1761432111397856800,0.311062383686006,0.5105941914275288,1.0974275729268788,0.2666581273078918,0.3168952465057373,0.5556113123893738,walking
1761432111417798400,-0.3552819030322134,0.5467249507337808,1.0942220548838375,0.1127825602889061,0.3935944736003876,0.5284967422485352,walking
1761432111437740500,-0.7821781128145754,0.2508499070465564,1.1418190878391266,-0.0372225269675254,0.265815258026123,0.2414796203374862,walking
1761432111457682700,-0.3633547348506748,0.0732540367811918,1.0706827738642692,-0.1903019994497299,0.1838696300983429,-0.0049090725369751,walking
1761432111477623800,0.2285328978309407,0.185258367717266,0.8943120614796877,-0.2606469094753265,0.1935254037380218,-0.0656301751732826,walking
1761432111497565400,0.6600047814983874,0.3502037229850888,0.3557020281404257,-0.1245674788951873,0.1396902650594711,-0.0095681278035044,walking
1761432111517507600,0.4854298664893954,0.4301172176554799,0.0837982271492481,0.1864210218191146,0.037302728742361,0.0800223499536514,walking
1761432111537449500,-0.1530001207291148,0.1916290717929601,0.6187625974625348,0.2950933873653412,-0.1648332476615905,-0.0348549373447895,walking
1761432111557391600,-0.1730576057812199,0.0535305146574974,0.7579904508888721,0.1496229469776153,-0.2872531116008758,-0.1695109456777572,walking
1761432111577333800,-0.1160583281677681,0.2018862619131803,0.0879728824853897,0.0278438217937946,-0.1895852982997894,-0.1734645813703537,walking
1761432111597275600,-0.0089485734733752,0.3408271150916814,-0.8808090213060379,0.2020169794559478,-0.0506460480391979,-0.1831320077180862,walking
1761432111617217500,0.098490056982357,0.4966179807841777,-0.7692413282215594,0.5014424920082092,-0.1017699018120765,-0.1625660359859466,walking
1761432111637159700,-0.6046783964000642,0.8162573464184999,0.3111269733548164,0.453581690788269,-0.2353806048631668,-0.228725329041481,walking
1761432111657100800,-0.217920281869173,0.3790606918960809,0.4901689507752657,0.1253352165222168,-0.2101858407258987,-0.2559731602668762,walking
1761432111677043200,0.4166125335140153,-0.1648705364659428,-0.318197934654355,0.0242829881608486,0.1453010141849517,-0.0747133120894432,walking
1761432111696985000,0.6382809524029492,-0.6871119110673666,-0.6649146923065186,-0.0230313148349523,0.0333180092275142,0.00655815936625,walking
1761432111716927000,-0.8622623609419912,-0.1731397676393389,-0.2762093892306089,-0.2356616854667663,-0.158665046095848,-0.0765408501029014,walking
1761432111736869000,-1.7036133051499724,0.1139195169076323,-0.5682692585438489,-0.4699882268905639,-0.3694285154342651,-0.361521303653717,walking
1761505873622773000,-0.0068218819092959,-0.6719049895852803,0.2863315547943115,-0.2051385790109634,0.1281867325305938,-0.0777255743741989,walking
1761505873642929200,0.0836116185359656,-0.6592611965894699,0.3349696212351322,-0.1805803626775741,0.1296929568052292,-0.0503680743277072,walking
1761505873663085000,0.1831423984766006,-0.634874066568911,0.3873398599416017,-0.1286759972572326,0.1161413192749023,-0.038329929113388,walking
1761505873683241200,0.1723847845535725,-0.6573015869542956,0.3300964622408151,-0.1207475960254669,0.0815509185194969,-0.009875738993287,walking
1761505873703397000,0.2690755187626928,-0.6611341508544981,0.2779670465528965,-0.1291313767433166,0.0961629599332809,0.0037078165914863,walking
1761505873723554000,0.0981059347692877,-0.6462270891018211,0.2709861016243696,-0.1419131904840469,0.1366829574108123,0.0492084920406341,walking
1761505873743710000,0.2666958570845425,-0.6228431447744369,0.1126589954525232,-0.1624714285135269,0.126445472240448,0.0642162412405014,walking
1761505873763865900,0.183257257027924,-0.6119445880107581,0.1521083777874708,-0.1482477039098739,0.1432906836271286,0.0989899709820747,walking
1761505873784022000,0.1728973371855914,-0.6040615796759724,0.0010503858357667,-0.1571917980909347,0.1283682137727737,0.1242866590619087,walking
1761505873804178000,0.0712230424102395,-0.5835049677290022,-0.0307107800841331,-0.1568561345338821,0.1356736421585083,0.1531661003828048,walking
1761505873824333800,0.0676314476590603,-0.5731636064566672,-0.0851268454045057,-0.1261302232742309,0.1472445130348205,0.1728694438934326,walking
1761505873844491000,0.0361637847930192,-0.5927037348374724,-0.1337257488787174,-0.0854087620973587,0.154971957206726,0.2036309540271759,walking
1761505873864647000,0.0022463906873017,-0.6900209303818643,-0.122368488562107,-0.064532533288002,0.2040041834115982,0.2524349391460418,walking
1761505873884803000,0.0513170763917267,-0.7676740789048373,-0.1820715543746948,-0.0520715005695819,0.221698597073555,0.2978092432022095,walking
1761505873904959000,0.1536332492671906,-0.9053378978848456,-0.2517950789421797,-0.0215714778751134,0.1991252154111862,0.3237171471118927,walking
1761505873925115100,0.1934625708304345,-1.0569069080986082,-0.4531166927099228,-0.0328729450702667,0.1002746373414993,0.3174197673797607,walking
1761505873945271000,0.1607190428096801,-0.8963131721690296,-0.6227011059552431,-0.0595963224768638,-0.0335662141442298,0.214098259806633,walking
1761505873965428200,0.0026783523637801,-0.6775681299135089,-0.6312286958038806,-0.0430372804403305,-0.0575137212872505,0.0838358849287033,walking
1761505873985584400,-0.2594927938379347,-0.3923129721790552,-0.5328758736014366,0.0085655376315116,0.0200209915637969,0.0309461522847414,walking
1761505874005740300,-0.4547428326070308,-0.2043633195511996,-0.3553051377773285,0.0902518704533577,0.1164677366614341,0.0775698125362396,walking
1761505874025896200,-0.5095213014990091,-0.0269933669961988,-0.1949240216851234,0.1433261483907699,0.1939313411712646,0.1507176756858825,walking
1761505874046052000,-0.4812641981773078,-0.0752837890431284,-0.1684708990454673,0.1323485523462295,0.2198249697685241,0.1999695748090744,walking
1761505874066209000,-0.49730844726637,-0.0970895242683589,-0.1052554411977529,0.1001892909407615,0.2127467095851898,0.1926009207963943,walking
1761505874086365200,-0.4465421366252005,-0.1040020801357924,-0.0332855990082025,0.0857137516140937,0.185111790895462,0.1451631635427475,walking
1761505874106521000,-0.4818249007999897,0.0242341314159333,0.0187900406658649,0.1163233146071434,0.107715755701065,0.1008827611804008,walking
1761505874126677000,-0.4901359252884983,0.1474129134476184,0.0698638098210096,0.1897192597389221,0.0389668308198452,0.1026745587587356,walking
1761505874146833200,-0.4738815405800938,0.1624821800246834,0.072496496412158,0.2345756143331527,0.0225856006145477,0.1295657753944397,walking
1761505874166989000,-0.3625964638292789,0.1469298061057925,-0.0509282232046127,0.2110548317432403,0.022163588553667,0.1486328989267349,walking
1761505874187146200,-0.2863653109334409,0.2351689383119344,-0.0339601372689008,0.1658472716808319,0.0272582825273275,0.1423506438732147,walking
1761505874207302100,-0.187570005660504,0.2987128974616527,-0.0218348151892423,0.1544325798749923,0.0026750629767775,0.1405097395181656,walking
1761505874227458300,-0.0711842447698116,0.2984656447023153,-0.0421077878892421,0.1629279106855392,-0.0278972946107387,0.1378943920135498,walking
1761505874247614200,0.0338306656703352,0.2705009484559297,-0.1268582011967897,0.1578447818756103,-0.0359898507595062,0.1194466948509216,walking
1761505874267770000,0.1026093106031417,0.2624251940280199,-0.2289361814022064,0.1388758271932602,-0.0174560546875,0.0843935906887054,walking
1761505874287926300,0.1538470381483435,0.2732306656807661,-0.2162701765745878,0.1481375396251678,0.0530780628323555,0.0532040335237979,walking
1761505874308083000,0.1441815303109586,0.3671457976967096,-0.2654489257633686,0.1509382575750351,0.0924033895134925,0.0334560200572013,walking
1761505874328239000,0.1646015102662146,0.4682821131378412,-0.2495592827141284,0.1440197974443435,0.1122252270579338,0.0265287570655345,walking
1761505874348395000,0.1430668470673263,0.5717065395161509,-0.1896399438023567,0.1467193663120269,0.1231300830841064,0.0272400230169296,walking
1761505874368551200,0.1289472824305295,0.6876067088469863,-0.1062742628514766,0.1604330390691757,0.1333762407302856,0.0326347909867763,walking
1761505874388707000,0.1659732370108366,0.7324743168383836,0.0534644636839628,0.1974016726016998,0.1691124141216278,0.0455401688814163,walking
1761505874408864300,0.2115799729317426,0.7316808283731341,0.1533107393145561,0.2329514175653457,0.1891412436962127,0.0603774338960647,walking
1761505874429020200,0.3112447545155882,0.699891897663474,0.2910159132182598,0.2754149138927459,0.1734832376241684,0.0737509801983833,walking
1761505874449176000,0.4262827540591359,0.6205053494766354,0.3442056516140699,0.2795595526695251,0.1381494551897049,0.0748438835144043,walking
1761505874469332200,0.52935383695513,0.5485296620681882,0.2977677255660295,0.2297244220972061,0.0831946656107902,0.0530531741678714,walking
1761505874489488100,0.6031554246164857,0.4498939312711358,0.2705786898672581,0.1709303259849548,0.0251863189041614,0.03333056345582,walking
1761505874509644000,0.6646643708072603,0.3669225103348493,0.2282464455723762,0.1354698687791824,0.0044754333794116,0.0215331017971038,walking
1761505874529801200,0.6167721542976796,0.3573179389044642,0.080079498887062,0.0688520371913909,-0.0202299207448959,-0.0074923560023307,walking
1761505874549957000,0.6105164549037814,0.2317947857037186,-0.0716927788138389,-0.0354957468807697,-0.0454006865620613,-0.0217161029577255,walking
1761505874570113300,0.5565871501870453,0.1350984985366463,-0.1640086589395999,-0.1548543721437454,-0.0698901414871215,-0.0405755415558815,walking
1761505874590269200,0.4574254958197474,0.140528122369945,-0.3613713059484958,-0.3068417310714721,-0.0946859568357467,-0.1092126220464706,walking
1761505874610425300,0.2803562797769904,0.2254956855595111,-0.4654705628484487,-0.4342803955078125,-0.0821576341986656,-0.184843510389328,walking
1761505874630581200,0.0442417311780154,0.3714341425403952,-0.3584200549274682,-0.4572733342647552,-2.0461156964e-06,-0.1935720145702362,walking
1761505874650738200,-0.1402963594406843,0.4622676751539111,-0.1279296298205852,-0.4002498388290405,0.125372439622879,-0.1380108445882797,walking
1761505874670894000,-0.1898068248018622,0.258482301621139,0.0835971516191959,-0.3054504990577698,0.2672606408596039,-0.0288607962429523,walking
1761505874691050000,-0.0634879911787807,0.1298643972754478,0.2077437557697296,-0.260307103395462,0.3221651613712311,0.0227250605821609,walking
1761505874711206100,0.142553490717709,-0.1362321787416935,0.3403413774013519,-0.2532660961151123,0.2677860558032989,0.0129282344132661,walking
1761505874731362000,0.3522181315474212,-0.3505392385497689,0.4728483981400728,-0.2278010994195938,0.1471816003322601,-0.0370589271187782,walking
1761505874751518200,0.4609302890703082,-0.5332414920434355,0.5466372724503279,-0.1785509139299392,0.0448328033089637,-0.0859113335609436,walking
1761505874771675100,0.577120381258428,-0.6293123407885431,0.4749707971215248,-0.0889370515942573,-0.1074564829468727,-0.1384596824645996,walking
1761505874791831300,0.7911717127397656,-0.6405003820180892,0.4549672890126705,0.034994076937437,-0.2695489525794983,-0.2112019211053848,walking
1761505874811987200,0.6741546682082116,-0.6757926446735859,0.220708451282978,0.0453533343970775,-0.3370846509933471,-0.2486195266246795,walking
1761505874832143000,0.4667744850538671,-0.6416410764858126,-0.0946001916706562,-0.0753082484006881,-0.3123602271080017,-0.2573215067386627,walking
1761505874852299300,0.3332625250563025,-0.5799342696353793,-0.222713361364603,-0.1864801794290542,-0.2351991236209869,-0.245785117149353,walking
1761505874872456200,0.2736357393503189,-0.5258864531055093,-0.2153980699151754,-0.2264480888843536,-0.1241337656974792,-0.2302575707435608,walking
1761505874892612000,0.2024953337222337,-0.4986443720452487,-0.2144020446151494,-0.2039234638214111,-0.0283452123403549,-0.1985173374414444,walking
1761505874912768000,0.1895012659840285,-0.4812164135128259,-0.1010112277567386,-0.1440338045358657,0.0381423868238925,-0.1609140634536743,walking
1761505874932924200,0.1912267746023833,-0.521346617718786,-0.0293465059936046,-0.095222495496273,0.052814744412899,-0.1302218437194824,walking
1761505874953080000,0.1692285855449736,-0.5867223223403096,0.1047322941064834,-0.0594572909176349,0.0543895177543163,-0.1098779365420341,walking
1761505874973236000,0.196607883118838,-0.6751080234102904,0.1512789412260055,-0.0551734417676925,0.014896715991199,-0.1062247157096862,walking
1761505874993393000,0.2118308789528906,-0.731890817862004,0.2256067447185516,-0.0352204479277133,-0.0498134456574916,-0.0958463251590728,walking
1761505875013548800,0.2732110841974616,-0.8032049726217985,0.2554886727631092,0.017887458205223,-0.1408106386661529,-0.090090736746788,walking
1761505875033705000,0.3052481444492936,-0.8593782568730414,0.2311211242258548,0.0689489766955375,-0.2056639492511749,-0.10077515989542,walking
1761505875053860900,0.4225910599343478,-0.9158201289325952,0.1197708732843399,0.1042962446808815,-0.245053619146347,-0.1322364956140518,walking
1761505875074016800,0.4576354853086173,-0.870213685272634,0.047630350703001,0.1245312392711639,-0.2447051852941513,-0.1628787964582443,walking
1761505875094173000,0.5235711619004607,-0.8321179095037281,-0.1083709428697824,0.1259824782609939,-0.2814638614654541,-0.166929617524147,walking
1761505875114329900,0.5189212902680039,-0.7066827268473803,-0.2615308755367994,0.1025957986712455,-0.2828013300895691,-0.1835135221481323,walking
1761505875134486000,0.4486192351602017,-0.5598633953787386,-0.3488309733271598,0.1081692948937416,-0.2309292256832122,-0.1929410994052887,walking
1761505875154642000,0.3783328160129487,-0.3400321653217077,-0.2985480622887611,0.1593430340290069,-0.1378588527441024,-0.1766699403524398,walking
1761505875174798000,0.4940162738531827,-0.4197422463744878,-0.2916922050446272,0.2395923733711242,-0.0752678290009498,-0.0991721898317337,walking
1761505875194954000,0.6608801760934293,-0.4845590019389986,-0.3473205687642097,0.2967362403869629,-0.0858981311321258,-0.0444816388189792,walking
1761505875215110000,0.7634453552938997,-0.5061056478366256,-0.5303858103513718,0.2817659378051758,-0.1328550577163696,-0.0765880122780799,walking
1761505875235266800,0.6585545096248387,-0.5083920052081347,-0.5635802239447831,0.2332897186279297,-0.103425845503807,-0.1235755160450935,walking
1761505875255422700,0.4003792281262576,-0.2112549787610769,-0.6106926882535219,0.1689816415309906,-0.0494591034948825,-0.178642988204956,walking
1761505875275579000,0.2825657725200057,0.047440088827908,-0.5774146880298853,0.1015888899564743,0.003541013225913,-0.2109152823686599,walking
1761505875295734800,0.0728438485451042,0.3638251288414001,-0.3627309038639068,0.0876092985272407,0.0354941263794899,-0.1900194585323333,walking
1761505875315890700,-0.0520360383160412,0.5930091475248337,-0.1525906083464622,0.1520901173353195,0.0234295092523098,-0.1407317072153091,walking
1761505875336047900,0.0052327860869467,0.6230979963183403,0.0987105495989322,0.2577040791511535,0.0208753310143947,-0.0989481285214424,walking
1761505875356203800,0.0595393996834754,0.5479162063449621,0.217343943285942,0.3395554423332214,0.01561991404742,-0.0672390609979629,walking
1761505875376360000,0.174169110687077,0.4482768514633178,0.3145236300557851,0.3696382045745849,-0.0198234319686889,-0.0483000054955482,walking
1761505875396515800,0.2644938169956207,0.4581003263413906,0.3387736896932125,0.3512236773967743,-0.0930934995412826,-0.062195673584938,walking
1761505875416672000,0.2874333785563707,0.3846434604644775,0.3406839072287082,0.3054610192775726,-0.1552274525165558,-0.0785823315382003,walking
1761505875436828000,0.2216080304712057,0.3926066944286227,0.3166343385994434,0.2449205964803695,-0.1859054118394851,-0.1009687259793281,walking
1761505875456985000,0.1231697950076311,0.392391590373218,0.2465308748036623,0.1830371171236038,-0.1866028308868408,-0.1231537759304046,walking
1761505875477141000,0.0615434329822659,0.4588564054057001,0.1960533179759979,0.136695846915245,-0.1538100987672805,-0.1587760746479034,walking
1761505875497297000,-0.0130943132422864,0.5686828077808023,0.1981862383514642,0.1124173104763031,-0.0994924306869506,-0.1873332560062408,walking
1761505875517453000,-0.0948415261458605,0.7182751110941171,0.2313368128031492,0.091920293867588,-0.0675103142857551,-0.1951251178979873,walking
1761505875537609000,-0.081305314354971,0.7921642309084534,0.2379997778236866,0.0656814575195312,-0.0414017774164676,-0.1883455663919448,walking
1761505875557766000,-0.1064146942354738,0.8550529410198331,0.3185433870911598,0.0628016516566276,0.0207635648548603,-0.1578492969274521,walking
1761505875577921800,-0.1345480981122702,0.8150143606200814,0.4035854768216609,0.0554391182959079,0.0791182667016983,-0.0927283465862274,walking
1761505875598078000,-0.0590704669974744,0.7406465173780917,0.3968278192549944,0.0237897541373968,0.1211455836892128,-0.0509620681405067,walking
1761505875618233900,-0.0289593333069235,0.5738610872015356,0.3649813131392002,-0.0633022710680961,0.1526779532432556,-0.0126506322994828,walking
1761505875638389800,0.0346760304532945,0.4023334309339523,0.2418453473359346,-0.1763172298669815,0.1541894525289535,0.0247694812715053,walking
1761505875658546000,0.12298778950423,0.2663148949429392,0.1760609157830476,-0.2669911384582519,0.114491157233715,0.0473621971905231,walking
1761505875678702800,0.1266694006264209,0.1901879330739379,0.0556131661504507,-0.3751945495605469,0.0123763745650649,0.0471324175596237,walking
1761505875698859000,0.0264795722551643,0.2026470171526074,-0.2206155123025178,-0.5401251316070557,-0.1196668520569801,0.0171173140406608,walking
1761505875719015000,-0.2343330720096826,0.4002516562238335,-0.2973866172939539,-0.6605278253555298,-0.1519767791032791,-0.034797441214323,walking
1761505875739170800,-0.5007329418223351,0.5910895776391029,-0.1752390780061483,-0.6520412564277649,-0.0519821569323539,-0.0058492552489042,walking
1761505875759327000,-0.649112581410259,0.6304568346485495,0.0730289958536624,-0.4871880114078522,0.0832077413797378,0.1333193778991699,walking
1761505875779484000,-0.434245988023281,0.5021221311584114,0.2088777282357215,-0.2653218805789947,0.1192148625850677,0.3010849952697754,walking
1761505875799640000,-0.1038477663569152,0.117226741759479,0.1836468408674001,-0.1155896782875061,0.0589594319462776,0.4013987779617309,walking
1761505875819796000,0.1417052033253014,-0.3816109609007835,-0.025787352207303,-0.1218505874276161,-0.0092629874125123,0.4084542393684387,walking
1761505875839952000,0.1488474032301455,-0.6290554434180259,-0.16419512142241,-0.215137630701065,-0.0766587629914283,0.3427418172359466,walking
1761505875860107800,0.0436933765802532,-0.6861437966875732,-0.2816740843772888,-0.3163262903690338,-0.1282169371843338,0.2430373281240463,walking
1761505875880263700,-0.2214937564417719,-0.5522381611973047,-0.3315940073221922,-0.3666986525058746,-0.1159823685884475,0.1553671360015869,walking
1761505875900420900,-0.4861973437305539,-0.3481498591952026,-0.3594540741503238,-0.3501443266868591,-0.074355848133564,0.1193469166755676,walking
1761505875920576800,-0.678276570443809,-0.210332457088679,-0.2773638199627399,-0.2805229723453522,0.0092714503407478,0.1527106910943985,walking
1761505875940733000,-0.7257515844546258,-0.2241660443909466,-0.2640992647200822,-0.2252382636070251,0.085048571228981,0.2163888663053512,walking
1761505875960888800,-0.6163611623439937,-0.3501192595720291,-0.1949146693348884,-0.1952615827322006,0.1531082987785339,0.2557076811790466,walking
1761505875981044500,-0.509094308258593,-0.529584284710139,-0.1069417868494987,-0.1832795441150665,0.1713704019784927,0.2572245299816131,walking
1761505876001201700,-0.3715446902427822,-0.6573907265424728,-0.0378156436532735,-0.1427464336156845,0.1335285604000091,0.2198434025049209,walking
1761505876021357600,-0.3441230148319155,-0.723364835448563,0.0614274053871631,-0.0802592560648918,0.1038110330700874,0.1662034541368484,walking
1761505876041513700,-0.3832370277326554,-0.827875157367438,0.1677712263435125,-0.0149264559149742,0.1398420184850692,0.137342631816864,walking
1761505876061669600,-0.3282245308890938,-0.8769367099173366,0.1770867516994476,0.0036204841453582,0.2005077898502349,0.1092057004570961,walking
1761505876081825800,-0.237528945441544,-0.9441237017445264,0.1609288131028413,-0.0245806220918893,0.2300785183906555,0.0670075565576553,walking
1761505876101981700,-0.1425149122729897,-0.9753234343893824,0.1718885985344648,-0.0620715618133544,0.2526493072509765,0.0255495756864547,walking
1761505876122138600,-0.0039066520497202,-1.0043665735222398,0.0975958663552999,-0.0821897312998771,0.2261818647384643,-0.0102756777778267,walking
1761505876142294500,0.0157872055880725,-0.9502741871982812,0.0736643711477518,-0.0631349235773086,0.1919288337230682,-0.0173526015132665,walking
1761505876162450400,0.0306594882883131,-0.8688133169554173,-0.0878700066328048,-0.0337838232517242,0.1568800061941146,-0.0067360326647758,walking
1761505876182606600,0.0121508949123322,-0.7968811764277517,-0.2395610357910394,0.0163995120674371,0.1324229389429092,0.0314966440200805,walking
1761505876202762500,-0.0311985636010766,-0.7275498660482466,-0.4311515291392803,0.0825923234224319,0.0794453546404838,0.0907061249017715,walking
1761505876222919700,-0.0767461166806519,-0.5949640809848904,-0.6113765788644552,0.1590217053890228,0.0171245336532592,0.1474619060754776,walking
1761505876243075600,-0.135457102715969,-0.5757207435935735,-0.7754822684377431,0.232559934258461,-0.0354578681290149,0.2090057879686355,walking
1761505876263231700,-0.1166464576534926,-0.6520422051213681,-0.98684947540164,0.2839104235172272,-0.0988673418760299,0.2754993140697479,walking
1761505876283387600,-0.1269337506510317,-0.6099073830947279,-1.1425205141067505,0.2956246137619018,-0.1325972825288772,0.2810623943805694,walking
1761505876303543600,-0.0856619751945138,-0.673133800727874,-1.2311977454692125,0.2770587503910064,-0.1238813549280166,0.247764453291893,walking
1761505876323699700,-0.1502835004478692,-0.4106486932061612,-1.2899047859817745,0.2422448843717575,-0.1571851223707199,0.1632061898708343,walking
1761505876343856600,-0.2085677855037152,-0.0538385576933622,-1.2832289614796637,0.2377478927373886,-0.1977532804012298,0.0483232960104942,walking
1761505876364012800,-0.3266543589629233,0.30836466903463,-0.9339327087283134,0.3188594281673431,-0.1380470097064972,-0.003881674259901,walking
1761505876384168700,-0.4589969829201698,0.4912561614900827,-0.5344792171448469,0.4280714094638824,-0.0253012869507074,0.0271201822906732,walking
1761505876404324600,-0.4593327907457947,0.5455138213783502,-0.2384071895807981,0.4626094996929168,0.1251121312379837,0.1115038618445396,walking
1761505876424480800,-0.3348597311198711,0.6304170871600508,-0.0829869107663631,0.4000800549983978,0.1973569542169571,0.1521127671003341,walking
1761505876444637400,-0.1945128105357289,0.6487973779812455,0.0845125128984451,0.3404269516468048,0.219989001750946,0.1283372789621353,walking
1761505876464793600,-0.1397897250927984,0.5789411669448018,0.3024403935521841,0.3344464004039764,0.2181795388460159,0.1063963696360588,walking
1761505876484949500,0.0179975751139223,0.5986915770754218,0.3295142784386873,0.3316678404808044,0.147299975156784,0.0464997068047523,walking
1761505876505105700,0.0627124767616391,0.6360419413045049,0.3866419408053159,0.343374103307724,0.0899369344115257,0.0056159747764468,walking
1761505876525261600,0.045497576458007,0.662276745018363,0.4408832340806722,0.3473000228404999,0.0757879987359047,0.0001137764193117,walking
1761505876545418800,0.1005586616836488,0.6761705380752683,0.3870014217674732,0.3103385865688324,0.067201130092144,-0.0003157370956614,walking
1761505876565574700,0.1733398202560842,0.7010577265724539,0.3058253598153591,0.2440845221281051,0.0412675663828849,-0.0244260802865028,walking
1761505876585730600,0.1850852031074464,0.7598489382371306,0.2913584430456161,0.2308334559202194,0.0026741418987512,-0.0391157940030097,walking
1761505876605886700,0.1873036098092794,0.7982523186504841,0.291813785597682,0.2705380916595459,-0.0117855640128254,-0.0409298129379749,walking
1761505876626042600,0.2417534312687814,0.7688982138723135,0.1987736828505992,0.272377610206604,-0.0109150586649775,-0.0576560273766517,walking
1761505876646199800,0.2518732587449252,0.7288111181557178,0.1017541550785303,0.2041775435209274,0.0300094578415155,-0.0772366151213646,walking
1761505876666355700,0.2017028681702911,0.6619324616253376,0.0851116478353738,0.1045501977205276,0.0973841249942779,-0.0812378376722335,walking
1761505876686511900,0.2895885107636451,0.740355133216083,0.0593541062444448,0.0563640445470809,0.1097713783383369,-0.1079653277993202,walking
1761505876706667800,0.2757734820313751,0.704949765574932,0.1108516537696123,0.0653381571173667,0.1045367419719696,-0.1114015355706214,walking
1761505876726823700,0.343869843788445,0.6582672171160578,0.1187555587619543,0.0855704545974731,0.0885321497917175,-0.1169036030769348,walking
1761505876746979800,0.4827227264225482,0.5557563984513283,0.1316933662682771,0.1294657438993454,0.0601056329905986,-0.1220741495490074,walking
1761505876767136500,0.5662151024930179,0.4160360853329301,0.2034948661535978,0.1751962900161743,0.0627657100558281,-0.0888670980930328,walking
1761505876787292700,0.7482642989054322,0.18623013535887,0.0967541548341512,0.1430040746927261,0.0327461920678615,-0.0480732657015323,walking
1761505876807448600,0.8809107281148433,-0.0613967179879546,-0.0148754975706338,0.0442952662706375,-0.0258176866918802,-0.0294346697628498,walking
1761505876827604500,0.9282838891863824,-0.2211477194830775,-0.145668115606904,-0.0407301075756549,-0.0801215320825576,-0.0490485690534114,walking
1761505876847760600,0.7766467821724712,-0.1868345309928059,-0.3085135759860277,-0.1278558522462844,-0.1327076852321624,-0.1206387355923652,walking
1761505876867917600,0.5481557141892611,-0.0072121233358979,-0.3030424510985612,-0.1862806528806686,-0.1572880148887634,-0.2166985273361206,walking
1761505876888073700,0.2772963076844811,0.2758265273928642,-0.1869166563183069,-0.169879600405693,-0.1803536713123321,-0.2752242386341095,walking
1761505876908229600,0.0321074951395392,0.485448059733212,-0.0405050288677215,-0.1291862279176712,-0.1700629740953445,-0.2535433769226074,walking
1761505876928385800,-0.1241388592354953,0.5898273026183247,0.1178150630414485,-0.0645102486014366,-0.167488619685173,-0.187526524066925,walking
1761505876948541700,-0.0955868646204471,0.5762243092015386,0.2804711383283138,0.0226003006100654,-0.1910951435565948,-0.126528799533844,walking
1761505876968699000,0.0136975398324429,0.4203878508016467,0.361091319963336,0.094203419983387,-0.2365499287843704,-0.1070655658841133,walking
1761505876988854800,0.1332106389634311,0.216174607245624,0.4312929834365844,0.1033791750669479,-0.247152030467987,-0.1099459528923034,walking
1761505877009010700,0.1829563743852078,0.0556163810208439,0.4717091649770736,0.0387910269200801,-0.1812930703163147,-0.1098142191767692,walking
1761505877029166800,0.23997502341941,-0.0622021891519427,0.4888736502677202,-0.0764650553464889,-0.0942258313298225,-0.0934491753578186,walking
1761505877049322800,0.3406584805265069,-0.1440448983192443,0.5307569817513227,-0.1630081087350845,-0.0570815429091453,-0.0601917989552021,walking
1761505877069480000,0.4951248196169733,-0.3065980977535247,0.5140718044102192,-0.1933592557907104,-0.1198757588863372,-0.0671033784747123,walking
1761505877089635800,0.6707553811587393,-0.483308709616959,0.445023987147212,-0.1946051120758056,-0.1804097592830658,-0.1279494613409042,walking
1761505877109792000,0.7508598683565855,-0.6860483734890818,0.2588549343258142,-0.2058816850185394,-0.2150603383779525,-0.2063344717025756,walking
1761505877129948000,0.7565551573887467,-0.7617714307323098,0.1223673195183277,-0.2412904947996139,-0.1797991096973419,-0.2849259078502655,walking
1761505877150103800,0.7243480012670159,-0.7594245753452181,-0.1652250489920377,-0.3087914288043976,-0.1373244971036911,-0.3493426740169525,walking
1761505877170260000,0.6305543036736547,-0.6483779835253953,-0.2634989607393741,-0.3491601049900055,-0.0806752070784568,-0.3736301064491272,walking
1761505877190417000,0.5616689834959805,-0.4415273772031068,-0.3191676564693451,-0.3180214166641235,-0.0502859577536582,-0.3777809739112854,walking
1761505877210573000,0.444082030121982,-0.3644502750024199,-0.3198673291712999,-0.2115229219198227,-0.0218160804361104,-0.3276343941688537,walking
1761505877230729000,0.3551153142936527,-0.3404758174359798,-0.2504173608481884,-0.0596637539565563,0.0297862142324447,-0.2329154908657074,walking
1761505877250885000,0.3460753910087049,-0.3374053239494562,-0.2301993332058191,0.0761277601122856,0.0489370338618755,-0.1343373954296112,walking
1761505877271041000,0.3698720077902078,-0.3842529998421669,-0.1888864950865507,0.1665093600749969,0.0154195232316851,-0.0702456980943679,walking
1761505877291197700,0.4297245650760829,-0.5159025269687175,-0.0955611456573009,0.2342173755168914,-0.0154441557824611,-0.0353939160704612,walking
1761505877311353900,0.4736588377401232,-0.5898804941102862,-0.0130640642344951,0.2926569581031799,-0.0490938127040863,-0.0363793261349201,walking
1761505877331509800,0.5777940427362919,-0.642518736103177,-0.0147469027549028,0.3276251554489136,-0.1186825856566429,-0.0551835335791111,walking
1761505877351666000,0.6593067892968654,-0.7122837617248297,0.0101695118367671,0.3559367656707763,-0.1577715128660202,-0.0598767139017581,walking
1761505877371821800,0.8260856436021625,-0.851440303480625,-0.0801391201198101,0.3566836416721344,-0.165669709444046,-0.0435714200139045,walking
1761505877391979000,0.8421427521727979,-0.8722863998934626,-0.1829880846977233,0.2857615947723388,-0.1761604696512222,-0.0320417433977127,walking
1761505877412135000,0.7427831640806049,-0.6769000213935971,-0.3844850550323724,0.1179570853710174,-0.1996068060398101,-0.071412369608879,walking
1761505877432290800,0.4521143837995827,-0.3221028331384062,-0.3847212018758058,-0.0276270322501659,-0.1506971567869186,-0.1270072013139724,walking
1761505877452447000,0.2199549295019358,0.0283241772085428,-0.2419295184880495,-0.0593486800789833,-0.0380729511380195,-0.1203018501400947,walking
1761505877472603000,0.0881131677389144,0.2080722570717334,-0.087425769996643,0.0130658401176333,0.045504130423069,0.003342326497659,walking
1761505877492760000,0.2189322353906929,0.235993990959227,-0.0807902775049209,0.1011438444256782,-0.0034461952745914,0.125447541475296,walking
1761505877512916000,0.4098534511752426,0.1630535501718521,-0.1823708295822143,0.1348997503519058,-0.1392065286636352,0.1372379511594772,walking
1761505877533072000,0.4457484289642423,0.062382514154911,-0.3246598241448402,0.1335004419088363,-0.2607360780239105,0.0826172307133674,walking
1761505877553227800,0.3708081195965409,0.0778945560634136,-0.3904804960548877,0.1287333518266677,-0.2677945792675018,0.0196566209197044,walking
1761505877573382000,0.224610134896636,0.2128463396057486,-0.4570464333742857,0.1325055807828903,-0.2126836329698562,0.019574986770749,walking
1761505877593537800,0.048706455501914,0.3714063777506351,-0.447137033778429,0.1424863040447235,-0.1251876354217529,0.0622465312480926,walking
1761505877613694000,-0.0808037215083837,0.5046732769459485,-0.3596937281250953,0.1540510803461074,-0.009926563128829,0.102864533662796,walking
1761505877633851000,-0.144346657744795,0.5601031954839826,-0.1908621790736913,0.1768545359373092,0.0919558852910995,0.1087276116013526,walking
1761505877654007000,-0.0908474880736321,0.5970823883131146,-0.0273661458313465,0.1988963186740875,0.1390376091003418,0.0783045962452888,walking
1761505877674163000,-0.032143808561936,0.6682654640391469,0.1517073957711458,0.2210510969161987,0.1241059452295303,0.0411462560296058,walking
1761505877694319000,-0.0082766838274896,0.7181874328106641,0.3230050426751375,0.2366597652435302,0.101049430668354,0.0201380513608455,walking
1761505877714475000,0.0242389537215232,0.6779691119298339,0.4469757057368755,0.2245515584945678,0.1038984730839729,0.0522918291389942,walking
1761505877734631700,0.0344113151025027,0.6300353943660855,0.4049351378649473,0.1599089503288269,0.0571733340620994,0.0905002579092979,walking
1761505877754787800,0.0658804392732679,0.6627896629765629,0.3020271365761757,0.0794556438922882,-0.0755852460861206,0.061584185808897,walking
1761505877774943700,-0.0115353933624923,0.7063771680295466,0.224766786763072,0.0339129902422428,-0.2010975033044815,-0.004278396256268,walking
1761505877795100000,-0.2244934497144073,0.8302855795100331,0.1773047783643007,0.042438693344593,-0.2488022744655609,-0.0764762759208679,walking
1761505877815255800,-0.4268341043315827,0.9635688453182576,0.1827349867194891,0.0848307684063911,-0.200080394744873,-0.1088908463716507,walking
1761505877835413000,-0.548405524231866,0.9639400167182088,0.2091869403153657,0.0806675255298614,-0.0703611075878143,-0.0757482722401619,walking
1761505877855569000,-0.500321876803413,0.818224847099185,0.194473355308175,-0.0240943282842636,0.0487537384033203,-0.0166833475232124,walking
1761505877875724800,-0.311189224936068,0.5413572862207889,0.1626063909262418,-0.180826723575592,0.0674116984009742,0.0129887741059064,walking
1761505877895881000,-0.115260994644463,0.2985492313325405,0.0609562807440757,-0.3056428134441376,-0.0435905866324901,-0.0227568466216325,walking
1761505877916036900,-0.1164742428917437,0.2551400054559111,-0.0694020375281572,-0.4095496237277984,-0.200624942779541,-0.1392449587583542,walking
1761505877936194000,-0.2782599650848656,0.3754211663499474,-0.3350023544609546,-0.5340534448623657,-0.3422827124595642,-0.2811070084571838,walking
1761505877956350000,-0.56392640703395,0.5511182172566652,-0.3560878125876188,-0.6146953105926514,-0.3267025053501129,-0.3458748161792755,walking
1761505877976506000,-0.7458717777457088,0.7003679907426238,-0.3211515237629413,-0.623464822769165,-0.2191546410322189,-0.2904421687126159,walking
1761505877996664300,-0.7647285269722343,0.8044771845147013,-0.200497437903285,-0.5115440487861633,-0.1384291350841522,-0.1630412936210632,walking
1761505878016820200,-0.601603226738423,0.722199298800528,-0.1259860945373773,-0.307162880897522,-0.1513494700193405,-0.0429041199386119,walking
1761505878036976400,-0.3611401275411248,0.4886328272491693,-0.1282546239912509,-0.1109617725014686,-0.2256416976451873,0.0283523760735988,walking
1761505878057132300,-0.1342916391331702,0.1265223933711648,-0.2486041739463806,-0.0219231322407722,-0.288767546415329,0.0418651252985,walking
1761505878077289200,-0.0066913873974233,-0.1387783560931682,-0.3474626075834036,-0.0515096709132194,-0.2961202561855316,0.0164847783744335,walking
1761505878097445400,-0.0030715894650667,-0.2682730432733893,-0.4390151021212339,-0.1433724910020828,-0.2732724547386169,0.0052278283983469,walking
1761505878117601300,-0.0547370774356648,-0.2320326861128211,-0.4051677775770425,-0.2034411281347274,-0.2230998128652572,0.0241096913814544,walking
1761505878137757200,-0.1100503838567063,-0.1055345504000783,-0.3154612031668424,-0.2071758359670639,-0.1583189666271209,0.0606608837842941,walking
1761505878157913000,-0.1079474932933226,-0.0643263416990637,-0.187604638582468,-0.1722787171602249,-0.0964245125651359,0.121683083474636,walking
1761505878178070300,-0.0377560224205255,-0.100201080417633,-0.1226806232511997,-0.1487123966217041,-0.0748416632413864,0.1866322457790374,walking
1761505878198226200,0.1062478132359683,-0.2093359933972358,-0.0604711275756359,-0.1376552730798721,-0.0630412697792053,0.2283511161804199,walking
1761505878218382300,0.2224410837618634,-0.3474716676726937,-0.0862573107391595,-0.1367024630308151,-0.0220402777194976,0.2558373212814331,walking
1761505878238538200,0.2432393589776009,-0.4189277151212096,-0.0972276175647973,-0.1284025758504867,0.0444736331701278,0.2908359169960022,walking
1761505878258694100,0.178880393650569,-0.4096843782186508,-0.0799760385125875,-0.1156749576330185,0.0902391970157623,0.3318742215633392,walking
1761505878278851300,0.0689258348511532,-0.4467205619320273,-0.0170838212698698,-0.0858124420046806,0.1398332417011261,0.3638414740562439,walking
1761505878299007200,0.0327092604249715,-0.5407721798092127,0.0469400303512811,-0.0388058945536613,0.2041989862918853,0.3731879889965057,walking
1761505878319163400,0.0027169673411175,-0.6464046376258135,0.0816997935652732,-0.0076152961701154,0.2411184906959533,0.3572883009910583,walking
1761505878339319300,-0.0424823202900588,-0.6874567789822816,0.0766261435627937,0.0074984636157751,0.2335543781518936,0.3279403448104858,walking
1761505878359475500,-0.111350287474133,-0.7013382970795035,0.0730132137626409,0.0067101130262017,0.2263461947441101,0.277548998594284,walking
1761505878379631400,-0.202018217729777,-0.6560635695919395,0.0528407788276672,0.0011178362183272,0.2357492297887802,0.2320868074893951,walking
1761505878399788300,-0.3581048880310729,-0.5906997015386819,-0.0017576573222875,-0.0010854350402951,0.2178894579410553,0.2099814713001251,walking
1761505878419944200,-0.4604136813176795,-0.4504910203814506,-0.0406166725486516,0.0153604401275515,0.1783429682254791,0.1825120896100998,walking
1761505878440100000,-0.5584447972850873,-0.3877840965777635,-0.0286801510393619,0.0590302385389804,0.1733434498310089,0.175119012594223,walking
1761505878460256300,-0.6285615224212407,-0.2776373762071132,-0.0850426742523908,0.1020280197262764,0.1526073217391967,0.1795725524425506,walking
1761505878480412200,-0.6376829134445637,-0.3072907561928034,-0.0778238289147615,0.1302731186151504,0.1625748127698898,0.2053433060646057,walking
1761505878500569300,-0.6275712692748755,-0.3773641171112656,-0.1025292311042547,0.115043319761753,0.2145104706287384,0.2326119542121887,walking
1761505878520725200,-0.5651236539945006,-0.4471075154229998,-0.0470475823789834,0.0854416936635971,0.2519847750663757,0.2508313953876495,walking
1761505878540881200,-0.477214922786504,-0.549581801469624,0.0574561636686325,0.0902364626526832,0.2705601453781128,0.2859771251678467,walking
1761505878561037300,-0.3413551575537771,-0.7160808159202336,0.0779144298076629,0.1252155900001526,0.2619055509567261,0.3222934603691101,walking
1761505878581193200,-0.1907104225780815,-0.8696358853846788,0.1022135892838239,0.1892836540937423,0.2459266185760498,0.3357739448547363,walking
1761505878601350400,0.1033447122056037,-1.1188611138388511,-0.0240191734910011,0.2477184981107711,0.2134722620248794,0.3704448938369751,walking
1761505878621506300,0.4993048817805945,-1.4992378567695617,-0.3293868526667356,0.257149338722229,0.0806483179330825,0.3920653462409973,walking
1761505878641662500,0.2679994139637798,-0.8973249795600772,-0.6238865163475275,0.1910532116889953,-0.132200226187706,0.2408374845981598,walking
1761505878661818400,0.1270472940281033,-0.4546887643322348,-0.8792699751704931,0.1619147807359695,-0.2261058390140533,0.0042736884206533,walking
1761505878681974300,-0.4012784419883042,0.1252683016568422,-0.6633265463322401,0.2629162967205047,-0.0648947358131408,-0.0946056619286537,walking
1761505878702131200,-0.6882314166165888,0.4894669399857521,-0.380343717443943,0.4301824271678924,0.1988352239131927,-0.0109896874055266,walking
1761505878722287000,-0.6562216827630997,0.6241133108407259,-0.1460281810909509,0.5352605581283569,0.4066762328147888,0.1452552378177642,walking
1761505878742443300,-0.3269354409266263,0.5840384900838136,-0.1347901632398367,0.5470017194747925,0.4400965869426727,0.2255370616912841,walking
1761505878762599200,-0.1110592321056872,0.4321189128667116,-0.112301268056035,0.5170658826828003,0.3720305562019348,0.2206077426671981,walking
1761505878782755300,0.0721908645290881,0.2891498270854353,-0.0889087020307779,0.4726490080356598,0.2994237840175628,0.1475835144519806,walking
1761505878802912300,0.071941639008373,0.2645297650918364,-0.1291746614456176,0.3868761360645294,0.261611670255661,0.0531558692455291,walking
1761505878823068400,-0.0666160600714385,0.409758612498641,-0.1914069534748792,0.2445212751626968,0.2570142447948456,-0.0036851153708994,walking
1761505878843224300,-0.2228692825786769,0.5971817570343614,-0.1658709456801414,0.0701222792267799,0.2869026064872741,-0.0066804257221519,walking
1761505878863380200,-0.3203155113302171,0.7185723404750227,-0.1909241383939981,-0.0727129951119422,0.2576102912425995,0.0422393567860126,walking
1761505878883536400,-0.3256683436002582,0.7572378789559007,-0.1135562365531921,-0.1102456748485565,0.2300894409418106,0.1164766550064086,walking
1761505878903693300,-0.2740896205976605,0.6703375941380858,-0.0619593203067779,-0.065274104475975,0.2464109063148498,0.1639936417341232,walking
1761505878923849500,-0.2448771162472665,0.5643044465661049,0.0454448233574628,-0.0087423082441091,0.3116161823272705,0.1776429563760757,walking
1761505878944005400,-0.2077479935534298,0.4876894089192152,0.200594468536973,0.0203271768987178,0.34236741065979,0.1922821104526519,walking
1761505878964161300,-0.0976109177939593,0.3950947118520736,0.300219210371375,0.018311109393835,0.3180641233921051,0.2005999088287353,walking
1761505878984317200,0.0353152051396667,0.2342871870413422,0.4349409845501184,0.0043962965719401,0.3021861910820007,0.1873684674501419,walking
1761505879004474000,0.1806840455390513,0.109444125059247,0.5392208587139845,-0.0115696350112557,0.2909269332885742,0.1524852812290191,walking
1761505879024630000,0.3947289472796023,0.0436330977603793,0.4817489129543304,-0.0325112491846084,0.2246970683336258,0.0908670797944068,walking
1761505879044786000,0.5036022867135703,0.0103352237924933,0.3529477609962225,-0.0718802884221077,0.1092526391148567,0.0013174375053495,walking
1761505879064942000,0.5086759367160498,0.0714268213540315,0.1869306848436593,-0.105435311794281,0.0073345340788364,-0.1054497510194778,walking
1761505879085098000,0.3922119960226118,0.1735825429707765,0.0457709865719079,-0.1186027228832244,-0.0273022055625915,-0.1834257096052169,walking
1761505879105255200,0.2554166304402053,0.3419043889343738,-0.0062415247380733,-0.081455685198307,0.014972954057157,-0.223065584897995,walking
1761505879125411000,0.175451405582577,0.4762459316238761,-0.0489969628810882,-0.0471836663782596,0.0842544734477996,-0.2250211089849472,walking
1761505879145567200,0.1932290543355047,0.6512663984432816,-0.0949438905417919,-0.0595589987933635,0.1329950541257858,-0.2076422572135925,walking
1761505879165723100,0.1767711098790168,0.6660659081682563,-0.0236240366935729,-0.0807220712304115,0.166889414191246,-0.1385532170534134,walking
1761505879185879000,0.2436054888762533,0.6880053527757525,-0.0091489366173744,-0.1237129941582679,0.1765779256820678,-0.0715039148926734,walking
1761505879206036000,0.3591249883264303,0.648152942597866,0.0419447062820196,-0.1741231083869934,0.1645538657903671,-0.024834893643856,walking
1761505879226192000,0.4566282079622149,0.5773652959302067,0.0717290191709995,-0.2096525877714157,0.129275232553482,0.0197065100073814,walking
1761505879246348000,0.6281205006554722,0.3959983826935291,-0.0038479075998067,-0.2118454128503799,0.0375341027975082,0.0595695413649082,walking
1761505879266504000,0.7218919864170252,0.2511804541751742,-0.0814350051492452,-0.1656641513109207,-0.0595030151307582,0.0690542832016944,walking
1761505879286659800,0.6568931522838771,0.1700739503279328,-0.2037397808253765,-0.1510264724493026,-0.0984666496515274,0.0480924360454082,walking
1761505879306817000,0.5870379641607404,0.0504623592585325,-0.3771148185253143,-0.1903501749038696,-0.1038164645433425,0.0185627900063991,walking
1761505879326973000,0.3483114794977009,0.0498263994425535,-0.494836358064413,-0.268991082906723,-0.0487969443202018,0.0020342357456684,walking
1761505879347129000,0.1221998539969325,0.076905252765119,-0.4310638508558273,-0.3078884184360504,0.0906877145171165,0.0141119379550218,walking
1761505879367285000,0.0014047522313892,0.0718710579901933,-0.2337918047398328,-0.2823755443096161,0.2579722702503204,0.054467137902975,walking
1761505879387441200,-0.002585778709501,-0.0166436762869358,0.0059498483151197,-0.2059989720582962,0.3471463918685913,0.0963972955942154,walking
1761505879407598000,0.1860237991318106,-0.1306508714780211,0.1521253289222717,-0.1216325983405113,0.3146112561225891,0.0689031928777694,walking
1761505879427754200,0.3313189897730946,-0.3073556381225585,0.236087222200632,-0.0705455839633941,0.2171799540519714,0.0156744830310344,walking
1761505879447910100,0.4410306797273456,-0.4178393353626132,0.2141653132498264,-0.0570779033005237,0.0782025828957557,-0.0552233383059501,walking
1761505879468066000,0.4839985915772616,-0.3882479146972298,0.0652232905387878,-0.0652360171079635,-0.0630287081003189,-0.1425031721591949,walking
1761505879488222200,0.3863208921574056,-0.3557935058161616,-0.0100087683171033,-0.0412931218743324,-0.1577339172363281,-0.1918291300535202,walking
1761505879508379000,0.341411636981368,-0.2307978836208581,-0.0935714331448078,0.0240458454936742,-0.1793461591005325,-0.2188267707824707,walking
1761505879528535000,0.1870958122774958,-0.1112505899593234,-0.1246913785517215,0.0718633234500885,-0.1348963379859924,-0.2006359100341797,walking
1761505879548691000,0.1359276428371667,-0.0319204481348395,-0.1837912177741527,0.047659657895565,-0.0857629999518394,-0.1621333211660385,walking
1761505879568847000,0.1115660856492817,-0.0609887217089533,-0.1310731885433197,-0.0139222145080566,-0.0126768099144101,-0.1088764816522598,walking
1761505879589003000,0.1332870652005076,-0.1055009403914213,-0.0066004211783409,-0.0719887465238571,0.0522616244852542,-0.0716790780425071,walking
1761505879609160000,0.2721232889607548,-0.153738024815917,0.1433142459571361,-0.0936788991093635,0.0476289726793766,-0.071507878601551,walking
1761505879629316000,0.3499742981433868,-0.1862035396128892,0.3024772184312343,-0.065882883965969,-0.0121476985514163,-0.068508006632328,walking
1761505879649472000,0.4260884005308151,-0.2268751572191715,0.3642828094810247,-0.0234731510281562,-0.0961159169673919,-0.0700428187847137,walking
1761505879669628200,0.4757613629773259,-0.2973462852835655,0.316562442407012,-0.001229325775057,-0.1634719669818878,-0.0716625228524208,walking
1761505879689784000,0.4384717890247702,-0.3207052413001656,0.2561649645894766,0.0160224232822656,-0.1717462837696075,-0.067346803843975,walking
1761505879709941200,0.4522035233877599,-0.3281713393971324,0.2122036577880382,0.0274234376847744,-0.1513314545154571,-0.0507174991071224,walking
1761505879730097200,0.4630681778818368,-0.3641483694463968,0.1936106009989976,0.031037176027894,-0.1266954690217971,-0.017626017332077,walking
1761505879750253000,0.5175225293859839,-0.4158770953789353,0.177108379009366,0.0386812686920166,-0.090554729104042,0.0125753115862607,walking
1761505879770409200,0.6344426894143224,-0.4730313534915447,0.095545948088169,0.0563550218939781,-0.084589660167694,0.0184475593268871,walking
1761505879790565000,0.6809374602161348,-0.5199941801965237,0.0672363839268684,0.0943286046385765,-0.0630173087120056,0.0226818118244409,walking
1761505879810722000,0.7655437888778746,-0.5602233147323131,0.0815215143889188,0.1309146136045456,-0.0116405310109257,0.0376059189438819,walking
1761505879830878000,0.813005505015701,-0.5970747895285486,0.0710392833411693,0.1293817907571792,0.0196642205119133,0.080288790166378,walking
1761505879851034000,0.9896804610438644,-0.7319687054038048,0.0032657237976789,0.1161327064037323,2.98889353871e-05,0.139873132109642,walking
1761505879871190000,1.153739242735505,-0.851615952308476,-0.0904611921697855,0.1185190454125404,-0.0591609850525856,0.1892421692609787,walking
1761505879891346000,1.0813201954737306,-0.727162181904912,-0.1468032571166753,0.1086821854114532,-0.1203453317284584,0.215229332447052,walking
1761505879911503000,0.8716573082096875,-0.4741375611677765,-0.1606114177167415,0.0459732823073864,-0.1446398198604583,0.2331239581108093,walking
1761505879931659000,0.5497166798956692,-0.0810845842763781,-0.1147124208509922,-0.0359297059476375,-0.1360604166984558,0.2981054782867431,walking
1761505879951815200,0.2607667592965066,0.2768681454002857,-0.0604424860030412,-0.0984739437699318,-0.118760846555233,0.4044706523418426,walking
1761505879971971800,0.1848776978366076,0.5221034274354577,0.0141430916428565,-0.0830715000629425,-0.1083873882889747,0.5183333158493042,walking
1761505879992128000,0.2883760662339628,0.5084264919996261,0.1009615433961153,0.0297004394233226,-0.0681306347250938,0.627853274345398,walking
1761505880012284700,0.5170167718209326,0.345456820718944,0.0652355654984712,0.1483770310878753,-0.0551399029791355,0.6947985291481018,walking
1761505880032440800,0.7479502645201981,0.1092623387515544,0.0049590837121009,0.202965497970581,-0.0561287254095077,0.7158721685409546,walking
1761505880052596700,0.8925047197967767,-0.072311787495017,-0.0410229152619838,0.1769690960645675,-0.0551796965301036,0.7102116346359253,walking
1761505880072752600,0.9541584082204848,-0.1923711223319172,-0.1891606358528137,0.0927527397871017,-0.0585406497120857,0.6855020523071289,walking
1761505880092908800,0.8419829585012047,-0.2275336211279034,-0.3362999930560588,-0.0175802744925022,0.0143133895471692,0.6584556102752686,walking
1761505880113065700,0.6259852421924471,-0.1500280643820762,-0.4201496581315994,-0.1079190149903297,0.1303173601627349,0.6225327253341675,walking
1761505880133222000,0.4630621134672313,0.1066048099800944,-0.486951157772541,-0.1120438575744628,0.1727121919393539,0.5542347431182861,walking
1761505880153377800,0.3968715122662484,0.3323211525529623,-0.3912836291313171,-0.035779882222414,0.2488250583410263,0.4834605455398559,walking
1761505880173534000,0.2889236171141267,0.4472793648585677,-0.2387041267007589,0.0229209996759891,0.379190444946289,0.4979450106620788,walking
1761505880193689900,0.2943522910993546,0.5614683463573455,-0.1038444053560495,0.0080798706039786,0.4811160564422607,0.5783566236495972,walking
1761505880213847000,0.3737028911899775,0.6203723707467317,0.0389677362978458,-0.0464222952723503,0.4936786293983459,0.6743118762969971,walking
1761505880234003000,0.3981101141504943,0.6608396979525685,0.13387012578547,-0.0663929656147956,0.4104478657245636,0.7625928521156311,walking
1761505880254158800,0.3653571607142686,0.6820934983834623,0.2375952886760234,-0.0031911986880004,0.3042325377464294,0.8389822840690613,walking
1761505880274315000,0.3107052408114075,0.6901768515959381,0.215132112455368,0.0995454713702201,0.2079397290945053,0.895591139793396,walking
1761505880294471000,0.215503283855319,0.7281509006813168,0.1216962883889675,0.1550122797489166,0.1529980897903442,0.9385716915130616,walking
1761505880314627800,0.1919294429790228,0.7212541269049048,-0.0016080197185277,0.1430282890796661,0.1433242410421371,0.957327365875244,walking
1761505880334783700,0.1306238373406231,0.7492743527308106,-0.0556581743359565,0.1086936518549919,0.1945036202669143,0.9666998982429504,walking
1761505880354939600,0.0072170917719602,0.8602338507890701,-0.0292249254405498,0.107166863977909,0.2671767473220825,0.9683481454849244,walking
1761505880375095800,-0.1933024848978966,0.8964882364749908,0.0811497584670782,0.1456343531608581,0.3640074431896209,1.00192129611969,walking
1761505880395251700,-0.2609743376325816,0.7547118676096201,0.126885673725605,0.1793980598449707,0.4575015008449554,1.040942907333374,walking
1761505880415409000,-0.2640927619140595,0.5154647200733423,0.1328840373575687,0.1670078188180923,0.5539305210113525,1.0658576488494873,walking
1761505880435564800,-0.1063948204912245,0.3094508568361401,-0.0324094006955623,0.1265846788883209,0.5721468925476074,1.0340418815612793,walking
1761505880455721000,0.0406963867213577,0.1805471212863922,-0.1315735392808914,0.107172816991806,0.5231304168701172,0.9839719533920288,walking
1761505880475876900,0.2380745966255664,0.0682169193968176,-0.2863356464475393,0.045297410339117,0.4567566215991974,0.9189351201057434,walking
1761505880496032800,0.1669508498713374,0.0433837991744279,-0.4559592226594686,-0.103785902261734,0.4134055376052856,0.8673186898231506,walking
