time,seconds_elapsed,z,y,x
1761432019611987000,0.079987060546875,0.09012333851754664,0.2873094599157572,0.22499204688630997
1761432019631928800,0.0999287109375,0.6560889962941407,0.0554848635956645,0.09202102536503225
1761432019651872000,0.1198720703125,1.0188152239829302,-0.21398528050780294,-0.0985771690102294
1761432019671815000,0.13981494140625,1.2006745969116688,-0.34858927352577446,-0.022837818219326435
1761432019691757000,0.159757080078125,1.014132619124651,-0.4666559732407331,0.3108528325885534
1761432019711700000,0.179699951171875,0.584813566109538,-0.4063569873616099,0.2255661569798365
1761432019731643000,0.199642822265625,0.24932021326124668,-0.38192426463365553,0.18762184544559568
1761432019751586000,0.2195859375,-0.0898158800035715,-0.4615864148914814,0.19879333739913999
1761432019771528000,0.23952783203125,0.23328034808635711,-0.35422669489085673,0.2048246169200167
1761432019791471000,0.25947119140625,0.525728339934349,-0.35565731221586466,0.5808210989398881
1761432019811414000,0.2794140625,0.3315244492173195,-0.6477773872837423,0.6334734059907495
1761432019831357000,0.29935693359375,0.23268588932454584,-0.5754305284753441,0.2206252299789339
1761432019851299000,0.319299072265625,0.14825170235931873,-0.5026218973740935,0.19672314352896064
1761432019871242000,0.339241943359375,0.1313385614812374,-0.4075798071548343,0.40602384641710665
1761432019891185200,0.35918505859375,-0.06731178725063801,-0.47320948653742667,0.47240887421164657
1761432019911128000,0.379128173828125,-0.09452712643444537,-0.45611017543748017,0.36828079307600853
1761432019931070200,0.3990703125,0.11377660130560398,-0.6094061555743218,0.22352971924878656
1761432019951013000,0.41901318359375,0.21651509124636648,-0.8181509050801395,0.0933951997950673
1761432019970956000,0.4389560546875,0.4184223959475755,-0.9956249025315046,0.04554846639502793
1761432019990898000,0.45889794921875,0.48778994668424125,-1.308844464251399,-0.05385265928395092
1761432020010840800,0.4788408203125,0.5533820705354213,-1.4628512230060993,-0.27536813436718655
1761432020030784000,0.498783935546875,0.8952630785942077,-1.4261466093346475,-0.20427125735357402
1761432020050727000,0.518726806640625,1.1904045473098754,-1.3568958168454468,-0.22390890955841167
1761432020070669000,0.5386689453125,1.434710147279501,-1.2952834102801978,-0.2895941002542153
1761432020090612000,0.558612060546875,1.3291110072106123,-1.3664092028610408,-0.18051979488804934
1761432020110555000,0.578554931640625,1.360315123769641,-1.273469637878984,-0.16490637496430427
1761432020130498000,0.598498046875,1.2572218290418387,-1.222957155868411,-0.13318850019685924
1761432020150440000,0.61843994140625,1.1447083795398474,-1.2450645043887196,-0.17555234520640223
1761432020170383000,0.638383056640625,0.5752811831325292,-1.2634338354244827,-0.0969948956543114
1761432020190326000,0.658325927734375,-0.18090952485799788,-1.2956710944235323,-0.17367805750081314
1761432020210268000,0.678267822265625,-0.5841074636667967,-1.1003175952799618,-0.35094584658928213
1761432020230211000,0.698211181640625,-1.012916813594103,-1.0428362971700726,-0.3575896685179323
1761432020250154000,0.718154052734375,-1.9218167878746986,-1.0272596655927597,-0.11863423393722623
1761432020270097000,0.738096923828125,-2.1403245142430065,-0.6254856221072376,-0.26814828438255933
1761432020290039000,0.7580390625,-1.7505004362702368,-0.21829627557471393,-0.31138496670387683
1761432020309982000,0.77798193359375,-0.9452812012165784,-0.17756006829962134,-0.14253821095018646
1761432020329925000,0.797925048828125,-0.4393856889992952,0.1803986527264118,-0.4224843116242438
1761432020349868000,0.817867919921875,-0.7785141834795475,0.5956551319889724,-0.6892487039003521
1761432020369810200,0.83781005859375,-1.737062862548232,0.7657543628886342,-0.3706456590438261
1761432020389753000,0.857753173828125,-1.9837351916491983,0.31450127209350465,0.22900239677252246
1761432020409696000,0.877696044921875,-0.5768722517162561,0.021749767254292965,0.3182780141532421
1761432020429639200,0.89763916015625,0.8458598729997873,-0.19534677714183926,0.06383663565309253
1761432020449580800,0.917580810546875,1.1775450657367705,-0.6006546938419342,-0.13578417924586683
1761432020469524000,0.93752392578125,0.7193278350174427,-0.691868750205636,-0.21263262378983197
1761432020489467000,0.957466796875,0.1529635333120823,-0.3354953986749053,0.11802255004597827
1761432020509409000,0.977408935546875,0.23630466434359548,-0.06252177649512887,0.5007148216437548
1761432020529352000,0.99735205078125,0.5122440044611692,0.04545315279439091,0.36982535563688723
1761432020549294800,1.017294921875,0.9361351872086524,-0.01121200662702322,-0.17458532680515199
1761432020569238000,1.037238037109375,1.1316454843491315,-0.33507673487141726,-0.15116879538241773
1761432020589179400,1.057179443359375,1.3137468493402003,-0.6831295634329319,0.16260153208803385
1761432020609122600,1.07712255859375,1.6470979294627903,-0.959990256179124,0.20282586258454247
1761432020629065500,1.0970654296875,1.485262522909045,-1.3427777135133743,-0.040246688458789134
1761432020649007600,1.117007568359375,1.190080722182989,-1.4551995392091572,-0.2848875117321499
1761432020668950500,1.136950439453125,0.9202396989405155,-1.1509336837954818,-0.4456711259443313
1761432020688893400,1.1568935546875,0.3506728018015623,-0.47816564764007924,-0.7137336682721972
1761432020708836600,1.176836669921875,-0.23451252022981642,-0.4770812134042382,-0.4486613572688773
1761432020728778500,1.196778564453125,-0.39204759924113747,-0.7194612521387637,-0.5561474435955286
1761432020748721700,1.2167216796875,-0.1949596775203943,-0.9065689009845256,-0.7905912094380706
1761432020768664600,1.23666455078125,-1.0160071808248758,-1.098249995225668,-0.6290899302095174
1761432020788607500,1.256607421875,-2.171017758670449,-1.1521714088968933,-0.03769135968647897
1761432020808549400,1.27654931640625,-2.267028401660919,-0.44357291155606504,0.29242625494021923
1761432020828492300,1.2964921875,-1.3297142338007688,-0.41000791108459234,1.252379649707675
1761432020848435500,1.316435546875,-0.17210253354609012,-0.6376873704239726,1.6330923465944827
1761432020868377300,1.33637744140625,0.3002794161260128,-0.6417185256361961,1.4804695895440876
1761432020888320500,1.356320556640625,0.05816869585216045,-0.08228343867212533,0.9947371599115431
1761432020908263400,1.376263427734375,-0.6380997506171464,0.20898104247972368,1.1116068318616599
1761432020928206300,1.396206298828125,-1.4976643238425253,-0.0013847323566675185,1.578357132322341
1761432020948148500,1.4161484375,-0.9216162479907274,0.17871522968411443,1.506972104283422
1761432020968091400,1.43609130859375,0.3165571817100048,0.2487837682969868,1.0679496956385672
1761432020988034600,1.45603466796875,0.5346370380550622,0.006431055960804223,1.1948919218569993
1761432021007977500,1.4759775390625,0.2883633528828621,0.010540244845300912,1.533980668848753
1761432021027919600,1.495919677734375,0.25023382097482677,-0.07583762353360653,1.5913323492296039
1761432021047862500,1.515862548828125,0.5555675978809594,-0.2118549904808402,1.307749654752016
1761432021067805400,1.535805419921875,0.8805074080109596,-0.4252013885632157,0.7664449755012989
1761432021087747600,1.55574755859375,1.3003197970122098,-0.5997589140459895,0.6224426011495292
1761432021107690500,1.5756904296875,1.6005296550333499,-0.5814692241176963,0.6448201449133455
1761432021127633700,1.595633544921875,1.493181625470519,-0.39990211213380095,0.9122131904818117
1761432021147576600,1.61557666015625,1.13994744874835,-0.5097241305947303,0.9009522301465273
1761432021167518500,1.6355185546875,1.023938558346033,-0.6562538314670324,0.5307455105092376
1761432021187461400,1.65546142578125,0.8731605523794889,-0.8530532916352153,0.17625709594227373
1761432021207404300,1.675404296875,0.9487374791502952,-0.9249228883206844,-0.05074615833570715
1761432021227346400,1.695346435546875,0.7078180144876242,-1.0781307517826557,0.013775769867538474
1761432021247289300,1.715289306640625,0.5533563515722751,-1.1796171958357096,0.22389161136373875
1761432021267232500,1.735232421875,0.3221750215917826,-0.7931593794256449,0.06327913420107215
1761432021287175400,1.755175537109375,-0.23045886092483997,-0.3933437765315175,-0.0688974855395034
1761432021307117600,1.77511767578125,-1.1293828001141548,0.06809972275793552,-0.2888284496439621
1761432021327060500,1.795060546875,-1.8012959730058908,0.48629795456081626,-0.23946184973288326
1761432021347003400,1.81500341796875,-2.083959652942419,0.20864625756740568,0.6905506533443927
1761432021366945500,1.834945556640625,-1.2715467069923876,-0.20905162349790332,0.8993974749851972
1761432021386888400,1.854888427734375,-0.0615910715162754,-0.04682634084373712,-0.6304255627274513
1761432021406831600,1.87483154296875,0.0033837972193956375,-0.3013549364030361,-1.2586375410586594
1761432021426774500,1.8947744140625,-1.009544706812501,0.28379034587889906,-1.3934836722694337
1761432021446716700,1.914716552734375,-1.3525450742900371,1.044893960352242,-0.9976964481085538
1761432021466659600,1.93465966796875,-0.6873322758197784,1.2946747768625617,-0.5508234720937908
1761432021486602500,1.9546025390625,0.336821971103549,0.9817886848807335,-0.8106271585118026
1761432021506544600,1.974544677734375,0.786855310845375,-0.011882160973548888,-0.6472371429271996
1761432021526487600,1.994487548828125,1.2962024248212576,-0.2912751486763358,-0.5993957067567854
1761432021546430500,2.014430419921875,1.735567071032524,-0.4420844265639782,-0.43240434221196916
1761432021566373600,2.03437353515625,1.8132757491350173,-0.19219810385257005,-0.5367982712095603
1761432021586315800,2.054315673828125,1.2640157269656658,0.2875906149446964,-0.5721874914335087
1761432021606259000,2.074259033203125,0.23931202946603297,0.7744280832096934,-0.43295770177841186
1761432021626201900,2.094201904296875,-0.35853345217406746,0.9692185416430235,-0.15446569976964963
1761432021646144000,2.11414404296875,0.07508125220835209,0.6054971654370427,0.2645839429644868
1761432021666087000,2.1340869140625,1.005094741666317,0.05977876139730215,-0.11139108527540229
1761432021686029800,2.15402978515625,1.7058119842380284,-0.49841889272630213,-0.9675927670720964
1761432021705973000,2.173972900390625,1.3561246863424776,-0.9628060442522167,-1.2453029893197118
1761432021725915000,2.193914794921875,0.11801730761528015,-0.8860527671784162,-0.8222320369139313
1761432021745858000,2.213858154296875,-0.8611042038828134,-0.297815364100039,-0.21787837895620613
1761432021765801000,2.233801025390625,-1.2754431299090385,-0.02416121231019497,0.23855777703262865
1761432021785742800,2.253742919921875,-0.8605956698387861,-0.053281508332490915,0.2987326068091206
1761432021805685800,2.273685791015625,-0.18886720586419103,0.047203065201640124,-0.061987235793587746
1761432021825628700,2.293628662109375,-0.7997907802641391,0.034869361068308354,-0.5130252544993534
1761432021845571800,2.31357177734375,-1.8136206170499323,-0.25812574326843024,-0.4376878355728462
1761432021865513700,2.333513671875,-2.207189726769924,-0.6082262981399893,0.5141883069293574
1761432021885457000,2.353456787109375,-1.104329607400298,-0.8758756565570831,1.1867081770099699
1761432021905399800,2.37339990234375,0.11659691942334174,-1.0896683371022342,0.927608693338558
1761432021925342000,2.393342041015625,0.36353228337466714,-0.9696239075735211,0.43730804247502236
1761432021945284900,2.413284912109375,0.038653848043084145,-0.22869477386176584,0.47589331879392266
1761432021965227800,2.433227783203125,-1.1684884835779665,0.4157461624756455,0.38039712813161314
1761432021985171000,2.4531708984375,-1.4090367768406866,0.46592181374728675,0.6617690146919339
1761432022005112800,2.47311279296875,-0.03457797690629959,0.5405825024560094,0.16331326055396347
1761432022025056000,2.493055908203125,0.9967565369099378,0.1810486410677433,-0.22068981964774428
1761432022044999000,2.5129990234375,1.1478911012291908,-0.22288901019245386,0.15819778070375323
1761432022064941000,2.532941162109375,0.8545856157690286,-0.4172834550455212,0.7540685282047838
1761432022084884000,2.552884033203125,0.7570131302893162,-0.3011503537416458,1.0351536337129772
1761432022104827000,2.572826904296875,0.9102461281925439,0.03936901057511568,0.6976037867262959
1761432022124770000,2.59277001953125,1.2124199797630308,0.41026188584566115,0.24621618283130228
1761432022144712000,2.6127119140625,0.9981599739670753,0.8671993058875203,0.12573303309176118
1761432022164654800,2.63265478515625,0.6596177549421787,1.114790503399074,0.5274104478023945
1761432022184598000,2.652597900390625,0.4850520461529493,0.6533528493285179,0.706070220972225
1761432022204539600,2.67253955078125,0.8573650173544883,-0.06617430765330791,0.008122296983376145
1761432022224482800,2.69248291015625,1.2370540702819823,-0.5510758394196629,-0.9336875748608261
1761432022244425700,2.71242578125,1.4834639490544794,-0.8467743574962019,-1.010385176224634
1761432022264367900,2.732367919921875,1.4443424834996461,-0.6478282406881452,-0.3112121674202382
1761432022284310800,2.752310791015625,1.3585136273056269,-0.3635480654656887,0.6887494491413235
1761432022304253700,2.772253662109375,1.2380460039287804,-0.20516572197526692,0.869862972138822
1761432022324196900,2.79219677734375,0.9875164148777723,-0.23666502208858728,0.6156359898746013
1761432022344138800,2.812138671875,0.4740256252259016,-0.4723284659191966,0.16896984327724202
1761432022364082000,2.83208203125,-0.56261634734869,-0.8083318141162396,0.13231485916748642
1761432022384024800,2.85202490234375,-1.5033195731252431,-1.1147057477250695,0.6250235575534403
1761432022403967000,2.871967041015625,-1.7001099732041358,-1.5163658094421029,1.349205116212368
1761432022423910000,2.891909912109375,-0.8915326598942279,-0.5117208573698997,0.4640886800359934
1761432022443852800,2.911852783203125,-0.13427344588935375,0.028052959051728246,-0.27477983135152606
1761432022463796000,2.9317958984375,-0.9733721541911363,0.5357493832111359,-0.5130485988423228
1761432022483737900,2.95173779296875,-2.6070775181174275,1.4102125426217913,-0.3633279199089855
1761432022503681000,2.971680908203125,-3.457767295491695,2.0728543215602637,-0.2245004091781564
1761432022523624000,2.9916240234375,-2.441018940910697,1.8383336180239915,-0.014961598101642447
1761432022543565800,3.01156591796875,-0.5983639525562524,1.110137416896224,-0.37564427104871717
1761432022563508700,3.0315087890625,1.3385796773016452,0.6848910201475024,-1.0264814477618782
1761432022583452000,3.051451904296875,2.407713468158245,0.1705523814946413,-1.5422332411482929
1761432022603394000,3.07139404296875,2.3040666312009095,0.059089902350306506,-1.6229045684486627
1761432022623337000,3.0913369140625,0.7925655051857232,0.12266747150868176,-0.7652000900067388
1761432022643280100,3.111280029296875,-0.240516729080677,0.22755554069876668,-0.387350016009435
1761432022663223000,3.13122314453125,-0.062464347219467156,0.3931958924934268,-0.6498087469808757
1761432022683165200,3.151165283203125,0.839916454425454,0.1975707368016243,-0.7865854078628123
1761432022703108000,3.171108154296875,1.6285814450412988,-0.3060582917883992,-0.6478820897672325
1761432022723051000,3.191051025390625,1.9038889169961213,-0.8620236568152904,-0.29464480777252466
1761432022742993200,3.2109931640625,1.9669412932366133,-1.2265355988770723,-0.002152026934735477
1761432022762936000,3.23093603515625,2.1147727243572474,-1.3673621196717023,-0.09193170311376452
1761432022782879200,3.250879150390625,2.1526661094218493,-1.0914476217344402,-0.3653326107949018
1761432022802822100,3.270822265625,1.5030179598301647,-0.6838236831769346,-0.3450899236353114
1761432022822764000,3.290763916015625,0.11669628814458846,-0.10243716890662909,0.27298531261757014
1761432022842707200,3.310707275390625,-0.6673585783272982,0.33830081148445607,0.6473505401737988
1761432022862650000,3.330650146484375,-1.201252104538679,0.8511559335812926,0.30917065165527163
1761432022882592300,3.35059228515625,-2.0518805071145296,0.5311560640715063,0.7064646271172911
1761432022902535200,3.37053515625,-2.6830969279587267,0.009041384589672088,1.1721028746828437
1761432022922478000,3.39047802734375,-2.482905195003748,-0.3311702289521694,0.7205916444081812
1761432022942420000,3.410419921875,-2.5681664804428816,-0.8434256315901875,0.7173868570175022
1761432022962363000,3.43036279296875,-2.217524073779583,-0.520729362603277,0.8539547705195843
1761432022982306000,3.45030615234375,-1.9939158094018696,0.5935559677526354,0.9316547538589686
1761432023002249000,3.4702490234375,-2.2657798629045485,1.2278824834413826,1.1836512736573814
1761432023022191000,3.490191162109375,-2.1656290513694283,1.0198312691576779,1.6207640492886304
1761432023042134000,3.510134033203125,-1.0720739359617233,0.6512725359231233,0.8123547129567712
1761432023062077000,3.530076904296875,0.12313830389082431,0.22714199146181344,-0.3736102444704622
1761432023082019000,3.55001904296875,0.9412848250567912,-0.11174217286854982,-0.22977677867850288
1761432023101962000,3.5699619140625,0.9735422500610351,-0.2589890820994973,0.5173727456517517
1761432023121905200,3.5899052734375,0.3410334513187408,0.09873831438869238,0.6048008537359535
1761432023141847000,3.609846923828125,-0.024230185893177984,-0.08552928872555494,-0.03540275555895641
1761432023161790200,3.629790283203125,0.6328495750039815,-0.2188759751588106,-0.3830361713983118
1761432023181733000,3.649733154296875,1.5234797331005334,-0.16579817270487546,-0.45928361784182486
1761432023201676000,3.669676025390625,1.8654700467526912,-0.12887743206471203,-0.23407621117178348
1761432023221618200,3.6896181640625,1.875651249027252,-0.13911445617973803,-0.015275730668287723
1761432023241561000,3.70956103515625,1.8942162487655876,-0.26857553335130213,0.11761736677857115
1761432023261504300,3.729504150390625,1.701961738550663,-0.6191852067887783,-0.17857874382287262
1761432023281446100,3.749446044921875,1.7225947767347096,-1.011782841128111,-0.45391777995973825
1761432023301389300,3.769389404296875,1.5350912604391573,-1.0297232792273163,-0.717446405185014
1761432023321332200,3.789332275390625,1.1422767684787511,-0.6975739761099219,-0.5763111837673932
1761432023341274000,3.809274169921875,0.18710779497623442,-0.532722144344449,0.2515715175856836
1761432023361217000,3.829217041015625,-0.18405308358073233,-0.6500374411702156,0.9534151886377483
1761432023381160000,3.849159912109375,-0.13924889621436595,-0.8099421719223261,0.7088637241482735
1761432023401103000,3.86910302734375,-0.5122971959531307,-0.8161068320319056,0.06006110373632982
1761432023421045000,3.889044921875,-1.331509885045886,-0.545809004932642,-0.24828303396692497
1761432023440988200,3.90898828125,-2.208117363008857,-0.9068322280958294,0.9848173850521444
1761432023460931000,3.92893115234375,-1.8307506155490874,-0.37643531182855366,0.9679075321096926
1761432023480873200,3.948873291015625,-0.27997663280963897,0.41519671189934015,-0.35036738911420107
1761432023500816100,3.968816162109375,0.18822773891687392,0.7457821267008781,-1.4206838138841091
1761432023520759000,3.988759033203125,-1.4766121834635733,1.0333458536386488,-1.4077297858953475
1761432023540701200,4.008701171875,-2.655772283181548,1.7410498863577841,-0.7569110581543296
1761432023560644000,4.02864404296875,-1.825061463996768,1.9040002684161066,-0.13287252958286552
1761432023580586200,4.048586181640625,0.17837386890053747,1.7749068555131553,-0.14680782369393855
1761432023600529200,4.068529052734375,1.1793319491535426,1.0500091114088892,-0.2346324202824384
1761432023620472300,4.088472412109375,1.4220201770544052,0.624528905904293,-0.21890333808977155
1761432023640414200,4.108414306640625,1.3522516443014143,0.663511255249381,0.03437164067924022
1761432023660357000,4.128357177734375,0.8989134177953004,0.7074801608353852,0.12003569823298603
1761432023680300300,4.14830029296875,0.5748305167555808,0.5805711062341928,0.091532620793581
1761432023700243200,4.1682431640625,0.28149580520093437,0.42110885855257507,-0.007634623064287006
1761432023720185300,4.188185302734375,0.39238019219636916,0.28013328467607496,-0.12020626902692019
1761432023740128300,4.208128173828125,0.8593523917794227,-0.16321809308379887,-0.12819920400958507
1761432023760071200,4.2280712890625,1.3433926305413246,-0.5837269399166107,-0.3397857528125867
1761432023780013300,4.248013427734375,1.5971055258035658,-0.9050754475563764,-0.624387159346044
1761432023799956200,4.267956298828125,1.416969907927513,-1.1630582752227783,-0.6043469724886119
1761432023819899400,4.2878994140625,0.8867951099783181,-1.147001166652143,-0.41398163702115415
1761432023839841300,4.30784130859375,0.32125673770308494,-0.8306149575948715,-0.24044622112773356
1761432023859784400,4.327784423828125,0.17287644052803516,-0.7310828624799847,-0.147429389658384
1761432023879727400,4.347727294921875,0.3075368399083614,-0.75032912248075,-0.2215946595329791
1761432023899669200,4.367669189453125,0.3186351570278406,-0.7906824679180979,-0.3607913871686905
1761432023919613400,4.387613525390625,-0.34188451519012447,-0.5271817536130547,-0.874435613816604
1761432023939556400,4.407556396484375,-0.7895914578109979,-0.501746283583343,-1.074531339051202
1761432023959499300,4.427499267578125,-1.495171337983012,-0.31327129190713165,-1.0112487342514098
1761432023979441200,4.447441162109375,-1.9491338338673114,-0.23829817624837157,0.6388923622995615
1761432023999384300,4.46738427734375,-0.9967138668119907,-0.1247638592660427,2.3302653406880793
1761432024019327500,4.487327392578125,0.14936346299350262,0.051017070531845087,1.7442013361260293
1761432024039270400,4.5072705078125,-0.09604746786952018,-1.1914528873190282,0.9138921565447002
1761432024059212300,4.52721240234375,-0.6446160006433725,-1.126667111414671,-0.6140816000394522
1761432024079155200,4.5471552734375,-1.4447376202970743,-0.8493377782434225,-1.8484515458039938
1761432024099098000,4.56709814453125,-1.043551021310687,-0.093347269000113,-0.6446013875961303
1761432024119040300,4.587040283203125,-0.05838263086378574,0.8745069985523819,0.9543738776020705
1761432024138983200,4.606983154296875,0.18819091403782368,1.2364102194204927,1.2369694607384503
1761432024158926300,4.62692626953125,0.27587562723159786,0.5171411288529634,0.9700159025657922
1761432024178868200,4.6468681640625,0.572907439738512,-0.35196401065587996,0.5236632971633225
1761432024198811400,4.666811279296875,1.190313946416974,-0.5012953249454498,0.09487109930021688
1761432024218754300,4.68675439453125,1.555961614510417,-0.27509850537925956,0.2411109138478525
1761432024238696400,4.706696533203125,1.3497995749741791,-0.08146189315617083,0.2126997342092916
1761432024258639400,4.726639404296875,0.9571393967926501,0.41916006257236,0.33999263702891763
1761432024278582300,4.746582275390625,0.7447866859227419,0.5900351001501083,0.5793146398996933
1761432024298524400,4.7665244140625,0.8037082459688186,0.2901876457005739,0.29358671355433763
1761432024318467300,4.78646728515625,1.1140303326815366,-0.2768953256681561,-0.364583034536615
1761432024338410500,4.806410400390625,1.5586305414587258,-0.7435241186410189,-0.829553904234618
1761432024358352100,4.82635205078125,1.488996448740363,-0.8059116012319922,-0.5944236904978751
1761432024378295300,4.84629541015625,0.777601160287857,-0.2456830258026719,-0.26364297231994566
1761432024398238200,4.86623828125,0.31677637741863723,0.008499532797932625,0.20409884166242553
1761432024418181000,4.88618115234375,0.3075947075754404,-0.04127747454494238,0.2969885578870773
1761432024438123300,4.906123291015625,0.814157159268856,-0.25227000297755003,-0.07774968596631661
1761432024458066200,4.926066162109375,0.7655190928280353,-0.12248977685421704,-0.42160219502747054
1761432024478009300,4.94600927734375,-0.2248807685315609,0.023514438839256763,-0.5885105209313333
1761432024497951200,4.965951171875,-1.3148118482232094,0.00016191256344318388,-0.6859332226768136
1761432024517894100,4.98589404296875,-2.2389783652186392,-0.22030074726492166,-0.2468033533358015
1761432024537837300,5.00583740234375,-2.2802602236777543,-0.7751572742670774,0.7654887707550078
1761432024557779200,5.025779296875,-0.869456437164545,-1.3723451687812804,1.4470448743261397
1761432024577722400,5.045722412109375,0.3396832057535648,-0.06000467910766601,-0.33131898977309465
1761432024597664800,5.065664794921875,-0.017343348988890648,0.13218728726506232,-0.8920737810336052
1761432024617606700,5.085606689453125,-2.039786749216914,1.5165423350527882,-1.0320868665535001
1761432024637549600,5.105549560546875,-2.7829513868957756,1.5426973515287041,0.046339543707482514
1761432024657492700,5.12549267578125,-1.3510808469563722,1.8677055507197975,-0.43842663470879195
1761432024677435600,5.145435546875,0.1170084228336811,1.3912591280877589,-0.8551971717961132
1761432024697377800,5.165377685546875,0.3504623739212751,0.7104802194342017,-0.8637620249152183
1761432024717320700,5.18532080078125,-0.14042904590964317,0.4185325783237815,-0.6629805824387818
1761432024737263600,5.205263671875,-0.2590180159330368,0.3783531281486153,-0.40430984557345506
1761432024757205800,5.225205810546875,0.011085457637906073,0.45378889288306234,-0.6914353272244333
1761432024777148700,5.245148681640625,0.5453951634347438,0.2632565302856266,-0.9219654267545789
1761432024797091800,5.265091796875,0.6231926888644695,0.008312631923705339,-0.8576970257878302
1761432024817033700,5.28503369140625,0.9659130703568458,-0.09708704005032777,-0.7695444758865981
1761432024836976600,5.3049765625,1.5070277799934149,-0.23457360276728867,-0.5200007560677826
1761432024856919800,5.324919921875,1.961926679944992,-0.40917730547934766,-0.497850810514763
1761432024876861700,5.34486181640625,2.1372440838843585,-0.9394996952056884,-0.7176589519571512
1761432024896804900,5.364804931640625,1.7963894962638616,-1.1388187369793652,-1.0749124473232776
1761432024916747800,5.384747802734375,0.7364040575027465,-1.0768024257883428,-1.05878943390958
1761432024936690000,5.40468994140625,-0.3130909669041633,-0.559867340901494,-0.4255888900434598
1761432024956632800,5.4246328125,-0.2615618551969528,-0.45614013218432664,0.4884114030508324
1761432024976575700,5.44457568359375,0.50711365583539,-0.4574211119055748,0.4406546860218048
1761432024996517600,5.464517578125,0.5117600203365087,-0.27808424319177866,-0.16716167961042375
1761432025016460500,5.48446044921875,-0.9201005827307701,-0.606298544947803,0.021500480084784793
1761432025036403700,5.50440380859375,-1.8348434378206728,-0.8595800630554556,0.46785329326651987
1761432025056345600,5.524345703125,-2.4246032281607386,-0.9539256954431533,0.002407170739583671
1761432025076288800,5.544288818359375,-2.2622172019869087,-1.3141960544124245,-0.29812514243526383
1761432025096231700,5.564231689453125,-1.6292799486994742,-0.8780532928571104,-0.08465604955498128
1761432025116174600,5.584174560546875,-1.3247598262637852,0.24521394698619842,0.6945571855720132
1761432025136116700,5.60411669921875,-1.278379767882824,1.076654834011197,0.9086407388225197
1761432025156059600,5.6240595703125,-1.6196435208261013,0.9817693956583737,1.5956266854226588
1761432025176002800,5.6440029296875,-1.494129135453701,0.3009384645566344,1.5526336391314863
1761432025195944700,5.66394482421875,-0.22534663247764108,-0.170157536958158,0.7964894006311893
1761432025215888000,5.683887939453125,1.060417984959483,-0.225882054528594,0.44106706621497865
1761432025235830800,5.703830810546875,1.940303461679816,-0.14336363805681465,0.7788728607241063
1761432025255773000,5.72377294921875,1.8955086266636847,0.22356267167031763,1.1748860756605863
1761432025275715800,5.7437158203125,1.4145780443549156,0.6022504386007785,0.9133329882919787
1761432025295658800,5.76365869140625,0.9293442118942737,0.7208893852457404,0.605681289832294
1761432025315600600,5.7836005859375,0.9306254838764667,0.6569999736592174,0.7088068793945014
1761432025335543600,5.80354345703125,1.1224386800646782,0.5620534527689218,0.7850428545959294
1761432025355486700,5.82348681640625,1.5432897644639014,0.568895866009593,0.9355169091798364
1761432025375428600,5.8434287109375,1.9112614915907382,0.3369631331399083,1.0894329939763991
1761432025395371800,5.863371826171875,1.781433334672451,-0.04414689250141382,0.9977768198683857
1761432025415314700,5.883314697265625,1.4516823248684405,-0.35283261018395423,0.8234525916848331
1761432025435256800,5.9032568359375,1.154611933916807,-0.397052275660634,0.8013423936203121
1761432025455199700,5.92319970703125,0.7504664851248264,-0.22306261319369075,0.8214921783320606
1761432025475142700,5.943142578125,-0.009758008426427841,-0.3931318873465061,0.9446817009534686
1761432025495084800,5.963084716796875,-0.48567222387790676,-0.9188789319813251,1.2013156712941824
1761432025515027700,5.98302783203125,-0.3453215039014816,-1.2231170226052404,1.1502888830859213
1761432025534971000,6.002970947265625,-0.39461248129308224,-0.8380994681313634,0.5980909077685326
1761432025554912800,6.022912841796875,-0.7834966480672358,-0.18868308146893978,0.10735555528216063
1761432025574855700,6.042855712890625,-1.8723007695555687,0.5925669567152857,0.10501613428285345
1761432025594799400,6.06279931640625,-2.6222926229059693,0.7599351552158594,0.38559009366482494
1761432025614741200,6.0827412109375,-2.3161329165697095,-0.8037816034659743,1.771373128429055
1761432025634684400,6.102684326171875,-0.8851894283473491,-2.0157199371919035,1.7062981603197753
1761432025654627300,6.12262744140625,0.9641372928559779,-0.6593816080987454,-1.1481361620314419
1761432025674570200,6.1425703125,0.7454927883654833,-0.3376505308821797,-1.6663079491063952
1761432025694512000,6.16251220703125,-2.0534663150012493,1.1865230297014115,-1.4820438531234859
1761432025714455000,6.182455078125,-3.6424066545277833,1.7919751869529486,-0.9442672018684446
1761432025734398200,6.202398193359375,-2.7767338275551796,1.956675043027103,-0.8198196420099586
1761432025754340000,6.222340087890625,-0.1798059475302696,1.3981079710692166,-1.276416797246784
1761432025774283300,6.242283203125,1.3393044844448565,0.4724541381254792,-1.327626906132698
1761432025794226200,6.26222607421875,2.0731541812896728,0.02495148590505123,-0.7200905630182475
1761432025814168300,6.282168212890625,2.632806418135762,0.2341249822169542,-0.3250756018714979
1761432025834111200,6.302111328125,2.263826390749216,0.4276432287573814,-0.2851343443663791
1761432025854054100,6.32205419921875,1.3481143983662127,0.6235381413012743,-0.3132019529979676
1761432025873996300,6.341996337890625,0.9565665653407573,0.6943912544205785,-0.13671305759381502
1761432025893939200,6.361939208984375,1.0761059679567813,0.37701515754312276,-0.17294409893676638
1761432025913882400,6.38188232421875,1.2443798831254242,0.05221417136192322,-0.6137849551804363
1761432025933824300,6.40182421875,1.2932073346585033,-0.281136616499722,-0.8735752706602216
1761432025953767400,6.421767333984375,1.2575059066802263,-0.6262649359166622,-0.8461557872064411
1761432025973710300,6.44171044921875,0.7363783385396003,-0.7972197607323527,-0.7988333334088326
1761432025993652200,6.46165234375,-0.021596330258250234,-0.7491285145193338,-0.6241914906434715
1761432026013595400,6.481595458984375,-0.413074605178833,-0.32061347136348484,-0.08603707385091111
1761432026033538300,6.501538330078125,-0.40432138988077637,-0.20433102471679448,0.7244016311503947
1761432026053480200,6.521480224609375,-0.4462263486742973,-0.4024494585290551,0.7526775853030383
1761432026073423000,6.541423095703125,-0.6011871932834386,-0.4408958013013005,-0.027544278877228497
1761432026093366300,6.5613662109375,-1.078034890192747,-0.3351128290981054,-0.6235455208901316
1761432026113308200,6.58130810546875,-1.6807570379585026,-0.0736643711477518,-0.6993067181866616
1761432026133251000,6.6012509765625,-2.4527368512332437,-0.25365619663894173,0.26191589279901234
1761432026153194200,6.6211943359375,-2.4555811347484586,-0.8419652036488056,1.0022255429055542
1761432026173136100,6.64113623046875,-0.8271633558362722,-1.2068407183259724,0.7396397514883428
1761432026193079300,6.661079345703125,0.30321663862168785,-0.8861685025125742,-0.46868791745975613
1761432026213022200,6.681022216796875,0.17719839538037777,-0.2963064208418131,-0.602314699476026
1761432026232964400,6.70096435546875,-0.8550169929236173,0.20558774677962063,0.48991219953522086
1761432026252907300,6.7209072265625,-0.8070154708206653,0.844939251023531,1.5582868425875902
1761432026272850200,6.74085009765625,0.08529694127440451,1.2088555652797222,1.4071433643095195
1761432026292792300,6.760792236328125,0.5672399154961109,0.5533016987755894,0.5250771825492382
1761432026312735200,6.7807353515625,0.6340016676485538,0.1657031878978014,0.01568224737625569
1761432026332678400,6.800678466796875,0.38587913973927496,0.03609744155853987,0.20362747955732047
1761432026352620000,6.8206201171875,0.49158875444531436,0.26217297283262014,0.6429339658405632
1761432026372563500,6.8405634765625,0.7538917833983898,0.40276977652460333,0.9320423649370669
1761432026392506400,6.86050634765625,0.8996177666723728,0.5999012451261282,0.60849547047019
1761432026412448300,6.8804482421875,0.8294114270240068,0.5706476781129837,0.3504544098105281
1761432026432391200,6.90039111328125,1.1685387524604796,0.2294680963218212,0.275303124573268
1761432026452334000,6.920333984375,1.780519142436981,-0.3915758900761604,0.10423524957085027
1761432026472276200,6.940276123046875,1.8593693917900322,-1.0172700403675436,-0.5179163144765422
1761432026492219100,6.96021923828125,1.4707909299641846,-1.3448627030938862,-0.8277499235525727
1761432026512162300,6.980162353515625,0.7546072381913661,-1.135954287458956,-0.4835655704548582
1761432026532105200,7.000105224609375,0.2955424507319927,-0.4370476014405489,0.03181969117410481
1761432026552047400,7.02004736328125,0.044048985084891315,-0.08676087634712457,0.5287103879524394
1761432026571990300,7.039990234375,0.3512199142903089,0.16029548363536594,0.8381396540112793
1761432026591932700,7.0599326171875,0.7038526179879904,0.3474190607026219,0.47200317948758597
1761432026611874800,7.079874755859375,0.42861704222559927,0.32393969317674637,-0.2611684171662666
1761432026631817700,7.099817626953125,-0.4272387396097183,0.4368324973851442,-0.8609639186292887
1761432026651761000,7.119760986328125,-1.3908032010138034,0.5949085514053702,-0.5762508318822831
1761432026671702800,7.139702880859375,-1.9779536856383084,0.7212804303899407,-0.01539080841531977
1761432026691646000,7.15964599609375,-1.5258037921339274,0.22238895171582698,0.341653519445844
1761432026711588900,7.1795888671875,-0.12965455391705036,-0.36925621397942304,0.052819845637492834
1761432026731531000,7.199531005859375,0.7142483397960663,-0.6034332186445593,-0.37011089457999913
1761432026751474000,7.219473876953125,0.34520167691409587,0.17066490195840597,-1.007870855316147
1761432026771416800,7.239416748046875,-1.3365227447718382,1.0368024238333104,-0.9859333104047924
1761432026791359000,7.25935888671875,-2.483084058701992,1.628952324180305,-0.9913471521470695
1761432026811302000,7.279302001953125,-2.208634664881229,1.724494472876191,-1.0330049312464893
1761432026831245000,7.2992451171875,-1.1729705974280833,1.041861460788548,-1.006493575613573
1761432026851186700,7.319186767578125,-0.35061318056881424,0.5770449779346585,-0.6534418427862226
1761432026871129900,7.3391298828125,0.02323825224637985,0.14018237767219544,-0.10772707374198362
1761432026891072800,7.35907275390625,0.4187286854177713,0.1451131120726466,0.11547153212260454
1761432026911015000,7.379014892578125,0.38648411989510056,0.08231237250566482,-0.007264584175497293
1761432026930957800,7.398957763671875,0.3156348061680794,0.10456804345548153,-0.22030323148295283
1761432026950900700,7.418900634765625,0.4686474393188953,0.1951204210400581,-0.25180786535851657
1761432026970843000,7.4388427734375,0.895682180789113,0.14165478831231593,0.0948537463066168
1761432026990785800,7.458785888671875,1.3207102586120367,-0.05648761089742183,0.289562810066808
1761432027010729000,7.47872900390625,1.8398831855535507,-0.47413551534116266,0.15134029775811358
1761432027030670800,7.4986708984375,2.1202830122113228,-0.8758367858514189,-0.1956181596954353
1761432027050613800,7.51861376953125,1.6986387316077947,-1.1224179295375942,-0.5393860957456752
1761432027070557000,7.538556884765625,0.4541226548820734,-0.9108432173028588,-0.44092970357090233
1761432027090498800,7.558498779296875,-0.09582534955143927,-0.3687733988985419,-0.006411451644613407
1761432027110442000,7.57844189453125,-0.342857159614563,-0.19302724815309047,0.41347938658744093
1761432027130385000,7.598385009765625,-0.15282909327745436,-0.6327142581865192,0.43522137239407743
1761432027150327000,7.6183271484375,0.37289106335043903,-0.8840732837989925,-0.07860014704950154
1761432027170270000,7.63827001953125,0.051743631240725514,-0.831930716368556,-0.5084524666910991
1761432027190212900,7.658212890625,-0.5746002151310443,-0.677412939351797,-0.5144776087321341
1761432027210154800,7.67815478515625,-1.140258998915553,-0.4435094909310341,-0.5754589508522302
1761432027230097700,7.69809765625,-1.5265227540582418,-0.8977245002716779,0.2964600952998735
1761432027250040800,7.718040771484375,-1.3783786037266255,-1.411104523025453,0.5746487669805065
1761432027269982700,7.737982666015625,-0.9896242008119821,-1.1450248981431126,0.41396212860308584
1761432027289926000,7.75792578125,-0.4998638308376074,-0.8820350559696555,0.05648889867221005
1761432027309868800,7.777868896484375,-0.29376608870923515,-0.24410218635201453,-0.5777384400915354
1761432027329811000,7.79781103515625,-1.0512509281635283,0.2540972184047103,-0.7243268123485147
1761432027349753900,7.81775390625,-1.2357885803908109,0.7418462485566735,-0.17483133745547383
1761432027369696000,7.837696044921875,-0.5971265197157859,1.0646627829223871,0.4695083304645493
1761432027389639000,7.857638916015625,0.04074994353950023,0.9575447627231478,0.8202351640082896
1761432027409581800,7.877581787109375,0.5427572161465883,0.6183288822203874,0.8469001027677208
1761432027429524000,7.89752392578125,0.9366437212526798,0.23140374055951832,0.6929171632800251
1761432027449467000,7.917466796875,1.2844172944813965,0.3240121738910675,0.18101068367753176
1761432027469410000,7.93741015625,1.1349223140627145,0.5706690131619573,0.026891011733422055
1761432027489351700,7.9573515625,0.8747036901682614,0.8060735137954353,0.02345271698096767
1761432027509295000,7.977295166015625,0.7082055525004863,1.023315750272572,0.03601717939656228
1761432027529238000,7.997238037109375,1.1409352907419203,0.8294087966755032,0.1727514807078056
1761432027549179000,8.017178955078125,1.4451093762189149,0.5202548769593238,0.16529774890206753
1761432027569121800,8.037121826171875,1.7467109808593988,-0.1859539487659931,-0.12394395771790295
1761432027589064000,8.05706396484375,1.3379659293174744,-0.6139639650091528,-0.47392161686215545
1761432027609007400,8.07700732421875,0.7636760953098535,-0.5276610615625977,-0.2020853829481639
1761432027628950300,8.0969501953125,0.6415905153423548,-0.13733780189603567,0.4467185161054134
1761432027648892200,8.11689208984375,0.8368640811175108,0.07077829431742429,0.7938042532004416
1761432027668835000,8.1368349609375,0.7655144166529179,0.1673389724060893,0.8090440540388226
1761432027688778200,8.1567783203125,0.5360118335396051,0.02338467497974634,0.6327952875334769
1761432027708720000,8.17672021484375,0.5113748204112053,-0.16605740816295145,0.07321300608448218
1761432027728663300,8.196663330078126,0.4594184232026338,-0.37051059795469043,-0.34205662035401907
1761432027748606200,8.216606201171874,-0.21812486453056334,-0.47631198259741064,-0.5136404637882486
1761432027768548400,8.23654833984375,-1.5323516063421965,-0.3204100577458739,0.04266187810804695
1761432027788491300,8.2564912109375,-2.258048976391554,-0.6336933323517442,1.3206957916952669
1761432027808434200,8.27643408203125,-1.516141645297408,0.1686541466578841,0.7768404050484299
1761432027828376300,8.296376220703126,-0.50174248419106,0.4551183879211545,0.3064405508379452
1761432027848319200,8.3163193359375,-0.7620265745371579,0.9670999420538544,-0.693227982794866
1761432027868262400,8.336262451171875,-2.045223971834779,1.1912737313598394,-0.6688992318980396
1761432027888204300,8.356204345703125,-2.460809683051705,1.0691375902488827,-0.10139706700285896
1761432027908148200,8.376148193359375,-0.38580022928416724,0.39783962664604183,-0.2506389129106886
1761432027928091400,8.39609130859375,0.7626648724406957,-0.1801136983051896,-0.9803940156519413
1761432027948033300,8.416033203125,1.1557990978747605,-0.23197277261912821,-1.322165279725939
1761432027967976400,8.4359765625,0.4600310021430254,0.2273354682072997,-1.0337051154050976
1761432027987919400,8.45591943359375,-0.2936404165029526,0.5958204055532813,-0.5634483046608045
1761432028007861200,8.475861328125,-0.3553852172762155,0.8292091824501753,-0.6746679514925926
1761432028027804200,8.49580419921875,0.22354162888228893,0.644269963684678,-1.0271821433771402
1761432028047746300,8.515746337890626,0.8984130670577287,0.255839678157866,-1.1042191327631472
1761432028067689200,8.535689208984374,1.1547680012613535,0.08745382704734801,-0.8917879498295486
1761432028087632100,8.555632080078125,0.9832961668342352,0.025817455084621906,-0.6012644232381135
1761432028107574300,8.57557421875,0.7060767237782478,-0.16642390338778495,-0.47036626246813684
1761432028127517200,8.59551708984375,0.5824515131533146,-0.30872137351781126,-0.6271377732284367
1761432028147460000,8.615460205078126,0.46575405596494673,-0.5352405569061637,-0.5561505488680676
1761432028167402200,8.63540234375,0.16875614572763442,-0.34440643488317724,-0.2545850749868899
1761432028187345200,8.65534521484375,-0.16418986072540281,0.07775748568028211,0.012041616718424483
1761432028207288300,8.675288330078125,-0.2368617137044668,0.01981850693076849,0.2587314175439998
1761432028227230200,8.695230224609375,-0.20670506037175654,-0.11321195316016673,-0.18492287041889502
1761432028247173400,8.71517333984375,-0.5470511139482259,0.1201367839872837,-0.5577963798463345
1761432028267116300,8.7351162109375,-1.3424842835247517,0.20652941154390572,-0.4400046246152371
1761432028287058400,8.755058349609374,-1.7295652002692221,0.17931202653348444,-0.031332439663412516
1761432028307001300,8.77500146484375,-1.511497618883848,-0.48448184504956004,0.9248045226380228
1761432028326943200,8.794943115234375,-0.8442372402340174,-0.7373834239289164,0.5896739021549001
1761432028346886100,8.81488623046875,-0.4361228878110647,-0.6488716122612357,0.2569371545383706
1761432028366829000,8.8348291015625,-0.7135825693637132,-1.0590598483487963,1.079550774648413
1761432028386771200,8.854771240234374,-0.8612123404324055,-1.1810995433479548,1.0325221892308443
1761432028406714000,8.874714111328124,-0.6912070714265107,-0.42130818051695823,-0.19410490558827295
1761432028426657300,8.8946572265625,-0.7431950328171253,0.35222996811568735,-1.1489363724984227
1761432028446599200,8.91459912109375,-0.5570020145982504,0.33376170675009487,0.24308031422467902
1761432028466542300,8.934542236328125,0.19931787272989748,0.7881789606645703,0.8208505194276571
1761432028486485200,8.9544853515625,0.7743027032643556,0.712033294095099,0.6250228999663144
1761432028506427400,8.974427490234374,0.5982932254076003,0.2943643468633294,0.594183817327395
1761432028526370300,8.994370361328125,0.3418307391762733,0.2523784317880869,0.7660193705003708
1761432028546313200,9.014313232421875,0.4606979416191578,0.37838966076672076,1.16088721479401
1761432028566255400,9.03425537109375,0.9373901557058095,0.3883879076898098,0.8621480138473212
1761432028586198300,9.0541982421875,1.74588797403872,0.5563324447736143,0.4572748718352988
1761432028606140400,9.074140380859374,1.8323545436143873,0.683588120855391,0.293949025794398
1761432028626083300,9.094083251953125,1.3988462222158908,0.4653635953426361,0.6143963650770485
1761432028646026500,9.114026611328125,0.8053326323002576,0.050691784100234505,0.7857796444378793
1761432028665968400,9.133968505859375,0.7904688251674175,-0.2690776376545429,0.19664832472708074
1761432028685911300,9.153911376953126,1.0376455966591835,-0.442368211941421,-0.3108407768245786
1761432028705854500,9.1738544921875,1.0405196907907723,-0.17210691746026277,-0.28116918532876295
1761432028725796400,9.19379638671875,0.6321358737766742,-0.1420832428574562,0.2572238442589529
1761432028745739500,9.213739501953125,0.23775427863001822,0.10896394032686949,0.6964623616062104
1761432028765682400,9.233682373046875,0.4171773643225431,0.17967647593170402,0.8683631620351224
1761432028785624300,9.253624267578125,0.8611158943206071,0.022677695754170415,0.6766769532274455
1761432028805567200,9.273567138671876,0.5712964974105358,-0.12872954802662134,0.4081554881509393
1761432028825509400,9.29350927734375,-0.10345102212429046,-0.1304980190038681,0.28373397604916245
1761432028845452300,9.313452392578125,-0.7105301960557698,-0.30274171458631755,0.2443450551971793
1761432028865395200,9.333395263671875,-1.3384575122267006,-0.1924056091234088,0.06303491364903747
1761432028885337300,9.35333740234375,-1.6765040566891432,-0.8300798278048634,0.8354260111384093
1761432028905280300,9.3732802734375,-1.2429840448528529,-0.7042667517468333,0.6745819537095725
1761432028925223400,9.393223388671874,-0.8176362335562706,-0.22360417272448538,-0.31113855419475583
1761432028945165300,9.413165283203124,-1.3913964907318352,0.37162265084981916,-0.8551607853084802
1761432028965108500,9.4331083984375,-2.0998574792981146,1.3427014334067702,-1.0704787757247687
1761432028985051400,9.453051513671875,-2.3011130420923234,1.8371468924574552,-0.7908966951906681
1761432029004993500,9.47299365234375,-1.8143126909673213,1.4990630847245454,-0.18708825002554802
1761432029024936400,9.4929365234375,-0.6656874302446841,0.9872095408856868,-0.17495547529179603
1761432029044878600,9.512878662109374,0.24973405475914476,0.5128539530530571,-0.21743204169450325
1761432029064821500,9.532821533203125,1.0872434480428694,-0.029060967050492763,0.07089726278828457
1761432029084764400,9.552764404296875,1.5608277592420576,-0.24810353094786405,0.10031324468837119
1761432029104706300,9.572706298828125,0.8504980541944503,0.2092451002433896,-0.10505814679367467
1761432029124649200,9.592649169921875,-0.47553369170129295,0.7599342784330249,0.14818956037592143
1761432029144592400,9.61259228515625,-1.2903034299105405,0.8628063316255807,0.7688350124429911
1761432029164534300,9.6325341796875,-0.7353548407107591,0.7875956078186631,0.8712102950945496
1761432029184477400,9.6524775390625,0.8130646878570318,0.4985121239677071,0.32027996509280054
1761432029204419300,9.67241943359375,1.4863859739810228,0.1441632640019059,-0.1197179557870142
1761432029224362500,9.692362548828125,1.1184656847804784,-0.24731997935473918,0.13532696439712308
1761432029244305400,9.712305419921876,0.36693946146965023,-0.32723756567835804,0.2052344032973051
1761432029264247300,9.732247314453126,0.17906886542737482,-0.11641688668131828,0.4480164469614625
1761432029284190500,9.7521904296875,0.3792372175067663,0.22305150727778672,0.8977021423093974
1761432029304133400,9.77213330078125,0.8262024018496275,0.6927493324324488,1.0670569115173072
1761432029324075500,9.792075439453125,1.3820692749381065,0.6890905176639557,1.2521893878325818
1761432029344018400,9.812018310546875,1.1653940246939658,0.6888488178625702,0.7433293267212807
1761432029363961300,9.83196142578125,0.6837047329723834,0.44443215873390435,0.6433857281960547
1761432029383903200,9.8519033203125,0.17057283976078033,0.26611966463178394,0.6696718237057327
1761432029403846100,9.87184619140625,-0.4856318918675184,0.0072898647472262375,1.028694959092885
