time,seconds_elapsed,z,y,x
1761432019611987000,0.079987060546875,0.3612467646598816,-0.3298494219779968,0.2846105992794037
1761432019631928800,0.0999287109375,0.34976837038993835,-0.2768057882785797,0.3029382526874542
1761432019651872000,0.1198720703125,0.2911773920059204,-0.15642507374286652,0.1820942759513855
1761432019671815000,0.13981494140625,0.24290162324905396,-0.12137003242969513,-0.00190304487477988
1761432019691757000,0.159757080078125,0.2524808943271637,-0.11471405625343323,-0.10923445224761963
1761432019711700000,0.179699951171875,0.23069466650485992,-0.06458225101232529,-0.11893516778945923
1761432019731643000,0.199642822265625,0.1667364239692688,-0.0786224752664566,-0.07594725489616394
1761432019751586000,0.2195859375,0.10150600224733353,0.06264254450798035,-0.030620930716395378
1761432019771528000,0.23952783203125,0.09446331858634949,0.1232181042432785,-0.11501240730285645
1761432019791471000,0.25947119140625,0.11710833013057709,0.06796883791685104,-0.17871899902820587
1761432019811414000,0.2794140625,0.07924500107765198,0.04884161427617073,-0.19826266169548035
1761432019831357000,0.29935693359375,-0.03524697571992874,0.014824224635958672,-0.22895482182502747
1761432019851299000,0.319299072265625,-0.09164770692586899,0.05042020231485367,-0.2747839093208313
1761432019871242000,0.339241943359375,-0.03147069364786148,0.13821960985660553,-0.2970976233482361
1761432019891185200,0.35918505859375,0.03468918427824974,0.1488105207681656,-0.2454032152891159
1761432019911128000,0.379128173828125,0.10121393203735352,0.1753239929676056,-0.15261085331439972
1761432019931070200,0.3990703125,0.1685439646244049,0.2479260265827179,-0.12149554491043091
1761432019951013000,0.41901318359375,0.2651869058609009,0.3766742944717407,-0.06387878209352493
1761432019970956000,0.4389560546875,0.33455660939216614,0.385046124458313,0.00029824755620211363
1761432019990898000,0.45889794921875,0.2959151268005371,0.4080776572227478,0.07217489182949066
1761432020010840800,0.4788408203125,0.23019707202911377,0.433048814535141,0.12934668362140656
1761432020030784000,0.498783935546875,0.15729795396327972,0.3500913679599762,0.141868457198143
1761432020050727000,0.518726806640625,0.0911160409450531,0.2186942994594574,0.10122339427471161
1761432020070669000,0.5386689453125,0.022833669558167458,0.10109846293926239,0.007401595823466778
1761432020090612000,0.558612060546875,-0.011651367880403996,0.12090006470680237,-0.08361120522022247
1761432020110555000,0.578554931640625,-0.0456719845533371,0.0802101194858551,-0.14433734118938446
1761432020130498000,0.598498046875,-0.0980810672044754,-0.03481949493288994,-0.16537876427173615
1761432020150440000,0.61843994140625,-0.15159109234809875,-0.1683652698993683,-0.16280966997146606
1761432020170383000,0.638383056640625,-0.19708070158958435,-0.3850683867931366,-0.12197934091091156
1761432020190326000,0.658325927734375,-0.33154356479644775,-0.524682343006134,-0.06228743493556976
1761432020210268000,0.678267822265625,-0.47647061944007874,-0.5930387377738953,-0.08312596380710602
1761432020230211000,0.698211181640625,-0.5189482569694519,-0.4467887580394745,-0.15153026580810547
1761432020250154000,0.718154052734375,-0.48843035101890564,-0.0810798704624176,-0.1512262225151062
1761432020270097000,0.738096923828125,-0.45044025778770447,0.32060644030570984,-0.12154844403266907
1761432020290039000,0.7580390625,-0.4087611138820648,0.5142136216163635,-0.1794111281633377
1761432020309982000,0.77798193359375,-0.40861865878105164,0.3865744173526764,-0.3112192749977112
1761432020329925000,0.797925048828125,-0.4898104965686798,-0.12016558647155762,-0.4288645088672638
1761432020349868000,0.817867919921875,-0.5331253409385681,-0.47820261120796204,-0.344646692276001
1761432020369810200,0.83781005859375,-0.389213889837265,-0.37248992919921875,0.033539481461048126
1761432020389753000,0.857753173828125,-0.20227280259132385,0.10453483462333679,0.3916453421115875
1761432020409696000,0.877696044921875,-0.06416818499565125,0.3653603494167328,0.3976782262325287
1761432020429639200,0.89763916015625,-0.07579278945922852,0.26232245564460754,0.18818385899066925
1761432020449580800,0.917580810546875,-0.2813691198825836,-0.05553781986236572,-0.015247323550283909
1761432020469524000,0.93752392578125,-0.43654152750968933,-0.10200925171375275,-0.07123804837465286
1761432020489467000,0.957466796875,-0.38465383648872375,0.10411621630191803,-0.023746691644191742
1761432020509409000,0.977408935546875,-0.2113858163356781,0.2573854923248291,0.08393397927284241
1761432020529352000,0.99735205078125,-0.10450594127178192,0.23140403628349304,0.18685483932495117
1761432020549294800,1.017294921875,-0.1028187945485115,0.10587750375270844,0.20926600694656372
1761432020569238000,1.037238037109375,-0.06090416759252548,0.07756008207798004,0.20932278037071228
1761432020589179400,1.057179443359375,0.03312423452734947,0.13799189031124115,0.14658723771572113
1761432020609122600,1.07712255859375,0.09124160557985306,0.14464716613292694,0.023485034704208374
1761432020629065500,1.0970654296875,0.07614968717098236,0.10534767061471939,-0.07140467315912247
1761432020649007600,1.117007568359375,0.012626257725059986,-0.029643837362527847,-0.14298409223556519
1761432020668950500,1.136950439453125,-0.02774970605969429,-0.24235406517982483,-0.14530061185359955
1761432020688893400,1.1568935546875,0.03261658921837807,-0.36155641078948975,-0.023306114599108696
1761432020708836600,1.176836669921875,0.14664989709854126,-0.3052498400211334,0.13130466639995575
1761432020728778500,1.196778564453125,0.21151810884475708,-0.22703175246715546,0.12338624894618988
1761432020748721700,1.2167216796875,0.15983329713344574,-0.4179493188858032,0.012280174531042576
1761432020768664600,1.23666455078125,0.06326550245285034,-0.6199929118156433,0.09171298146247864
1761432020788607500,1.256607421875,0.030572406947612762,-0.5793150663375854,0.36910155415534973
1761432020808549400,1.27654931640625,0.1259438842535019,-0.27613985538482666,0.5449374318122864
1761432020828492300,1.2964921875,0.3139299154281616,0.03145919367671013,0.45237886905670166
1761432020848435500,1.316435546875,0.414985328912735,0.07857947051525116,0.1411765217781067
1761432020868377300,1.33637744140625,0.363158643245697,-0.13717329502105713,-0.1297697275876999
1761432020888320500,1.356320556640625,0.3085673451423645,-0.30462756752967834,-0.2955510914325714
1761432020908263400,1.376263427734375,0.38441964983940125,-0.19599303603172302,-0.23806355893611908
1761432020928206300,1.396206298828125,0.5492073893547058,0.11835101991891861,0.030621055513620377
1761432020948148500,1.4161484375,0.6390309929847717,0.21715442836284637,0.11603488773107529
1761432020968091400,1.43609130859375,0.619253933429718,0.1287519633769989,0.019934197887778282
1761432020988034600,1.45603466796875,0.6241753101348877,0.10756481438875198,-0.0035228454507887363
1761432021007977500,1.4759775390625,0.704949140548706,0.20021837949752808,0.07843822240829468
1761432021027919600,1.495919677734375,0.7936212420463562,0.3377000689506531,0.16794325411319733
1761432021047862500,1.515862548828125,0.8108589053153992,0.4929511249065399,0.19724833965301514
1761432021067805400,1.535805419921875,0.7437355518341064,0.6458413600921631,0.1883530467748642
1761432021087747600,1.55574755859375,0.62459796667099,0.6155081987380981,0.15108081698417664
1761432021107690500,1.5756904296875,0.5519610047340393,0.4297132194042206,0.14378474652767181
1761432021127633700,1.595633544921875,0.5984760522842407,0.34744542837142944,0.1797397881746292
1761432021147576600,1.61557666015625,0.6234389543533325,0.4115457832813263,0.210502028465271
1761432021167518500,1.6355185546875,0.5769841074943542,0.5131581425666809,0.22280164062976837
1761432021187461400,1.65546142578125,0.4842613935470581,0.4726716876029968,0.21082690358161926
1761432021207404300,1.675404296875,0.3829306364059448,0.36861440539360046,0.16769228875637054
1761432021227346400,1.695346435546875,0.28953418135643005,0.30212655663490295,0.12243585288524628
1761432021247289300,1.715289306640625,0.20521917939186096,0.18955808877944946,0.07045102119445801
1761432021267232500,1.735232421875,0.12884686887264252,-0.010160151869058609,0.024378269910812378
1761432021287175400,1.755175537109375,0.05617830902338028,-0.3076328635215759,0.08370301872491837
1761432021307117600,1.77511767578125,-0.017894510179758072,-0.531898558139801,0.25283336639404297
1761432021327060500,1.795060546875,0.017622409388422966,-0.5310842990875244,0.4562462568283081
1761432021347003400,1.81500341796875,0.2512758672237396,-0.26950010657310486,0.5679510235786438
1761432021366945500,1.834945556640625,0.30272236466407776,-0.13770686089992523,0.3342697322368622
1761432021386888400,1.854888427734375,0.10466242581605911,-0.06770843267440796,-0.2027188390493393
1761432021406831600,1.87483154296875,-0.1540156751871109,0.06630569696426392,-0.5782411694526672
1761432021426774500,1.8947744140625,-0.2698117792606354,0.21505625545978546,-0.5033590197563171
1761432021446716700,1.914716552734375,-0.15120770037174225,0.2693277597427368,-0.14264358580112457
1761432021466659600,1.93465966796875,0.037361323833465576,0.1218523383140564,0.12611551582813263
1761432021486602500,1.9546025390625,0.03128594532608986,0.009030019864439964,0.17176635563373566
1761432021506544600,1.974544677734375,-0.055458586663007736,0.13583165407180786,0.08530639111995697
1761432021526487600,1.994487548828125,-0.13908953964710236,0.3050057888031006,-0.11656810343265533
1761432021546430500,2.014430419921875,-0.23163136839866638,0.4134845733642578,-0.3636215031147003
1761432021566373600,2.03437353515625,-0.3416746258735657,0.3091360628604889,-0.5222152471542358
1761432021586315800,2.054315673828125,-0.4437965154647827,-0.07953004539012909,-0.3964374363422394
1761432021606259000,2.074259033203125,-0.4468086063861847,-0.32669004797935486,-0.05818074196577072
1761432021626201900,2.094201904296875,-0.28749746084213257,-0.27709874510765076,0.27170735597610474
1761432021646144000,2.11414404296875,-0.06331460922956467,0.013897547498345375,0.34920069575309753
1761432021666087000,2.1340869140625,0.012633916921913624,0.25801214575767517,0.14237233996391296
1761432021686029800,2.15402978515625,-0.13948547840118408,0.18584750592708588,-0.16896316409111023
1761432021705973000,2.173972900390625,-0.40856924653053284,-0.11955355107784271,-0.2970210313796997
1761432021725915000,2.193914794921875,-0.5097495913505554,-0.2567555606365204,-0.18489664793014526
1761432021745858000,2.213858154296875,-0.40358003973960876,-0.2096138298511505,0.06640787422657013
1761432021765801000,2.233801025390625,-0.21407563984394073,-0.0803174078464508,0.2905240058898926
1761432021785742800,2.253742919921875,-0.06702375411987305,-0.0883226990699768,0.25831398367881775
1761432021805685800,2.273685791015625,-0.020577535033226013,-0.2556772232055664,0.05815207213163376
1761432021825628700,2.293628662109375,-0.03176863491535187,-0.23746708035469055,0.009168692864477634
1761432021845571800,2.31357177734375,0.009693850763142109,0.06913173943758011,0.19898630678653717
1761432021865513700,2.333513671875,0.22107453644275665,0.36283767223358154,0.5596179962158203
1761432021885457000,2.353456787109375,0.32809925079345703,0.130558580160141,0.6384299397468567
1761432021905399800,2.37339990234375,0.19958490133285522,-0.2128411829471588,0.40785151720046997
1761432021925342000,2.393342041015625,0.03225325420498848,-0.3325756788253784,-0.013314178213477135
1761432021945284900,2.413284912109375,0.09618975967168808,-0.22524113953113556,-0.2920004725456238
1761432021965227800,2.433227783203125,0.2612141966819763,0.22640901803970337,-0.1534706950187683
1761432021985171000,2.4531708984375,0.481070339679718,0.6123784780502319,0.08507253229618073
1761432022005112800,2.47311279296875,0.4864107072353363,0.5841150283813477,0.12778699398040771
1761432022025056000,2.493055908203125,0.3425130844116211,0.325623482465744,0.02164696902036667
1761432022044999000,2.5129990234375,0.19200757145881653,0.008609374053776264,0.0012737626675516367
1761432022064941000,2.532941162109375,0.14644116163253784,-0.10147365182638168,0.016793934628367424
1761432022084884000,2.552884033203125,0.14813591539859772,0.007506259251385927,-0.04997365549206734
1761432022104827000,2.572826904296875,0.11616981774568558,0.1919322907924652,-0.20202036201953888
1761432022124770000,2.59277001953125,0.04515200853347778,0.271334171295166,-0.38069936633110046
1761432022144712000,2.6127119140625,0.09446310997009277,0.25167155265808105,-0.379320353269577
1761432022164654800,2.63265478515625,0.3089312016963959,0.1924080103635788,-0.21061652898788452
1761432022184598000,2.652597900390625,0.5053690671920776,0.2623467445373535,-0.038347337394952774
1761432022204539600,2.67253955078125,0.43005114793777466,0.3298286199569702,-0.006818671710789204
1761432022224482800,2.69248291015625,0.17596860229969025,0.36586451530456543,-0.04225002974271774
1761432022244425700,2.71242578125,-0.09072115272283554,0.25407925248146057,-0.05418041720986366
1761432022264367900,2.732367919921875,-0.1683032065629959,0.07011990994215012,0.0017518338281661272
1761432022284310800,2.752310791015625,-0.050119854509830475,-0.0144280344247818,0.027334924787282944
1761432022304253700,2.772253662109375,0.05226673558354378,-0.058281444013118744,-0.009004106745123863
1761432022324196900,2.79219677734375,0.09108065068721771,-0.12601988017559052,-0.10572226345539093
1761432022344138800,2.812138671875,0.02285979688167572,-0.22016817331314087,-0.17213746905326843
1761432022364082000,2.83208203125,-0.05966861918568611,-0.28697407245635986,-0.11318064481019974
1761432022384024800,2.85202490234375,-0.027546197175979614,-0.24681317806243896,0.02571544423699379
1761432022403967000,2.871967041015625,0.021198516711592674,-0.17215020954608917,0.09730564057826996
1761432022423910000,2.891909912109375,-0.016847902908921242,-0.24386252462863922,-0.14831063151359558
1761432022443852800,2.911852783203125,-0.18046192824840546,-0.3869909644126892,-0.6738271117210388
1761432022463796000,2.9317958984375,-0.258550763130188,-0.3413842022418976,-0.869284987449646
1761432022483737900,2.95173779296875,-0.13267438113689423,-0.12420179694890976,-0.5309105515480042
1761432022503681000,2.971680908203125,0.18408341705799103,0.19533923268318176,0.11166492104530334
1761432022523624000,2.9916240234375,0.4244098961353302,0.33852341771125793,0.5613401532173157
1761432022543565800,3.01156591796875,0.5069008469581604,0.44719964265823364,0.6574507355690002
1761432022563508700,3.0315087890625,0.3750070631504059,0.3277731239795685,0.3425336480140686
1761432022583452000,3.051451904296875,0.03145826607942581,-0.04481390491127968,-0.14421586692333221
1761432022603394000,3.07139404296875,-0.23332662880420685,-0.2796366512775421,-0.43032437562942505
1761432022623337000,3.0913369140625,-0.19375060498714447,-0.14217780530452728,-0.36681076884269714
1761432022643280100,3.111280029296875,-0.09319429099559784,0.06584297120571136,-0.060168422758579254
1761432022663223000,3.13122314453125,-0.0363985113799572,0.10059652477502823,0.1659517139196396
1761432022683165200,3.151165283203125,-0.02184891141951084,0.10506077855825424,0.22946366667747498
1761432022703108000,3.171108154296875,0.012593280524015427,0.16699820756912231,0.15975777804851532
1761432022723051000,3.191051025390625,0.08810439705848694,0.3402990400791168,0.10466206818819046
1761432022742993200,3.2109931640625,0.1603832095861435,0.48839113116264343,0.09854160994291306
1761432022762936000,3.23093603515625,0.09013527631759644,0.3882960081100464,0.004414728842675686
1761432022782879200,3.250879150390625,-0.1398332118988037,-0.025579456239938736,-0.15794488787651062
1761432022802822100,3.270822265625,-0.3144156038761139,-0.39591076970100403,-0.21249906718730927
1761432022822764000,3.290763916015625,-0.2500237822532654,-0.49839529395103455,-0.17526839673519135
1761432022842707200,3.310707275390625,-0.10724011808633804,-0.5061524510383606,-0.1685543805360794
1761432022862650000,3.330650146484375,0.04847799986600876,-0.34195834398269653,-0.20285354554653168
1761432022882592300,3.35059228515625,0.3138270676136017,-0.011089295148849487,-0.11519494652748108
1761432022902535200,3.37053515625,0.5299779772758484,0.01474333368241787,0.04155557602643967
1761432022922478000,3.39047802734375,0.47823914885520935,-0.1600063443183899,0.09425503760576248
1761432022942420000,3.410419921875,0.3190554976463318,-0.18411050736904144,0.05451420322060585
1761432022962363000,3.43036279296875,0.21521714329719543,-0.19458138942718506,-0.09521593898534775
1761432022982306000,3.45030615234375,0.2835719585418701,-0.19111526012420654,-0.1676861196756363
1761432023002249000,3.4702490234375,0.5505913496017456,-0.015949631109833717,0.008462570607662201
1761432023022191000,3.490191162109375,0.9079751968383789,0.20774652063846588,0.263079434633255
1761432023042134000,3.510134033203125,0.9385185241699219,0.2841995358467102,0.36526843905448914
1761432023062077000,3.530076904296875,0.719237208366394,0.2902304232120514,0.23478953540325165
1761432023082019000,3.55001904296875,0.5123270153999329,0.09078400582075119,0.020513199269771576
1761432023101962000,3.5699619140625,0.49789729714393616,-0.010262317024171352,-0.05756158009171486
1761432023121905200,3.5899052734375,0.5446755886077881,0.10778123140335083,0.0616740807890892
1761432023141847000,3.609846923828125,0.4521864652633667,0.33295750617980957,0.21933646500110626
1761432023161790200,3.629790283203125,0.3136533796787262,0.4060405194759369,0.23931899666786194
1761432023181733000,3.649733154296875,0.1761099100112915,0.32549646496772766,0.17110560834407806
1761432023201676000,3.669676025390625,0.1252603828907013,0.33015093207359314,0.10100266337394714
1761432023221618200,3.6896181640625,0.14721393585205078,0.3171338737010956,0.06341414898633957
1761432023241561000,3.70956103515625,0.18248571455478668,0.28672441840171814,0.042677462100982666
1761432023261504300,3.729504150390625,0.12728635966777802,0.29774409532546997,0.016779713332653046
1761432023281446100,3.749446044921875,-0.03343936800956726,0.24796678125858307,-0.05409198999404907
1761432023301389300,3.769389404296875,-0.23666821420192719,0.13406047224998474,-0.11947550624608994
1761432023321332200,3.789332275390625,-0.35603559017181396,-0.035751331597566605,-0.07209506630897522
1761432023341274000,3.809274169921875,-0.31865912675857544,-0.16508692502975464,0.16282764077186584
1761432023361217000,3.829217041015625,-0.21748150885105133,-0.2911030948162079,0.2406914383172989
1761432023381160000,3.849159912109375,-0.2365964651107788,-0.3386256694793701,0.0993322879076004
1761432023401103000,3.86910302734375,-0.3323785662651062,-0.319696843624115,-0.04436132311820984
1761432023421045000,3.889044921875,-0.35312384366989136,-0.332660436630249,0.02664959616959095
1761432023440988200,3.90898828125,-0.1355535089969635,-0.2755299210548401,0.36138030886650085
1761432023460931000,3.92893115234375,-0.04133801907300949,-0.3706640303134918,0.47820955514907837
1761432023480873200,3.948873291015625,-0.14515963196754456,-0.631264865398407,0.09485320001840591
1761432023500816100,3.968816162109375,-0.3943577706813812,-0.7971047163009644,-0.3703848123550415
1761432023520759000,3.988759033203125,-0.46679410338401794,-0.544884443283081,-0.2711767256259918
1761432023540701200,4.008701171875,-0.3374873101711273,-0.21978648006916046,0.20277921855449677
1761432023560644000,4.02864404296875,-0.21769817173480988,-0.11085090786218643,0.4183480143547058
1761432023580586200,4.048586181640625,-0.17744050920009613,-0.0679105669260025,0.23708732426166534
1761432023600529200,4.068529052734375,-0.2628440856933594,-0.03501060605049133,-0.024799350649118423
1761432023620472300,4.088472412109375,-0.37538498640060425,-0.11496003717184067,-0.22897060215473175
1761432023640414200,4.108414306640625,-0.38104933500289917,-0.2510215640068054,-0.32770395278930664
1761432023660357000,4.128357177734375,-0.3183341920375824,-0.20303094387054443,-0.3204950988292694
1761432023680300300,4.14830029296875,-0.2542489469051361,-0.08311840891838074,-0.26928412914276123
1761432023700243200,4.1682431640625,-0.17884397506713867,0.06372339278459549,-0.11415430158376694
1761432023720185300,4.188185302734375,-0.12381002306938171,0.0913691371679306,0.02934960275888443
1761432023740128300,4.208128173828125,-0.11558323353528976,0.08408835530281067,0.10572110861539841
1761432023760071200,4.2280712890625,-0.16628333926200867,0.06340181827545166,0.06046762317419052
1761432023780013300,4.248013427734375,-0.2655976116657257,0.05437896028161049,-0.04865778610110283
1761432023799956200,4.267956298828125,-0.3902766704559326,-0.092624232172966,-0.07872255146503448
1761432023819899400,4.2878994140625,-0.4431472718715668,-0.22262094914913177,0.01429438591003418
1761432023839841300,4.30784130859375,-0.3810199499130249,-0.19199547171592712,0.12371169775724411
1761432023859784400,4.327784423828125,-0.28465354442596436,-0.032871589064598083,0.16506996750831604
1761432023879727400,4.347727294921875,-0.2209312617778778,0.06350578367710114,0.13480035960674286
1761432023899669200,4.367669189453125,-0.2159351110458374,-0.053456127643585205,0.11088983714580536
1761432023919613400,4.387613525390625,-0.24385914206504822,-0.26057955622673035,0.15690989792346954
1761432023939556400,4.407556396484375,-0.3475084900856018,-0.3730522692203522,0.18808533251285553
1761432023959499300,4.427499267578125,-0.4977945387363434,-0.17711448669433594,0.2409641444683075
1761432023979441200,4.447441162109375,-0.48602280020713806,0.21451792120933533,0.458177775144577
1761432023999384300,4.46738427734375,-0.05930795148015022,0.3103315830230713,0.6397819519042969
1761432024019327500,4.487327392578125,0.34511280059814453,0.08353468030691147,0.4137587547302246
1761432024039270400,4.5072705078125,0.49638691544532776,-0.08930686861276627,0.06534358859062195
1761432024059212300,4.52721240234375,0.38899922370910645,-0.07562331110239029,-0.23871779441833496
1761432024079155200,4.5471552734375,-0.034134577959775925,0.33990317583084106,-0.361092746257782
1761432024099098000,4.56709814453125,-0.3779001533985138,0.48296135663986206,-0.23622076213359833
1761432024119040300,4.587040283203125,-0.23009270429611206,0.13748396933078766,-0.10144651681184769
1761432024138983200,4.606983154296875,0.07174046337604523,-0.1420522779226303,0.005440761335194111
1761432024158926300,4.62692626953125,0.280625581741333,-0.08277047425508499,0.018336864188313484
1761432024178868200,4.6468681640625,0.2936927080154419,0.14901751279830933,-0.021694233641028404
1761432024198811400,4.666811279296875,0.18118904531002045,0.26726484298706055,-0.13152366876602173
1761432024218754300,4.68675439453125,0.08799095451831818,0.29107266664505005,-0.28089839220046997
1761432024238696400,4.706696533203125,0.03267102316021919,0.2393224835395813,-0.37527111172676086
1761432024258639400,4.726639404296875,0.016206782311201096,0.05452696233987808,-0.2627031207084656
1761432024278582300,4.746582275390625,0.14157314598560333,-0.05340409651398659,-0.07771513611078262
1761432024298524400,4.7665244140625,0.2704014778137207,0.00933258980512619,0.057251811027526855
1761432024318467300,4.78646728515625,0.2165863960981369,0.08721010386943817,0.06683558970689774
1761432024338410500,4.806410400390625,0.005678616929799318,0.11139783263206482,-0.0801716074347496
1761432024358352100,4.82635205078125,-0.21938727796077728,-0.014390149153769016,-0.2485993653535843
1761432024378295300,4.84629541015625,-0.31460610032081604,-0.12192000448703766,-0.22322595119476318
1761432024398238200,4.86623828125,-0.2607019245624542,-0.09828855097293854,-0.11334634572267532
1761432024418181000,4.88618115234375,-0.16302798688411713,0.03132820129394531,0.008209199644625187
1761432024438123300,4.906123291015625,-0.17672640085220337,0.024188635870814323,-0.028709659352898598
1761432024458066200,4.926066162109375,-0.23326796293258667,-0.12188894301652908,-0.19290366768836975
1761432024478009300,4.94600927734375,-0.2833223044872284,-0.35094285011291504,-0.25625619292259216
1761432024497951200,4.965951171875,-0.3498789072036743,-0.3983081877231598,-0.1996220052242279
1761432024517894100,4.98589404296875,-0.3216983377933502,-0.10877594351768494,0.0004575012717396021
1761432024537837300,5.00583740234375,-0.1660061776638031,0.23583875596523285,0.26462265849113464
1761432024557779200,5.025779296875,-0.00816444680094719,0.21002598106861115,0.3055937886238098
1761432024577722400,5.045722412109375,-0.12415493279695511,-0.18111172318458557,-0.08662846684455872
1761432024597664800,5.065664794921875,-0.42028647661209106,-0.5600157976150513,-0.6748084425926208
1761432024617606700,5.085606689453125,-0.5213288068771362,-0.3692014813423157,-0.7133959531784058
1761432024637549600,5.105549560546875,-0.25674718618392944,0.1083538830280304,-0.28971540927886963
1761432024657492700,5.12549267578125,0.002296778606250882,0.24576003849506378,0.03205830603837967
1761432024677435600,5.145435546875,0.055045947432518005,-0.026879509910941124,0.014705204404890537
1761432024697377800,5.165377685546875,-0.013506012037396431,-0.1996932327747345,-0.15464161336421967
1761432024717320700,5.18532080078125,-0.04835746809840202,-0.022102098912000656,-0.2396513819694519
1761432024737263600,5.205263671875,-0.009139523841440678,0.188285693526268,-0.2041746973991394
1761432024757205800,5.225205810546875,0.020823560655117035,0.28122270107269287,-0.09500657021999359
1761432024777148700,5.245148681640625,-0.01988605223596096,0.19747526943683624,-0.01907925121486187
1761432024797091800,5.265091796875,-0.10452207922935486,0.03490506112575531,0.14774149656295776
1761432024817033700,5.28503369140625,-0.15946516394615173,-0.04761524870991707,0.30369874835014343
1761432024836976600,5.3049765625,-0.1391351819038391,0.058596909046173096,0.3051219880580902
1761432024856919800,5.324919921875,-0.0878029465675354,0.20786796510219574,0.18796925246715546
1761432024876861700,5.34486181640625,-0.09553036838769913,0.3202458918094635,0.00010267901234328747
1761432024896804900,5.364804931640625,-0.21626806259155273,0.23384779691696167,-0.17808465659618378
1761432024916747800,5.384747802734375,-0.42559438943862915,-0.09497536718845367,-0.08462847024202347
1761432024936690000,5.40468994140625,-0.4678364098072052,-0.21654391288757324,0.20753757655620575
1761432024956632800,5.4246328125,-0.2732110023498535,-0.12279828637838364,0.4302055239677429
1761432024976575700,5.44457568359375,-0.11130458861589432,-0.06710831820964813,0.35174423456192017
1761432024996517600,5.464517578125,-0.08172112703323364,-0.21059651672840118,0.05785401910543442
1761432025016460500,5.48446044921875,-0.09906278550624847,-0.38436073064804077,-0.041672464460134506
1761432025036403700,5.50440380859375,-0.059994764626026154,-0.599071204662323,0.03771313279867172
1761432025056345600,5.524345703125,-0.045813821256160736,-0.5482302904129028,0.16803723573684692
1761432025076288800,5.544288818359375,-0.15348921716213226,-0.2393992692232132,0.14368188381195068
1761432025096231700,5.564231689453125,-0.34500619769096375,-0.10936036705970764,-0.02548030950129032
1761432025116174600,5.584174560546875,-0.3233378529548645,-0.15069203078746796,-0.18592220544815063
1761432025136116700,5.60411669921875,-0.18811330199241638,-0.2059209644794464,-0.2694222629070282
1761432025156059600,5.6240595703125,0.17676018178462982,-0.06915958970785141,-0.1552165448665619
1761432025176002800,5.6440029296875,0.5320507287979126,0.17071682214736938,0.1607874035835266
1761432025195944700,5.66394482421875,0.572862982749939,0.20573052763938904,0.3868632912635803
1761432025215888000,5.683887939453125,0.4463433623313904,0.04953780025243759,0.43729734420776367
1761432025235830800,5.703830810546875,0.2981296181678772,-0.2370794415473938,0.2703729271888733
1761432025255773000,5.72377294921875,0.2940729260444641,-0.342339426279068,0.04852232709527016
1761432025275715800,5.7437158203125,0.33366653323173523,-0.19274024665355682,-0.11006100475788116
1761432025295658800,5.76365869140625,0.3233582079410553,0.06493686139583588,-0.1609908938407898
1761432025315600600,5.7836005859375,0.30854088068008423,0.1882573962211609,-0.11176164448261261
1761432025335543600,5.80354345703125,0.27201199531555176,0.1805005520582199,-0.0019921273924410343
1761432025355486700,5.82348681640625,0.26113665103912354,0.16682694852352142,0.06279435753822327
1761432025375428600,5.8434287109375,0.292783260345459,0.15397672355175018,0.00572510901838541
1761432025395371800,5.863371826171875,0.31176498532295227,0.20410996675491333,-0.06407587230205536
1761432025415314700,5.883314697265625,0.2627805173397064,0.3011287450790405,-0.11822724342346191
1761432025435256800,5.9032568359375,0.19662468135356903,0.3437039256095886,-0.15241579711437225
1761432025455199700,5.92319970703125,0.15502828359603882,0.26815301179885864,-0.1432008296251297
1761432025475142700,5.943142578125,0.1647217869758606,0.19425949454307556,-0.011538057588040829
1761432025495084800,5.963084716796875,0.16393578052520752,0.18387599289417267,0.16830386221408844
1761432025515027700,5.98302783203125,0.13046656548976898,0.2194766402244568,0.19188688695430756
1761432025534971000,6.002970947265625,0.030102217569947243,0.2007070779800415,0.09647370129823685
1761432025554912800,6.022912841796875,-0.1264001429080963,0.015045504085719585,0.019490757957100868
1761432025574855700,6.042855712890625,-0.13889287412166595,-0.038687899708747864,0.16911669075489044
1761432025594799400,6.06279931640625,0.037866491824388504,0.10154464095830917,0.5251771211624146
1761432025614741200,6.0827412109375,0.40496015548706055,0.4044153690338135,0.8468840718269348
1761432025634684400,6.102684326171875,0.6323378086090088,0.5254449844360352,0.8124170899391174
1761432025654627300,6.12262744140625,0.24642445147037506,0.31998875737190247,0.15955860912799835
1761432025674570200,6.1425703125,-0.2597489655017853,-0.12359423190355301,-0.7564406394958496
1761432025694512000,6.16251220703125,-0.4590575397014618,-0.1411370038986206,-0.9570616483688354
1761432025714455000,6.182455078125,-0.32834362983703613,0.13886632025241852,-0.4196087718009949
1761432025734398200,6.202398193359375,-0.013213078491389751,0.42556655406951904,0.23529426753520966
1761432025754340000,6.222340087890625,0.09785140305757523,0.29770973324775696,0.4174010753631592
1761432025774283300,6.242283203125,0.010143391788005829,0.2910773754119873,0.25730034708976746
1761432025794226200,6.26222607421875,-0.0487046055495739,0.44677361845970154,0.02202567830681801
1761432025814168300,6.282168212890625,-0.049952782690525055,0.33276990056037903,-0.20716078579425812
1761432025834111200,6.302111328125,-0.10000468045473099,-0.0651792585849762,-0.3139181435108185
1761432025854054100,6.32205419921875,-0.13308599591255188,-0.38200411200523376,-0.2263757288455963
1761432025873996300,6.341996337890625,-0.0425766259431839,-0.3999517261981964,-0.12955094873905182
1761432025893939200,6.361939208984375,0.0921417772769928,-0.16513283550739288,-0.14289845526218414
1761432025913882400,6.38188232421875,0.13178333640098572,0.046061109751462936,-0.2057015299797058
1761432025933824300,6.40182421875,0.058671340346336365,0.05159192904829979,-0.2576490044593811
1761432025953767400,6.421767333984375,-0.051785003393888474,-0.07285156100988388,-0.3416932225227356
1761432025973710300,6.44171044921875,-0.16559375822544098,-0.19703440368175507,-0.37769970297813416
1761432025993652200,6.46165234375,-0.2868554890155792,-0.16481494903564453,-0.3078303337097168
1761432026013595400,6.481595458984375,-0.3007167875766754,-0.0862518921494484,-0.1642102599143982
1761432026033538300,6.501538330078125,-0.1288626343011856,-0.11300001293420792,-0.022163331508636475
1761432026053480200,6.521480224609375,0.034875351935625076,-0.1866186410188675,0.08126188069581985
1761432026073423000,6.541423095703125,0.08558853715658188,-0.16874754428863525,0.07104765623807907
1761432026093366300,6.5613662109375,0.024097196757793427,-0.14801113307476044,0.00379747711122036
1761432026113308200,6.58130810546875,-0.0438518226146698,-0.08571849018335342,-0.00560794910416007
1761432026133251000,6.6012509765625,0.05238422751426697,0.08171235024929047,0.25514182448387146
1761432026153194200,6.6211943359375,0.28578752279281616,0.2936679422855377,0.6729122996330261
1761432026173136100,6.64113623046875,0.32779690623283386,0.11347483843564987,0.7804557085037231
1761432026193079300,6.661079345703125,0.08149746805429459,-0.17033976316452026,0.5015015602111816
1761432026213022200,6.681022216796875,-0.1960887908935547,-0.2811599671840668,0.10333577543497086
1761432026232964400,6.70096435546875,-0.3067222535610199,-0.16324646770954132,0.0924065113067627
1761432026252907300,6.7209072265625,-0.04076607897877693,0.04357874393463135,0.24988913536071777
1761432026272850200,6.74085009765625,0.31838202476501465,0.025835301727056503,0.29999956488609314
1761432026292792300,6.760792236328125,0.3476336896419525,-0.08861144632101059,0.22727274894714355
1761432026312735200,6.7807353515625,0.18468278646469116,-0.12132688611745834,0.03420517221093178
1761432026332678400,6.800678466796875,0.06197807565331459,0.030200323089957237,-0.07839974015951157
1761432026352620000,6.8206201171875,0.0687951147556305,0.16833779215812683,-0.11469791829586029
1761432026372563500,6.8405634765625,0.17911484837532043,0.19317775964736938,-0.1294574737548828
1761432026392506400,6.86050634765625,0.28469371795654297,0.15973354876041412,-0.1517155021429062
1761432026412448300,6.8804482421875,0.3544026017189026,0.19349025189876556,-0.07483495771884918
1761432026432391200,6.90039111328125,0.4381057620048523,0.2566699981689453,0.06903485953807831
1761432026452334000,6.920333984375,0.4891679883003235,0.21718186140060425,0.10466401278972626
1761432026472276200,6.940276123046875,0.343865305185318,0.1393602043390274,0.03081347607076168
1761432026492219100,6.96021923828125,0.052270904183387756,0.09019717574119568,-0.0671219453215599
1761432026512162300,6.980162353515625,-0.23694738745689392,0.007950907573103905,-0.04184230417013168
1761432026532105200,7.000105224609375,-0.34331366419792175,-0.02349909208714962,0.07198002189397812
1761432026552047400,7.02004736328125,-0.3127002418041229,0.12540850043296814,0.18337050080299377
1761432026571990300,7.039990234375,-0.2210393249988556,0.16216936707496643,0.21037274599075317
1761432026591932700,7.0599326171875,-0.13737794756889343,-0.008402031846344471,0.12531119585037231
1761432026611874800,7.079874755859375,-0.18013057112693787,-0.20580564439296722,-0.03972123935818672
1761432026631817700,7.099817626953125,-0.29960477352142334,-0.22064274549484253,-0.16322527825832367
1761432026651761000,7.119760986328125,-0.33937713503837585,-0.11812499910593033,-0.11392544955015182
1761432026671702800,7.139702880859375,-0.2068382054567337,-0.03397760167717934,0.18307366967201233
1761432026691646000,7.15964599609375,-0.027065636590123177,-0.09069351106882095,0.5057259202003479
1761432026711588900,7.1795888671875,0.0018198553007096052,-0.24510136246681213,0.4272208511829376
1761432026731531000,7.199531005859375,-0.11721023917198181,-0.4811718165874481,-0.015260480344295502
1761432026751474000,7.219473876953125,-0.3037090003490448,-0.5303028225898743,-0.5956862568855286
1761432026771416800,7.239416748046875,-0.3240516781806946,-0.3800884783267975,-0.7839260697364807
1761432026791359000,7.25935888671875,-0.2472563236951828,-0.21308839321136475,-0.47642818093299866
1761432026811302000,7.279302001953125,-0.13017040491104126,-0.16970834136009216,-0.0803009495139122
1761432026831245000,7.2992451171875,-0.14032290875911713,-0.223704993724823,0.10760530084371567
1761432026851186700,7.319186767578125,-0.1773153692483902,-0.16619305312633514,0.06976550072431564
1761432026871129900,7.3391298828125,-0.19621138274669647,-0.0027277679182589054,-0.023862695321440697
1761432026891072800,7.35907275390625,-0.17686212062835693,0.0758616179227829,-0.12136401236057281
1761432026911015000,7.379014892578125,-0.17267251014709473,0.07552874833345413,-0.1060442104935646
1761432026930957800,7.398957763671875,-0.2082955688238144,-0.04147662594914436,0.03237762302160263
1761432026950900700,7.418900634765625,-0.24075055122375488,-0.1034686267375946,0.17984557151794434
1761432026970843000,7.4388427734375,-0.19646528363227844,-0.040231235325336456,0.2048334926366806
1761432026990785800,7.458785888671875,-0.09196973592042923,0.12251877039670944,0.15675024688243866
1761432027010729000,7.47872900390625,-0.025964654982089996,0.22087110579013824,0.03694148361682892
1761432027030670800,7.4986708984375,-0.05997149646282196,0.23238465189933777,-0.1393759399652481
1761432027050613800,7.51861376953125,-0.18818853795528412,0.13098052144050598,-0.31527942419052124
1761432027070557000,7.538556884765625,-0.33149075508117676,-0.031373459845781326,-0.17694716155529022
1761432027090498800,7.558498779296875,-0.30786994099617004,-0.1862085461616516,0.07079681009054184
1761432027110442000,7.57844189453125,-0.12779954075813293,-0.1408938616514206,0.28288930654525757
1761432027130385000,7.598385009765625,0.05219591408967972,0.03818657621741295,0.3638974130153656
1761432027150327000,7.6183271484375,0.10004162043333054,0.1675746887922287,0.20818878710269928
1761432027170270000,7.63827001953125,0.052701160311698914,0.15709112584590912,0.09084820002317429
1761432027190212900,7.658212890625,0.04094481095671654,0.11090568453073502,0.10295411199331284
1761432027210154800,7.67815478515625,0.0799945667386055,0.16284248232841492,0.20088282227516174
1761432027230097700,7.69809765625,0.18614555895328522,0.2028093785047531,0.37477147579193115
1761432027250040800,7.718040771484375,0.2548092007637024,0.058579396456480026,0.4775424003601074
1761432027269982700,7.737982666015625,0.24434305727481842,-0.03801438584923744,0.4427061975002289
1761432027289926000,7.75792578125,0.22570373117923737,-0.036912303417921066,0.21824099123477936
1761432027309868800,7.777868896484375,0.16465342044830322,0.04071005433797836,-0.13644146919250488
1761432027329811000,7.79781103515625,0.08178460597991943,0.23257875442504883,-0.2330666184425354
1761432027349753900,7.81775390625,0.048913631588220596,0.18871060013771057,0.01051185093820095
1761432027369696000,7.837696044921875,0.08627796918153763,-0.11870507150888443,0.2647803723812103
1761432027389639000,7.857638916015625,0.16145513951778412,-0.29943960905075073,0.3440718948841095
1761432027409581800,7.877581787109375,0.20305737853050232,-0.23488570749759674,0.22341449558734894
1761432027429524000,7.89752392578125,0.200938418507576,-0.020655004307627678,-0.007585344836115837
1761432027449467000,7.917466796875,0.13826924562454224,0.15103183686733246,-0.25007420778274536
1761432027469410000,7.93741015625,0.0716485008597374,0.15550842881202698,-0.3642663061618805
1761432027489351700,7.9573515625,0.039162181317806244,0.07508387416601181,-0.32989344000816345
1761432027509295000,7.977295166015625,0.06215616688132286,0.08848060667514801,-0.18753446638584137
1761432027529238000,7.997238037109375,0.1637992113828659,0.13790786266326904,-0.09326567500829697
1761432027549179000,8.017178955078125,0.2205454260110855,0.1598055064678192,-0.12193793058395386
1761432027569121800,8.037121826171875,0.09778402745723724,0.06913629919290543,-0.19766351580619812
1761432027589064000,8.05706396484375,-0.12410624325275421,-0.048071183264255524,-0.15803717076778412
1761432027609007400,8.07700732421875,-0.24533508718013763,-0.06419578939676285,-0.06131557747721672
1761432027628950300,8.0969501953125,-0.2089419960975647,0.02178269997239113,-0.023674434050917625
1761432027648892200,8.11689208984375,-0.10969759523868561,0.07586187869310379,-0.02486514113843441
1761432027668835000,8.1368349609375,0.04232832416892052,0.06563621014356613,0.024938145652413368
1761432027688778200,8.1567783203125,0.07741408795118332,-0.020825179293751717,0.05190008878707886
1761432027708720000,8.17672021484375,0.03201889991760254,-0.026243414729833603,-0.0568581223487854
1761432027728663300,8.196663330078126,-0.07791293412446976,-0.004495774395763874,-0.24305088818073273
1761432027748606200,8.216606201171874,-0.2004704624414444,-0.020623279735445976,-0.29399213194847107
1761432027768548400,8.23654833984375,-0.20530013740062714,-0.15579281747341156,-0.05900508910417557
1761432027788491300,8.2564912109375,-0.12344195693731308,-0.24353139102458954,0.15480516850948334
1761432027808434200,8.27643408203125,-0.020125124603509903,-0.19582435488700867,0.007381763309240341
1761432027828376300,8.296376220703126,0.0012111049145460129,-0.20219959318637848,-0.3935309052467346
1761432027848319200,8.3163193359375,-0.026646297425031662,-0.0816262811422348,-0.6017091870307922
1761432027868262400,8.336262451171875,0.055734723806381226,0.15740244090557098,-0.40658649802207947
1761432027888204300,8.356204345703125,0.2041759490966797,0.2597257196903229,-0.020018020644783974
1761432027908148200,8.376148193359375,0.28172746300697327,0.17650564014911652,0.14594081044197083
1761432027928091400,8.39609130859375,0.16368713974952698,0.09204427897930145,0.012230592779815197
1761432027948033300,8.416033203125,-0.07167787104845047,-0.06448531150817871,-0.2972539961338043
1761432027967976400,8.4359765625,-0.18663549423217773,-0.10086525231599808,-0.460149347782135
1761432027987919400,8.45591943359375,-0.11614713817834854,-0.011780585162341595,-0.36431634426116943
1761432028007861200,8.475861328125,-0.005142287816852331,0.013071300461888313,-0.13158448040485382
1761432028027804200,8.49580419921875,0.016157563775777817,-0.01898476853966713,0.04718201607465744
1761432028047746300,8.515746337890626,-0.05365920439362526,-0.0548107773065567,0.05174356698989868
1761432028067689200,8.535689208984374,-0.10379614681005478,-0.014835497364401817,-0.03755989298224449
1761432028087632100,8.555632080078125,-0.09936124086380005,0.028360143303871155,-0.06018178537487984
1761432028107574300,8.57557421875,-0.07960193604230881,0.0017099552787840366,0.030582645907998085
1761432028127517200,8.59551708984375,-0.12246260046958923,-0.08875580132007599,0.13245517015457153
1761432028147460000,8.615460205078126,-0.22748801112174988,-0.2176806926727295,0.16836336255073547
1761432028167402200,8.63540234375,-0.2663620710372925,-0.2192569077014923,0.16256967186927795
1761432028187345200,8.65534521484375,-0.1835380494594574,-0.03769008070230484,0.12523342669010162
1761432028207288300,8.675288330078125,-0.02930343896150589,0.1737244874238968,0.09212349355220795
1761432028227230200,8.695230224609375,0.017860090360045433,0.22187384963035583,0.04985176399350166
1761432028247173400,8.71517333984375,0.018352946266531944,0.0989140048623085,0.020266961306333542
1761432028267116300,8.7351162109375,0.014781680889427662,-0.08345413953065872,0.13605302572250366
1761432028287058400,8.755058349609374,0.11505237221717834,0.04042309895157814,0.2901845872402191
1761432028307001300,8.77500146484375,0.31626689434051514,0.2841472327709198,0.41736459732055664
1761432028326943200,8.794943115234375,0.3894851803779602,0.2591533958911896,0.4390431046485901
1761432028346886100,8.81488623046875,0.27296674251556396,0.046102918684482574,0.26072895526885986
1761432028366829000,8.8348291015625,0.2892161011695862,-0.21432887017726898,0.14296075701713562
1761432028386771200,8.854771240234374,0.31420159339904785,-0.44181016087532043,0.09670847654342651
1761432028406714000,8.874714111328124,0.2629123330116272,-0.3737848401069641,-0.02987094409763813
1761432028426657300,8.8946572265625,0.11590121686458588,0.006658575497567654,-0.11770143359899521
1761432028446599200,8.91459912109375,0.11578474193811417,0.17692342400550842,0.000593767617829144
1761432028466542300,8.934542236328125,0.26967599987983704,0.028089996427297592,0.1239062175154686
1761432028486485200,8.9544853515625,0.31556007266044617,-0.13040706515312195,0.11951747536659241
1761432028506427400,8.974427490234374,0.2795461416244507,-0.12301063537597656,0.06471658498048782
1761432028526370300,8.994370361328125,0.2539514899253845,-0.05868098512291908,0.0775451585650444
1761432028546313200,9.014313232421875,0.3237203359603882,0.039110757410526276,0.15283355116844177
1761432028566255400,9.03425537109375,0.3378250300884247,0.17376497387886047,0.15221719443798065
1761432028586198300,9.0541982421875,0.2569703161716461,0.213221937417984,-0.023045092821121216
1761432028606140400,9.074140380859374,0.16412141919136047,0.06922917813062668,-0.2683315575122833
1761432028626083300,9.094083251953125,0.1462944895029068,-0.0875183567404747,-0.39620935916900635
1761432028646026500,9.114026611328125,0.23196271061897278,-0.05054895207285881,-0.37826013565063477
1761432028665968400,9.133968505859375,0.17053556442260742,0.12107367068529129,-0.3433181345462799
1761432028685911300,9.153911376953126,-0.02822231873869896,0.15260182321071625,-0.3873569667339325
1761432028705854500,9.1738544921875,-0.21988996863365173,0.0028647365979850292,-0.3775101900100708
1761432028725796400,9.19379638671875,-0.2983112335205078,-0.2318383902311325,-0.2867349684238434
1761432028745739500,9.213739501953125,-0.2731744349002838,-0.2893344759941101,-0.09124952554702759
1761432028765682400,9.233682373046875,-0.14176788926124573,-0.15375642478466034,-0.01052522100508213
1761432028785624300,9.253624267578125,-0.026910122483968735,0.041485898196697235,-0.17497919499874115
1761432028805567200,9.273567138671876,0.06282534450292587,0.18877634406089783,-0.3788410723209381
1761432028825509400,9.29350927734375,0.13019126653671265,0.1687804013490677,-0.4094827473163605
1761432028845452300,9.313452392578125,0.11519086360931396,-0.06047661975026131,-0.29772499203681946
1761432028865395200,9.333395263671875,0.02449626475572586,-0.2053825408220291,-0.08097118139266968
1761432028885337300,9.35333740234375,-0.002668272703886032,0.011313579976558685,0.07257004827260971
1761432028905280300,9.3732802734375,0.06894019991159439,0.0963938906788826,-0.0025854893028736115
1761432028925223400,9.393223388671874,-0.01938040740787983,-0.07965174317359924,-0.2642367482185364
1761432028945165300,9.413165283203124,-0.16603206098079681,-0.3889796733856201,-0.45681071281433105
1761432028965108500,9.4331083984375,-0.18850404024124146,-0.3141730725765228,-0.3817133903503418
1761432028985051400,9.453051513671875,-0.015459813177585602,0.1374511420726776,-0.049691203981637955
1761432029004993500,9.47299365234375,0.2573370933532715,0.4944324195384979,0.3547089695930481
1761432029024936400,9.4929365234375,0.3748866617679596,0.5338322520256042,0.6012704372406006
1761432029044878600,9.512878662109374,0.32736173272132874,0.500952422618866,0.6272444725036621
1761432029064821500,9.532821533203125,0.21024321019649506,0.38922709226608276,0.38403797149658203
1761432029084764400,9.552764404296875,0.0474000945687294,0.13560819625854492,-0.01930989883840084
1761432029104706300,9.572706298828125,-0.12830446660518646,-0.2049625664949417,-0.2924115061759949
1761432029124649200,9.592649169921875,-0.17920322716236115,-0.2309519499540329,-0.2321779578924179
1761432029144592400,9.61259228515625,0.010978173464536667,0.00015726452693343163,0.10949436575174332
1761432029164534300,9.6325341796875,0.2754002511501312,0.4389718174934387,0.3727678954601288
1761432029184477400,9.6524775390625,0.4439128637313843,0.6949038505554199,0.22366611659526825
1761432029204419300,9.67241943359375,0.4348355233669281,0.6582998037338257,-0.06982512027025223
1761432029224362500,9.692362548828125,0.3772766590118408,0.46095240116119385,-0.24455061554908752
1761432029244305400,9.712305419921876,0.3075251579284668,0.4388057589530945,-0.22380632162094116
1761432029264247300,9.732247314453126,0.27128100395202637,0.5293106436729431,-0.10949110239744186
1761432029284190500,9.7521904296875,0.34850651025772095,0.6760072112083435,0.04395824670791626
1761432029304133400,9.77213330078125,0.4857993423938751,0.5579087734222412,0.2139909267425537
1761432029324075500,9.792075439453125,0.7052735090255737,0.16975811123847961,0.150132417678833
1761432029344018400,9.812018310546875,0.8843796849250793,0.13385771214962006,0.014698933809995651
1761432029363961300,9.83196142578125,1.0008598566055298,0.14152804017066956,-0.08753690868616104
1761432029383903200,9.8519033203125,1.0350191593170166,0.07774430513381958,-0.17199519276618958
1761432029403846100,9.87184619140625,0.9825569987297058,-0.03418249636888504,-0.036769188940525055
