time,seconds_elapsed,z,y,x
1761507716586064400,0.087064453125,-0.06657528966963291,-0.007933021488972007,0.13856244832016526
1761507716606219300,0.10721923828125,-0.06975976492464542,-0.011854578846879302,0.13503365313950924
1761507716626375200,0.127375244140625,-0.11699673239588737,0.06124463269878178,0.12544358515851198
1761507716646531300,0.14753125,-0.20508944186866282,0.011704648982174694,0.11557868229150771
1761507716666686200,0.167686279296875,-0.18762568137049673,-0.0985487466333434,0.055218650407530365
1761507716686842000,0.187842041015625,-0.07728314616680144,-0.11970347060393541,-0.025491803326830268
1761507716706997500,0.20799755859375,-0.1611187827169895,0.05275353893563151,-0.018683182757906616
1761507716727153400,0.2281533203125,0.04486731573045254,0.19826730423104016,-0.05013436941318214
1761507716747309300,0.248309326171875,-0.10514029038548468,-0.11293715480677782,-0.018177534790709615
1761507716767464400,0.26846435546875,-0.13487901056706905,-0.014669709332846104,-0.0289046074450016
1761507716787620400,0.288620361328125,0.08141630044877529,0.12018376493416726,-0.046672419790504495
1761507716807775200,0.308775146484375,0.05060498259961605,-0.030340887325815854,-0.010708189857308752
1761507716827931400,0.328931396484375,-0.15875146906375884,-0.10102072623744607,0.10306785889244638
1761507716848087300,0.34908740234375,-0.02282441074848175,-0.010449132495746015,0.0588626877319999
1761507716868242200,0.3692421875,0.0263426480025053,-0.01188661795295775,0.052567259115912014
1761507716888398300,0.3893984375,-0.1517699396133423,-0.0904153802666813,0.14202711962289177
1761507716908553500,0.409553466796875,-0.17337796030938624,-0.07765855535045266,0.11588812270001507
1761507716928709400,0.42970947265625,-0.07970189774632454,0.12352248090282082,0.08082346738846972
1761507716948864300,0.4498642578125,-0.06478606816530227,-0.04520458486080169,0.06516265552588738
1761507716969020400,0.4700205078125,-0.05442249506115913,-0.12164704241976142,0.025153429084783418
1761507716989176300,0.49017626953125,-0.06811199771761894,-0.11242547895759343,0.04714168127006851
1761507717009331200,0.510331298828125,-0.10882044020295142,-0.09302424759082496,0.08581297363829798
1761507717029487400,0.5304873046875,-0.2133078196376562,-0.10266571696549653,0.11420170398303307
1761507717049642200,0.550642333984375,-0.0953542249083519,-0.03205905288793146,0.11830295615624636
1761507717069798100,0.570798095703125,-0.0607850158303976,-0.026736761886626482,0.11683286533737554
1761507717089954300,0.590954345703125,0.005057283389568328,-0.05743270972780883,0.10360296128299086
1761507717110109400,0.611109375,0.019163550153374672,-0.04189173398576677,0.0816364825380966
1761507717130265300,0.631265380859375,-0.03376899861097336,-0.11158559406735002,0.1214129962018691
1761507717150420500,0.65142041015625,-0.045347792723774906,-0.1110108629193157,0.014866656677052378
1761507717170576400,0.671576416015625,0.032850130200386046,-0.11098404797762632,0.14550294250729492
1761507717190732300,0.691732177734375,-0.07806757454276085,0.051823637674376366,0.09463164625484496
1761507717210887200,0.71188720703125,-0.2314069554299116,0.03071976710818708,0.08905187336113303
1761507717231043300,0.732043212890625,-0.31614041760265826,-0.04315598176792264,0.031922101235808804
1761507717251198200,0.7521982421875,-0.22523908044993876,-0.006444353833794593,-0.01283825726362993
1761507717271354000,0.77235400390625,0.011696867534518242,0.05665675691924989,-0.00503452014355571
1761507717291509500,0.792509521484375,-0.07710486699044704,-0.01186550209969282,0.09499725556368939
1761507717311665400,0.81266552734375,-0.04695113626718521,-0.02594210437759757,0.15538515270212663
1761507717331821300,0.8328212890625,-0.05542027392685413,0.04679660329259932,0.1299470431907568
1761507717351976400,0.8529765625,0.03799158474206924,0.13022636245563626,0.0676708526542643
1761507717372132400,0.87313232421875,0.03260638457238674,0.06492920296303928,-0.0036586412385571747
1761507717392287200,0.893287353515625,0.07240180386602878,0.06081767599098384,-0.04414618011536076
1761507717412443400,0.913443359375,0.16641045938432217,0.08526647307090461,-0.05465895243184641
1761507717432599300,0.933599365234375,0.20076222631931304,0.07109963522627949,-0.008764896602695808
1761507717452754400,0.95375439453125,0.15907938584387302,0.023944281623885035,0.05661812367560341
1761507717472910600,0.97391064453125,-0.002673603123426437,-0.02763239555209875,0.066830917531671
1761507717493065500,0.9940654296875,-0.07594926721453667,0.05416391719020903,0.051549524307576935
1761507717513221400,1.014221435546875,-0.10165595540106295,0.046817426884919404,0.021628889954136685
1761507717533377500,1.03437744140625,-0.0920598595380783,-0.009608078561723231,-0.039761727086594326
1761507717553532700,1.05453271484375,-0.10728022502362727,-0.040074382365494966,-0.03620397980608977
1761507717573688600,1.0746884765625,-0.1061111812442541,0.00810498052239418,0.008583192493394017
1761507717593843500,1.094843505859375,-0.17252222026288508,-0.028491642729938028,0.08138356722295284
1761507717613999600,1.11499951171875,-0.1406535023152828,-0.04293992786444723,0.07856762388623319
1761507717634154500,1.135154541015625,-0.11553250506222247,-0.05502689069509506,0.041593088965909554
1761507717654310400,1.155310302734375,-0.06586684913933277,-0.07116510167792439,0.023285105329100043
1761507717674466600,1.175466552734375,-0.11549158852994441,-0.0417994525924325,0.07337959938962012
1761507717694621400,1.195621337890625,-0.03456102577149868,-0.029355419952422378,0.06272070573386736
1761507717714777300,1.21577734375,-0.1254699617087841,-0.06439684965200722,0.09637797846551983
1761507717734932700,1.2359326171875,-0.06484978105127812,-0.04611176283359527,-0.04061859964425675
1761507717755088600,1.256088623046875,-0.002626256850361824,0.07840403995551168,0.09341666270820423
1761507717775244500,1.27624462890625,0.043915714094042775,0.042620121325552464,0.08609717914084904
1761507717795399700,1.296399658203125,0.08202712582349776,-0.037459085300564764,0.04988065951359458
1761507717815555600,1.3165556640625,0.10798749651014804,0.014058262903615832,0.0132678614445962
1761507717835710500,1.33671044921875,0.03895020064115524,-0.0539983513649553,0.07779136968357488
1761507717855866600,1.35686669921875,-0.02474573419988155,0.03407616486400366,0.09994087684517726
1761507717876021500,1.377021484375,-0.01690261948406696,0.0003230944745242596,0.06516532240700908
1761507717896177400,1.397177490234375,-0.1413297941416502,-0.06260529006011784,0.0773061069172807
1761507717916333600,1.41733349609375,0.024822306567430494,-0.02157813701443374,0.09902416385905817
1761507717936488700,1.43748876953125,-0.20763678826391696,-0.06536722905412316,0.11952150163315235
1761507717956644600,1.45764453125,-0.10893325292766094,0.03314092984050512,0.11582544186050071
1761507717976799500,1.477799560546875,-0.08482114045619964,-0.0731768798917532,0.11747571155186742
1761507717996955600,1.49795556640625,-0.15478081186711787,-0.060984410860016935,0.06730219743838534
1761507718017111600,1.518111572265625,0.034275779089331625,0.07189801906235516,0.05856536701954901
1761507718037266400,1.538266357421875,-0.06782499746978282,0.00981923709437251,0.09143902422599494
1761507718057422600,1.558422607421875,0.08022562935948371,-0.0319769275624305,0.002761774597223848
1761507718077577500,1.578577392578125,0.016986206114292145,-0.0013471768252551555,-0.019112294890172778
1761507718097733400,1.5987333984375,0.1265466510295868,0.028092560409754514,-0.06013851635409519
1761507718117889500,1.6188896484375,0.12632511723339557,-0.08236059556156397,-0.0781800219412893
1761507718138044700,1.639044677734375,-0.055045010873675346,0.0024062574241310356,0.07598762646354734
1761507718158200600,1.65920068359375,-0.015200491741299628,0.12536891248710452,0.07997192859305069
1761507718178355500,1.67935546875,-0.1427244633704424,-0.054282794329524035,0.04922791295959614
1761507718198511600,1.69951171875,-0.11195289300978183,-0.027082360453903675,0.013813065104046836
1761507718218666500,1.71966650390625,-0.15236206028759477,0.026905761777982113,0.016787185544008387
1761507718238822400,1.739822509765625,-0.18510756106972692,-0.043652167787030335,0.021841591989900915
1761507718258978600,1.759978515625,-0.1592623411953449,0.008710472134873271,0.03969557564835995
1761507718279133400,1.780133544921875,-0.11734627648591994,0.020274580135196445,0.07258215626846067
1761507718299289300,1.800289306640625,-0.08006897749304771,-0.0037446664210408925,0.02248461173432879
1761507718319444700,1.82044482421875,-0.07747486934661865,-0.026997093323245642,0.0494532735475339
1761507718339600600,1.8406005859375,0.005344868159294128,-0.05633402777090668,0.08575233862539752
1761507718359756500,1.860756591796875,0.005555296039581299,-0.03643544134125113,0.1141044998194091
1761507718379911700,1.88091162109375,0.05941840365231037,-0.08999313626661896,0.11981568054044618
1761507718400067600,1.901067626953125,-0.06335632762312889,-0.0724478349648416,0.17710056102909147
1761507718420222500,1.921222412109375,-0.012620412120223044,-0.01483567701689899,0.1404895987241529
1761507718440378600,1.941378662109375,-0.06961597253978252,-0.09117167852669954,0.11355272942185402
1761507718460535300,1.961535400390625,-0.13068389696478844,0.0082435122102499,0.10426394594237208
1761507718480690200,1.981690185546875,-0.021389994031190872,-0.008134864204004406,0.046513110176101324
1761507718500846300,2.001846435546875,-0.14604863935708998,-0.01541822614520788,0.055986018050834536
1761507718521001200,2.022001220703125,-0.06818214034438133,0.10230718585141002,-0.014289642240386456
1761507718541157000,2.0421572265625,-0.10188801059126854,0.015630553721636534,-0.057391281738877295
1761507718561313300,2.062313232421875,-0.010756956335902214,0.042284167369455096,-0.06529721429152414
1761507718581468400,2.082468505859375,-0.08653262054920197,0.04663344862014055,-0.07382769021699205
1761507718601624300,2.102624267578125,-0.022850129711627958,0.016282660954818128,-0.07739773072348907
1761507718621779200,2.122779296875,-0.06954641443490982,0.04777933071963489,-0.03278117488371208
1761507718641935400,2.142935302734375,0.002910334488749504,0.01399688810519874,-0.014888484916370362
1761507718662091300,2.16309130859375,-0.035326749446988104,-0.03238938082084059,0.025412691942323
1761507718682246100,2.18324609375,0.004480944806337356,-0.02644377028942108,0.0038524924433790144
1761507718702402300,2.20340234375,-0.052068625411391255,-0.022402970466017722,0.045788595293834805
1761507718722557200,2.22355712890625,-0.04588438381850719,-0.061400078988820314,0.08859605588503182
1761507718742713000,2.243713134765625,-0.019368132814764974,-0.07291333358474075,0.10248334613591432
1761507718762868500,2.263868408203125,-0.03112812871336937,-0.05725881446562707,0.14418991454681382
1761507718783024400,2.2840244140625,-0.057824412459135055,-0.07138641627840697,0.14684335166504606
1761507718803180300,2.30418017578125,-0.0028220716834068296,-0.07508373642638325,0.10625778664071112
1761507718823335400,2.32433544921875,-0.027432196804881095,-0.06142893975712359,0.11257360045770183
1761507718843491300,2.3444912109375,-0.044620647493004796,-0.054123000657930964,0.13159794306978584
1761507718863646200,2.364646240234375,-0.05793079544305801,-0.06650814271755516,0.12967930476581677
1761507718883802400,2.38480224609375,-0.022850714233517644,-0.06636968409493565,0.0746371617026627
1761507718903958300,2.404958251953125,-0.02636836696565151,-0.10582593456208705,0.0748741487963125
1761507718924113200,2.425113037109375,-0.06317044966220856,-0.051580549633502955,0.07025332059524952
1761507718944269300,2.445269287109375,-0.008335282146930694,-0.04474697728641331,0.05114763810895383
1761507718964424400,2.465424560546875,-0.11392974604070186,-0.022996552444994448,0.08124443274689838
1761507718984580400,2.485580322265625,-0.05875087965428829,-0.0050805911999195815,0.08052097731055691
1761507719004736500,2.505736572265625,-0.09703414081931114,-0.03820815010219812,0.07239225058639422
1761507719024891400,2.525891357421875,-0.07419394797980786,0.012071180739626288,0.049525425468292084
1761507719045047300,2.54604736328125,-0.008821019837260245,-0.022927140470594166,0.007068440548889339
1761507719065202200,2.5662021484375,-0.030978491109609603,-0.011142156261205672,0.029306119184289124
1761507719085358300,2.5863583984375,0.04210252719223499,-0.020100538742542265,0.006470054530631751
1761507719105514200,2.60651416015625,-0.025792028382420538,0.014924232083186507,0.03774354653144255
1761507719125669000,2.626669189453125,0.04627484444081783,-0.005853036877140403,0.014851258178520947
1761507719145825300,2.6468251953125,-0.0381546663492918,0.020322291734442114,0.024264672684669492
1761507719165980400,2.66698046875,0.03118891898989677,0.029885069849714636,-0.0019766703678295015
1761507719186136300,2.68713623046875,-0.06350479618310928,0.00860839999988675,0.024519853022135794
1761507719206292500,2.70729248046875,-0.02629530172944069,0.041133170703426,-0.033691165868099775
1761507719226447400,2.727447265625,-0.07414192553162574,0.08179792017750441,-0.014123875485733151
1761507719246603300,2.747603271484375,-0.14952829816639424,0.024063231828436255,0.05397252280395478
1761507719266758100,2.767758056640625,-0.2118260566473007,0.024949147817492485,0.0887310073763132
1761507719286914300,2.787914306640625,-0.2537193250030279,-0.024467355649918317,0.044390510265249754
1761507719307070200,2.8080703125,-0.12609189299941062,-0.03753858027756214,-0.012289298736024648
1761507719327225000,2.82822509765625,-0.05073708454668521,-0.07060344920717179,0.031524781614448875
1761507719347381200,2.84838134765625,0.04808803134262561,-0.06967888170816004,0.10009692592341453
1761507719367536400,2.868536376953125,0.04552607190012931,-0.0657785863339901,0.19539823333444073
1761507719387692300,2.8886923828125,0.05953764611780643,-0.05859247422218322,0.17705279463091864
1761507719407848400,2.908848388671875,0.009988310050964355,-0.06845927678532898,0.15338943057395518
1761507719428003300,2.92900341796875,-0.02857435257732868,-0.07382876792922616,0.11782083519510925
1761507719448158000,2.949157958984375,-0.07251110945940017,-0.05456774875074625,0.06221935948245227
1761507719468313000,2.96931298828125,-0.13232406538724897,-0.058353550899773836,0.0790360177161172
1761507719488469200,2.98946923828125,-0.09947218162119388,-0.03921908071041107,0.11073650295734405
1761507719508625200,3.009625244140625,-0.04655424590408802,-0.003477612982690334,0.11209423770923167
1761507719528780000,3.029780029296875,0.030031565648317337,-0.009182181299850344,0.04616115493327379
1761507719548936200,3.049936279296875,0.03178513131737709,0.015536445697396992,0.042062377844937146
1761507719569091000,3.070091064453125,0.034676176583766934,0.010356704971939325,0.03558927284069359
1761507719589247000,3.0902470703125,-0.05876432365775108,-0.016281418845802545,0.018486637272499502
1761507719609403100,3.110403076171875,-0.04476210179030895,0.02958740207739174,-0.01655526735112071
1761507719629558000,3.13055810546875,-0.014195114091038703,0.0571050852086395,-0.01222498306185007
1761507719649714000,3.1507138671875,-0.10769231295585632,-0.012337211264669894,0.012926591992564499
1761507719669869000,3.170869140625,-0.08610708861351013,-0.042450756108015776,0.006068360128253698
1761507719690025200,3.191025146484375,-0.06273498085439205,-0.09127908442392944,0.050694304850883776
1761507719710181000,3.21118115234375,-0.10804127252399921,-0.001442380828037858,0.11066559314560144
1761507719730336000,3.2313359375,-0.08768237510621547,-0.05342873478345573,0.10129925091788172
1761507719750492200,3.2514921875,-0.06472644693255424,-0.04392974261939525,0.055822132726013655
1761507719770647000,3.27164697265625,-0.06001929215490818,-0.05329020309560001,0.07108253796100616
1761507719790803000,3.291802978515625,-0.03181728002130985,-0.030717867412045595,0.04290332218110561
1761507719810959000,3.311958984375,-0.048960722523927684,-0.07674911235533655,0.04740706334114075
1761507719831114000,3.332114013671875,-0.05294482372403145,-0.044251887245848776,0.02551167707107961
1761507719851270000,3.352269775390625,-0.049307928526401514,-0.02781447412073612,0.03760083185881376
1761507719871425000,3.372425048828125,-0.07997545399069786,-0.03154270086362958,0.06721493928004056
1761507719891581200,3.392581298828125,-0.1131955865472555,-0.0331245632275939,0.06431129026040434
1761507719911737000,3.412737060546875,-0.09117430887520313,-0.03556245789900422,0.06219572287853807
1761507719931892200,3.432892333984375,-0.05549743081629276,0.04702230180725455,0.02248301343228668
1761507719952048000,3.453048095703125,-0.02633738730549812,-0.03483443588539958,0.011390358868613839
1761507719972204000,3.4732041015625,0.022781740650534628,-0.026548984229564664,0.03661014032103121
1761507719992359200,3.493359130859375,0.009033201283216476,0.0326500045184046,0.010739895603246986
1761507720012515000,3.51351513671875,0.013071663019061089,-0.008359759001061319,0.012563567366451023
1761507720032670000,3.533669921875,-0.0214671509206295,0.022498320599272845,0.03605415040608495
1761507720052826000,3.553826171875,0.010862754797935486,-0.015966069286316633,0.016975136731006205
1761507720072981000,3.57398095703125,0.012075053197145462,-0.019421908828616143,0.02180456618145108
1761507720093137200,3.59413720703125,-0.051743631240725514,-0.004294482323527336,0.033924006509594616
1761507720113293000,3.61429296875,-0.06477846938073635,0.021284341699630022,0.005582732035778463
1761507720133448200,3.6344482421875,-0.09192892663478851,0.022399682530388234,-0.0014498700147494673
1761507720153604000,3.65460400390625,-0.07523673503100872,0.0089172467533499,-0.023690306862816212
1761507720173760300,3.67476025390625,-0.06975801135897636,0.02722695655636489,0.012766432994790375
1761507720193915100,3.6949150390625,-0.009935703080892562,0.005372267622873187,0.030069084647111593
1761507720214071000,3.715071044921875,0.03631926761567592,-0.06487082383930683,0.04916053767865523
1761507720234226000,3.735225830078125,-0.0043611178189516065,-0.024799583278968928,0.058131377782765774
1761507720254382000,3.755382080078125,-0.03722352297902107,-0.034366453047469256,0.046623402150161565
1761507720274538000,3.7755380859375,-0.08630056535899638,-0.050342824532091615,0.006123359984811395
1761507720294693000,3.795693115234375,-0.07194003157317638,-0.09528868539147078,-0.026663897579815236
1761507720314849000,3.81584912109375,-0.10683072769045829,-0.03367050667256117,0.014752218250837177
1761507720335004200,3.836004150390625,-0.06568155570030212,-0.026296982229873537,-0.00008360489653423428
1761507720355160000,3.85616015625,-0.06399930170178413,-0.03345781376995146,0.020345800474192946
1761507720375316200,3.876316162109375,-0.052419923067092894,-0.007253478259593248,0.026554427589662373
1761507720395471000,3.89647119140625,-0.05474982731938362,-0.019057167169451713,0.011163966234214603
1761507720415627000,3.916626953125,-0.04304477647840976,-0.03697590489350259,0.030152269418537617
1761507720435782000,3.936781982421875,-0.038349896660447115,-0.01925320119820535,-0.010731876693572848
1761507720455938800,3.956938720703125,-0.053393736535310744,-0.039531434595212335,-0.009532784835807979
1761507720476095000,3.977094970703125,-0.08625906430482864,-0.02588978966847062,0.061693107118643814
1761507720496249900,3.997249755859375,-0.03151391316056251,-0.10779043956808745,0.02913171246545389
1761507720516404000,4.017404052734375,-0.09754618199467659,-0.037491818526387215,0.05671033200370147
1761507720536558800,4.037558837890625,-0.03232172241210937,-0.040562531208619475,0.03728811264783144
1761507720556715000,4.057715087890625,-0.08550561558902263,-0.08672733940370381,0.07498774697231128
1761507720576870000,4.077869873046875,-0.04172609509527683,-0.03964088631905615,0.06778466545939445
1761507720597025800,4.09802587890625,-0.0748497815400362,-0.09335998235121369,0.12028709744447842
1761507720617182000,4.118181884765625,-0.033251696738600726,-0.03997618268802762,0.1069371289406903
1761507720637337000,4.138337158203125,-0.09229191472828388,-0.03525061547085643,0.05609859331352636
1761507720657493000,4.158492919921875,-0.06636544631123542,0.013835633128881454,0.03656772595141083
1761507720677648000,4.17864794921875,-0.0678822806149721,-0.055393093658983705,0.04669705190826207
1761507720697804000,4.198803955078125,-0.02322130111157894,-0.006700520551949739,0.014330229979101567
1761507720717960000,4.2189599609375,-0.03958616045713424,-0.003674377663806081,0.0620079269551672
1761507720738114800,4.23911474609375,0.009791910696029662,0.007783274287357926,0.08560925862658768
1761507720758271000,4.25927099609375,-0.060678048324584954,0.011734276935458183,0.08363450622120872
1761507720778425900,4.27942578125,0.0164566292822361,-0.020716624814271927,-0.00041879166765138503
1761507720798581800,4.299581787109375,-0.13166823182702064,0.032318069150298834,0.09685774307278916
1761507720818738000,4.319738037109375,-0.02430442017316818,0.023919585574045776,0.05637941954890266
1761507720838893000,4.33989306640625,-0.023408348116278645,-0.060447527504339814,0.038056174410879606
1761507720859049000,4.360049072265625,-0.0370914210319519,0.052446738008782266,0.08400763211622833
1761507720879204000,4.3802041015625,0.04174421527385711,0.03807999367788434,0.028687055704183874
1761507720899360000,4.400360107421875,-0.035031565892696376,-0.06129303841777146,0.03037676235679537
1761507720919516000,4.420515869140625,-0.044838089635968206,0.07568915497362613,0.016455515037383885
1761507720939672000,4.440672119140625,-0.08112403950393199,0.011506605659425259,-0.016681012622639536
1761507720959828000,4.460827880859375,-0.09833762463331222,0.004417158855125307,-0.0004792166179977357
1761507720979982800,4.48098291015625,-0.08299100241959094,-0.03322290903553366,0.06030305926604196
1761507721000139000,4.501138916015625,-0.09934417132735252,-0.02568900639936328,0.09651324048405513
1761507721020294000,4.5212939453125,-0.11990648236274719,-0.06071538466028869,0.11193389604836702
1761507721040449800,4.54144970703125,-0.08117723099589347,-0.026840295326337218,0.038279187778104094
1761507721060606000,4.56160595703125,-0.14068155936598778,0.000691270199790597,0.08742657371424138
1761507721080760800,4.5817607421875,-0.05502689069509506,-0.0017534926038235425,0.04792246551737189
1761507721100916700,4.601916748046875,-0.03323474560379982,-0.10234364540427923,0.08664198094150051
1761507721121071900,4.62207177734375,-0.012474281647801398,-0.030069778766855595,0.06524619649033993
1761507721141228000,4.64222802734375,-0.012577742022275924,-0.03918101372234523,0.03380218849452212
1761507721161384000,4.662384033203125,-0.04076572563052177,-0.04700359710678458,0.057055985369905825
1761507721181538800,4.682538818359375,-0.08471300390660762,-0.008717997854202986,0.05393317717425525
1761507721201695000,4.702695068359375,-0.2068032600492239,-0.02042290256470442,0.004579783804621547
1761507721221849900,4.722849853515625,-0.21207214036285876,0.02306399165801704,-0.08154944357546046
1761507721242005800,4.743005859375,-0.08521861534118652,0.045311187040433284,-0.17928554038535802
1761507721262162000,4.763161865234375,0.0905699132412672,0.052567660974711175,-0.18550657032467424
1761507721282316800,4.78331689453125,0.20231179384887218,0.04614354621134698,-0.09717917531318962
1761507721302472700,4.80347265625,0.15043722970485687,-0.02096044350750744,0.0686876421811059
1761507721322628000,4.823628173828125,0.1168254674822092,-0.08882716122716665,0.14616112328823655
1761507721342784000,4.843783935546875,0.024028525841236114,-0.07694317362271248,0.18231456935033202
1761507721362940000,4.86393994140625,-0.05757014543712139,-0.13344912389442323,0.2161336176481098
1761507721383095000,4.884094970703125,-0.15164076027572154,-0.15620229603759944,0.2673265927361324
1761507721403251000,4.9042509765625,-0.25444880832135675,-0.1403455323446542,0.24888043360449372
1761507721423406800,4.92440673828125,-0.24002689973711966,-0.10995324362516402,0.254030582909286
1761507721443562000,4.94456201171875,-0.22871523212790487,-0.07946757753379642,0.2190603187497705
1761507721463721500,4.964721435546875,-0.13303075235188005,0.0033428806871175763,0.12286664734259246
1761507721483876400,4.98487646484375,-0.06454641419053077,0.027070012428984044,0.058648917117156085
1761507721504032500,5.005032470703125,0.05197977808415889,0.11005699626058339,-0.034844226627051826
1761507721524188400,5.0251884765625,0.02683423091173172,0.08571144035942851,-0.06794142692368477
1761507721544343600,5.045343505859375,0.07811258272826671,0.16255612204372882,-0.10252130352612585
1761507721564499700,5.065499755859375,0.02633738730549812,0.14870836008563637,-0.0701147158421576
1761507721584654600,5.085654541015625,0.06441548128724098,0.1703136043027043,-0.0958329118033871
1761507721604810500,5.105810546875,0.020696166548132895,0.1148237722709775,-0.09349065952617674
1761507721624966700,5.125966552734375,0.006670563805103302,0.07652085655741393,-0.03525602229833603
1761507721645121500,5.14612158203125,-0.04913666361272335,0.0032895430646836758,0.047536133080907164
1761507721665277400,5.16627734375,-0.06589256810247898,-0.06940759048610926,0.09180953803882003
1761507721685432600,5.1864326171875,-0.10197568887472153,-0.08542699739485979,0.1818371245643124
1761507721705588500,5.20658837890625,-0.153943191999197,-0.13464695537686347,0.24230788681376725
1761507721725744400,5.226744384765625,-0.1554950976163149,-0.17417992434203625,0.2139498438682407
1761507721745899800,5.246899658203125,-0.1531190161347389,-0.13506737274602054,0.15815419729035346
1761507721766055700,5.2670556640625,-0.08583937758803367,-0.09176628341898321,0.1032697472732514
1761507721786210600,5.28721044921875,-0.016364274823665616,-0.07932100866995752,0.08041044787447899
1761507721806366500,5.307366455078125,0.02824409770965576,-0.07420841489657759,-0.030884602281078696
1761507721826522600,5.327522705078125,0.043293198281526564,-0.08019830296114086,-0.10592457263097166
1761507721846677500,5.347677490234375,0.016601006188988684,-0.02886076830327511,-0.1669703582894057
1761507721866833400,5.36783349609375,-0.04085983365476131,0.012181290050595999,-0.13930504684839398
1761507721886988500,5.387988525390625,-0.07689093197882176,0.039516894613206385,-0.07570190485734492
1761507721907144400,5.40814453125,-0.11486088941097258,0.04574387936927378,0.017343677782453597
1761507721927300400,5.42830029296875,-0.12834288679659367,-0.0105631142642349,0.08267057482618838
1761507721947455700,5.448455810546875,-0.11872107197046279,-0.04478979351483285,0.06607493893206119
1761507721967611600,5.468611572265625,-0.09618658407926559,-0.0637318098720163,0.01809095248579979
1761507721987766500,5.4887666015625,-0.049288054782152174,-0.047088645041733976,0.05250332703422755
1761507722007922700,5.508922607421875,-0.014010405173897742,-0.04981244398243725,0.11509663439560681
1761507722028078600,5.52907861328125,0.05888590421080589,-0.021702274850755928,0.16995993202682583
1761507722048233500,5.5492333984375,0.05899520980417728,-0.021812091900780796,0.18942074809372425
1761507722068389600,5.5693896484375,0.07279869422912598,-0.04150792229995131,0.10417882494218647
1761507722088544500,5.58954443359375,-0.01225683950483799,-0.04140066253319383,0.06567837736252695
1761507722108700400,5.609700439453125,-0.07777531359791755,0.012903978301957249,0.0342458954077214
1761507722128856600,5.629856689453125,-0.1454296306759119,-0.016163345424085856,0.005183357454650104
1761507722149011700,5.65001171875,-0.11009119079113006,-0.008244169797375798,-0.030814094328135252
1761507722169167600,5.670167724609375,-0.04797229600846767,-0.023973069326952097,-0.037858423349075014
1761507722189322500,5.690322509765625,-0.06543079580962657,-0.015678776777535677,0.022939342365041374
1761507722209478700,5.710478759765625,0.02489478728175163,0.031144056934863325,0.049121502576209605
1761507722229634600,5.730634521484375,-0.043154082071781154,-0.04265811524838209,0.07570588691271841
1761507722249789400,5.75078955078125,0.02297989357113838,0.009023483606800437,0.028880495917052027
1761507722269945600,5.770945556640625,-0.07609072151184082,-0.07488741013668478,0.038369514676369725
1761507722290101500,5.7911015625,-0.06105272685587406,-0.016866671387851237,-0.016551796752400694
1761507722310256400,5.81125634765625,-0.13407646201252937,-0.04203581863157451,0.01310786684360355
1761507722330412500,5.83141259765625,-0.11405366468131542,0.028247458710521457,0.06665704966895282
1761507722350567700,5.851567626953125,-0.07072948673963546,-0.007660305494815111,0.07644008293878286
1761507722370723600,5.8717236328125,-0.06357903046309947,0.03523614855408668,0.039294995490834116
1761507722390879700,5.891879638671875,-0.019831658673286436,0.0048153643924742934,-0.009162271022982895
1761507722411034600,5.91203466796875,0.04403963273465633,-0.0181585378292948,-0.06805350899603217
1761507722431190500,5.9321904296875,0.012280804902315139,-0.023279168778657912,-0.016457469532452522
1761507722451345400,5.952345458984375,0.06044482409060001,-0.025764409723132847,-0.00559803920276463
1761507722471498000,5.972498046875,-0.0438449869453907,-0.02660166426487267,0.026888627980090677
1761507722491654000,5.99265380859375,-0.12982640335261822,-0.005521393769979476,0.03386124347168952
1761507722511808800,6.012808837890625,-0.2081926685810089,-0.0956958779528737,-0.003437938559427857
1761507722531965000,6.03296484375,-0.11086217516362666,-0.04569426807388663,0.017178696479089556
1761507722552120000,6.0531201171875,-0.06213701496124267,0.05396854074858129,0.14979706863779574
1761507722572276000,6.07327587890625,-0.0693418317735195,-0.0059553282078355545,0.10201989334262906
1761507722592432000,6.09343212890625,0.028021394869685173,-0.028272300890833137,0.020217004729062318
1761507722612587000,6.1135869140625,-0.02938216182887554,-0.04557992097921669,-0.00737177087701857
1761507722632743000,6.133742919921875,0.024389760369062423,-0.005548793233558535,-0.019532858389802277
1761507722652898000,6.15389794921875,-0.04751578441262245,-0.043199236387759445,0.028533764838613567
1761507722673054000,6.174053955078125,-0.03288169438242912,-0.010181859861686826,0.03320376594364643
1761507722693209900,6.1942099609375,-0.06459434498548507,-0.0006925123088061809,0.05061353123225271
1761507722713365000,6.214364990234375,-0.017733809611201284,0.018254691680148243,0.05060158506613224
1761507722733521000,6.23452099609375,-0.062137599483132355,0.003500409336388111,0.008585055656917393
1761507722753676000,6.254676025390625,-0.09058627985417843,-0.05450133245103061,-0.05614164700396359
1761507722773832200,6.274832275390625,-0.11401859336793423,-0.008454013155773281,-0.060916624587122346
1761507722793988000,6.294988037109375,-0.11135025094151496,0.016933160752803086,-0.035069340619817375
1761507722814143000,6.31514306640625,-0.09204407744705677,0.0023640987828373906,0.030559480246249583
1761507722834299100,6.335299072265625,-0.04445405875444412,-0.006557020428031682,0.06841465219231321
1761507722854454000,6.3554541015625,-0.019805939710140226,-0.018419307657331227,0.08132854910008609
1761507722874610000,6.37560986328125,0.03372574399113655,-0.023574352332949636,0.008159414123371242
1761507722894766000,6.39576611328125,-0.007193710896372794,0.011672609876096248,0.02132679260186851
1761507722914921000,6.4159208984375,0.001696282523870468,0.0365925315991044,0.01621671957913786
1761507722935076900,6.436076904296875,-0.0037128830432891845,-0.00420073962546885,0.014270188621245324
1761507722955232000,6.45623193359375,0.02185410441160202,0.01827478462010622,0.05025405027009546
1761507722975388200,6.47638818359375,-0.04693535417616367,-0.02900996751561761,0.11323537056837231
1761507722995544000,6.4965439453125,0.036246786901354786,-0.013429244285076856,0.011830248123221098
1761507723015699000,6.516698974609375,-0.08870470389127731,-0.08856076537594199,0.059858767830953
1761507723035855000,6.536855224609375,-0.06004150398671627,-0.04818593875914812,0.03633504970669746
1761507723056011000,6.557010986328125,-0.08584989898204803,-0.07710632829517125,0.08229408793030306
1761507723076166000,6.577165771484375,-0.03313186975121498,-0.06427073905430734,0.10679123593028635
1761507723096322000,6.597322021484375,-0.07192366496026516,-0.11683920374661684,0.13195901320083067
1761507723116477000,6.617476806640625,0.02945581158697605,-0.07513042511232197,0.10045642515188083
1761507723136632800,6.6376328125,0.0038473230779170987,-0.08513583242855965,0.11204577719131484
1761507723156789000,6.6577890625,-0.06397533630430698,-0.1289102383557707,0.1341412891433574
1761507723176944000,6.677944091796875,-0.06739771196842194,-0.08405359014980494,0.10242969798622652
1761507723197100000,6.69810009765625,-0.12384966703057289,-0.1432010679062456,0.11741532313413917
1761507723217255000,6.7182548828125,-0.11226502769887446,-0.026787176899611947,0.07748610312668607
1761507723237411000,6.7384111328125,-0.08847147965729237,-0.0753426065582782,0.06282642199750989
1761507723257567000,6.75856689453125,-0.043622868627309797,-0.02091397401727736,0.079153086490836
1761507723277721900,6.778721923828125,-0.03567804710268974,-0.04827478608638048,0.05389379501193761
1761507723297878000,6.7988779296875,-0.09046703738868236,-0.033758477216958994,0.034670477495342494
1761507723318033000,6.819032958984375,-0.05736439373195171,-0.06589958236515521,0.07086842028629034
1761507723338188800,6.839188720703125,-0.016256722795963286,0.0208865745536983,0.06648560209218413
1761507723358345000,6.859344970703125,-0.05564765294194221,-0.02081540901362896,0.07177552519384771
1761507723378500000,6.8795,-0.08247603863477707,-0.04881137718111277,0.07504932270012796
1761507723398656000,6.899656005859375,-0.11121288829743861,-0.05843151150681078,0.05527140350807458
1761507723418811100,6.91981103515625,-0.11960603811144828,-0.07453209389299154,0.06585855623502283
1761507723438967000,6.939967041015625,-0.10688391918241977,-0.10502126711569726,0.0672091305937618
1761507723459126300,6.960126220703125,-0.09235855022370815,-0.0781084180098027,0.11570241826903074
1761507723479281400,6.980281494140625,-0.16659809091091154,-0.00326418942771852,0.14608272428978233
1761507723499437300,7.000437255859375,-0.0847352157384157,-0.07427410054393112,0.09781476980298758
1761507723519592200,7.02059228515625,-0.11669687266647814,-0.07237316229343414,0.05562671975176781
1761507723539748400,7.040748291015625,-0.14756488913893698,0.06757131496965885,-0.009310703050345181
1761507723559904300,7.060904296875,-0.09309855493605136,0.07000636009685694,-0.03803071117606014
1761507723580059400,7.081059326171875,-0.058951370662450785,0.178463812206313,-0.12209909703619777
1761507723600215600,7.101215576171875,-0.2094914762198925,0.2869108159869909,-0.04496332345083356
1761507723620370400,7.121370361328125,-0.01915185971558094,0.27291896938309074,-0.08347396363094449
1761507723640526300,7.1415263671875,0.10850362933874129,0.18279687297455965,-0.11901720537282526
1761507723660682500,7.1616826171875,0.08733516910374164,0.23248028374984858,-0.016290405869856476
1761507723680837400,7.18183740234375,-0.07622223893702029,0.1871651511866599,0.06414952382743358
1761507723700993300,7.2019931640625,-0.05562661015391349,0.07683964018300175,0.03434891739077866
1761507723721148200,7.222148193359375,0.0443809935182333,-0.030447818299010394,0.06367591496631503
1761507723741304300,7.24230419921875,0.07438333307206631,-0.011693360403180121,0.15092362498231232
1761507723761460200,7.262460205078125,0.011410451808571816,0.0136745973482728,0.15916808704063296
1761507723781615400,7.282615478515625,0.12595511487722397,-0.12089600485675037,0.20506101949177682
1761507723801771500,7.302771484375,0.11924421906173228,-0.17115962667278944,0.1967640235286206
1761507723821927400,7.322927490234375,0.10565817677974701,-0.13380217511579393,0.22874628485329448
1761507723842082300,7.343082275390625,0.059385085904598234,-0.08757621131800114,0.14690321035981177
1761507723862238500,7.363238525390625,-0.04258417322933673,-0.10877199795134365,0.05085150470659137
1761507723882393300,7.383393310546875,-0.07726561051011085,-0.013268427700176834,0.05813304001688957
1761507723902549200,7.40354931640625,-0.07731354130506515,-0.023205007563903927,0.0912909209921956
1761507723922705400,7.423705322265625,0.015432546931505203,-0.009971578111872076,0.037001989182829854
1761507723942860300,7.4438603515625,-0.013778349983692168,-0.02135696854442358,-0.041407530665397645
1761507723963016200,7.46401611328125,-0.05437222617864609,-0.002898278724774718,-0.05279832792542875
1761507723983171600,7.484171630859375,-0.06745207250416278,0.005912073587998747,-0.0166362236328423
1761507724003327500,7.504327392578125,-0.010267711514234543,-0.017005860662832856,0.0002411152794957161
1761507724023483400,7.5244833984375,-0.003221300134062767,-0.04288140261024236,0.023630904825776813
1761507724043638500,7.544638427734375,-0.031038112342357635,-0.018120909232646226,0.08143566273637115
1761507724063794400,7.56479443359375,-0.04840718029439449,-0.09204371212087571,0.1247402591947466
1761507724083949300,7.58494921875,-0.024593173986673354,-0.10541706150025129,0.15202676391862333
1761507724104105200,7.605105224609375,-0.025585692155361175,-0.07303140700645744,0.12070837333016096
1761507724124261400,7.625261474609375,-0.004423661661148071,-0.08516396254450083,0.07900690121948718
1761507724144416300,7.645416259765625,-0.05640110165774822,0.00025455928295850755,0.0899136412896216
1761507724164572200,7.665572265625,-0.13291501701772213,-0.025420564721524715,0.07049005196057259
1761507724184727600,7.6857275390625,-0.15256313581764697,-0.08374094400405883,0.017017331904917953
1761507724204883500,7.705883544921875,-0.1356172617137432,-0.05279606290310621,0.017236600678786636
1761507724225039400,7.726039306640625,-0.105423198980093,-0.034903920925036074,0.06857048207484186
1761507724245194500,7.746194580078125,-0.15451134727597235,-0.03673018650412559,0.10468392492011189
1761507724265350400,7.766350341796875,-0.06595511194467545,-0.06521349979713559,0.05444361091442406
1761507724285505300,7.78650537109375,-0.09239362153708934,-0.0015033172350376843,0.09726056998632848
1761507724305661400,7.806661376953125,-0.007002572238445281,0.05691935337819159,0.04918590958192944
1761507724325817300,7.8268173828125,-0.09763912097513675,-0.08700703312791884,0.04166472029685974
1761507724345972200,7.84697216796875,0.15113631788492202,0.034200083504617215,0.015239435512199997
1761507724366128400,7.86712841796875,0.11413023704886435,0.009527925997599959,0.043786023299768564
1761507724386283500,7.887283447265625,0.02734568756520748,-0.03254011440314352,0.06647548255696892
1761507724406439400,7.907439453125,0.04751052371561527,-0.03137859634310007,0.04069266039431095
1761507724426595300,7.92759521484375,0.020580431213974952,-0.014052563815191387,0.03365815864764154
1761507724446750500,7.94775048828125,-0.018636895930767058,-0.0037867519970983263,0.0406336236834526
1761507724466903300,7.9679033203125,-0.13323182788193225,-0.00598115676883608,-0.012197218272089957
1761507724487058200,7.98805810546875,-0.2040308727264404,-0.025460239144787192,0.039932928068190814
1761507724507213000,8.008213134765626,-0.268307237803936,-0.07741502891816199,0.0753108231805265
1761507724527369200,8.028369140625,-0.17853753502964972,-0.01681161673236638,0.09187398157715797
1761507724547525000,8.048525146484375,-0.15353051954507826,-0.06758932555038481,0.09403773548230528
1761507724567680000,8.068679931640625,-0.07993921363353729,-0.08522566613648086,0.09336509691774844
1761507724587836200,8.088836181640625,-0.05523673405349254,-0.0724653706215322,0.1391626792356372
1761507724607991300,8.1089912109375,-0.06714461399018765,-0.11177044911496341,0.1377768509004265
1761507724628147200,8.129147216796875,-0.010869769060611724,-0.12798033709451556,0.10023907434046268
1761507724648303400,8.149303466796875,-0.04904898532927036,-0.04197444383315742,0.07303250298500061
1761507724668458200,8.169458251953126,-0.054282794329524035,-0.03197612384483218,0.05273030419051647
1761507724688614100,8.1896142578125,-0.04419920721054077,-0.010598331708088517,0.026939590982347727
1761507724708769000,8.20976904296875,-0.006857610809803009,-0.037834932875633234,-0.0019921236652880904
1761507724728925200,8.22992529296875,-0.019134908580780027,0.022001842319220304,0.03339161666594446
1761507724749081000,8.2500810546875,-0.06393851142525672,-0.03491181197054684,0.07122296934500336
1761507724769236000,8.270236083984376,0.005728899040818214,-0.022389015005901455,0.09061294866539538
1761507724789392100,8.29039208984375,-0.0706803869009018,-0.06730535750985145,0.08931509087458252
1761507724809547300,8.31054736328125,-0.06089022977054119,-0.02414901041574776,0.09903028307259082
1761507724829703200,8.330703125,-0.061631988048553465,-0.06022840486094355,0.10110489738956094
1761507724849859300,8.350859375,-0.05054477684497833,-0.0436384315226227,0.0878041017897427
1761507724870014200,8.37101416015625,-0.06361234821081162,-0.004813683892041444,0.09142294987402856
1761507724890171400,8.39117138671875,-0.022229951986670493,-0.013344634741544723,0.05704334508404135
1761507724910327300,8.411327392578125,-0.08754676602780818,-0.020327625496685504,0.041913069034740326
1761507724930483200,8.431483154296876,-0.0459843370616436,0.006293254925310611,-0.004420300660282373
1761507724950638300,8.451638427734375,-0.09547755902707576,0.035248131252825256,0.05366700051873922
1761507724970794200,8.471794189453124,-0.06824526870846748,-0.0024245237331837416,0.059217474252730606
1761507724990949000,8.49194921875,-0.005610825619101524,0.03288169438242912,0.06867818023301661
1761507725011105300,8.512105224609375,0.01030044474005699,0.01376337161026895,0.07154686753712594
1761507725031261200,8.53226123046875,0.06026186873912811,0.0382755162499845,0.03781754334941506
1761507725051416000,8.552416015625,0.006562427255511283,0.05878251690156758,0.013331336868554353
1761507725071572000,8.572572021484374,-0.0034837504625320433,-0.007698007156699895,-0.002005567668750882
1761507725091727400,8.592727294921875,-0.06194236917197704,0.027017405458912253,0.007718465422838926
1761507725111883300,8.61288330078125,-0.08352993160188198,0.01837159605808556,0.017712547627463937
1761507725132039200,8.6330390625,-0.16247311993539332,0.03458732925653457,0.03325440015234053
1761507725152194300,8.6531943359375,-0.13208148880302906,0.014201470766589045,0.029680560253560542
1761507725172350200,8.67335009765625,-0.12556757686436176,0.0026438655722886323,0.04324848235696554
1761507725192505000,8.693505126953125,-0.1156879878848791,-0.0067681789606809616,0.06908895299099385
1761507725212661200,8.7136611328125,-0.03942307884991169,0.005661752088740468,0.04510865020565688
1761507725232817200,8.733817138671874,-0.020527239722013473,0.013276537941396235,0.029483795572444793
1761507725252972000,8.753971923828125,0.010858078622817992,0.00010477554872632027,0.008692132760584354
1761507725273128200,8.774128173828124,-0.013593056544661522,-0.012876140446960926,0.03442629347592592
1761507725293283300,8.794283447265625,-0.00014028525352478027,0.014333572713658213,0.050747752071172
1761507725313439200,8.814439208984375,-0.021978023052215575,0.035415085317566986,0.011106938817352056
1761507725333595400,8.834595458984374,-0.030419688183069227,0.020292188857123254,-0.026052579014748334
1761507725353750300,8.854750244140625,-0.04411211344897747,0.011727701064199209,-0.04228847821839154
1761507725373906200,8.87490625,-0.006846504893898963,-0.00870060832798481,0.002589285840839147
1761507725394061000,8.89506103515625,-0.012454407903552055,-0.01395253750681877,0.06411496397070586
1761507725414217200,8.91521728515625,-0.050230888590216634,-0.0546794654969126,0.058350116833671924
1761507725434373000,8.935373046875,-0.03491173890531063,-0.00413410413004458,0.04845416124127805
1761507725454528000,8.955528076171875,-0.04489595730304718,-0.004968728323280811,0.06585077478736638
1761507725474684000,8.975683837890625,-0.0578355183750391,-0.019821064214035868,0.04311396925710141
1761507725494839800,8.99583984375,-0.07049509346187115,-0.00793188897781074,-0.0026630817294120788
1761507725514995000,9.015994873046875,-0.09376841702163219,-0.0603657675050199,0.01095028695091605
1761507725535151000,9.036151123046874,-0.09231646464765071,-0.06560907498598098,-0.005112666838616132
1761507725555306000,9.056305908203125,-0.06605798779726028,0.011942001402005553,-0.015278233152627944
1761507725575462000,9.0764619140625,-0.060066053906083106,-0.023706308149546385,-0.02805120548605919
1761507725595618000,9.0966181640625,0.0008072247296571731,-0.03598302139863371,-0.005306728105992078
1761507725615773000,9.11677294921875,0.044076457613706585,0.008918634992837906,0.018149039348587394
1761507725635928800,9.1369287109375,-0.05038227975964546,-0.06485453029163181,0.1084833902683109
1761507725656084000,9.157083984375,-0.06080488957464695,-0.06520970040485262,0.09229600638151168
1761507725676240000,9.177239990234375,0.0039823476344347,-0.05024878957308829,0.06111322487145662
1761507725696395800,9.197395751953126,-0.021668226450681685,-0.07970343211628496,0.06262034149877727
1761507725716551200,9.21755126953125,-0.054034957048296924,-0.10163571633063256,0.034066593318060036
1761507725736707000,9.23770703125,-0.10052373650074005,-0.1024373150371015,0.03109736824892461
1761507725756862000,9.257862060546875,-0.07239478960335254,-0.058973217168077824,0.029946517713367937
1761507725777018000,9.27801806640625,-0.07927110511362552,-0.03546754615716636,0.02952858456224203
1761507725797174000,9.298174072265626,-0.01613280415534973,-0.044976329062879086,0.042538580521941184
1761507725817329000,9.318328857421875,0.00007423427999019622,-0.010451908974722026,0.05702442118786275
1761507725837485000,9.338485107421874,-0.03297346431910991,0.015593582712113856,0.026966040597856043
1761507725857640000,9.358639892578125,-0.06359656611979007,-0.010378843738511204,-0.031242329677566884
1761507725877795800,9.3787958984375,-0.0733896458595991,-0.006310498321056366,-0.005057940976694226
1761507725897952000,9.398951904296876,-0.021959902873635292,-0.047089156498387456,-0.010944295601546764
1761507725918107100,9.419107177734375,-0.007006079369783401,-0.023654139570891856,0.014834288777410984
1761507725938263000,9.439262939453124,0.0013274492114782332,-0.020768939523398876,0.01674070692062378
1761507725958418000,9.45941796875,-0.03334054406583309,-0.03419876833036542,0.01725844718441367
1761507725978574000,9.479573974609375,-0.06529577125310898,-0.02005195036046207,0.01391352067068219
1761507725998730000,9.49972998046875,-0.05942541791498661,-0.016658508529886602,0.005565598237887025
1761507726018884900,9.519884765625,-0.04681961884200573,-0.027395079664885996,0.02026259743645787
1761507726039041000,9.540041015625,0.001662380254268646,-0.021931261301040648,-0.00927402430176735
1761507726059196000,9.56019580078125,-0.03556055820286274,-0.01207848726324737,0.0003406301312148571
1761507726079351800,9.580351806640625,-0.06544014815986156,0.004063523111864924,0.005773468834906816
1761507726099508000,9.600508056640624,-0.08787818993926048,0.004035173800215125,0.034384207899868485
1761507726119663000,9.6206630859375,-0.10459317789673804,0.011232684088870883,0.03417275710627436
1761507726139819000,9.640819091796875,-0.0853156459748745,0.017440160426869987,0.020034633899480105
1761507726159975200,9.66097509765625,-0.09271920022964476,0.02166574223265052,0.03168890440128744
1761507726180130000,9.681130126953125,-0.03801321205198765,-0.04291815442405641,0.07394033854492008
1761507726200286000,9.701285888671874,-0.0024959084689617156,-0.038791502948105336,0.09294665230996907
1761507726220440800,9.72144091796875,0.07353928346335888,-0.05592917329706251,0.03063040832430124
1761507726240597000,9.741596923828125,-0.0015934066712856292,-0.027196049961447713,-0.017258301053941247
1761507726260753000,9.7617529296875,-0.051691608792543406,-0.027971929704770443,0.0008321399752050638
1761507726280907800,9.78190771484375,-0.025090602114796638,-0.004709492865204811,-0.0010011398665606974
1761507726301064000,9.80206396484375,-0.10124328294694424,0.024446824318543076,0.049234863290190695
1761507726321219000,9.822218994140625,-0.05911503679156303,0.03336363268047571,0.046290626531839366
1761507726341375000,9.842375,-0.1102244617819786,0.00006809680014848709,0.01952295805029571
1761507726361531100,9.86253125,-0.21019114892184734,0.0019536182858049867,-0.013135010578855872
1761507726381686000,9.88268603515625,-0.16849954061806202,0.03016067192070186,-0.011333294919133185
1761507726401842000,9.902842041015624,-0.12790858703255653,-0.00810688021853566,0.04257598992288113
1761507726421997000,9.9229970703125,-0.08012918324768543,-0.03108757750727236,0.09344466495998204
1761507726442153000,9.943153076171875,0.0196153855741024,-0.029870895193889736,0.073334846932441
1761507726462308900,9.963308837890626,-0.0659656333386898,-0.07352233232855797,0.12781608644351364
1761507726482463700,9.983463623046875,0.09502630812823772,0.005755129460617899,0.09567797697000205
1761507726502620000,10.003619873046874,0.058387891560792916,-0.039434550091996784,0.09869842076972127
1761507726522775000,10.023775146484375,0.02455751815140247,-0.05608757872916758,0.1426098240148276
1761507726542931000,10.043930908203125,-0.027936639195680617,-0.06558671702370047,0.1312514677196741
1761507726563087000,10.064087158203124,-0.046703883507847786,-0.08826287840791046,0.12813545459099113
1761507726583242000,10.084241943359375,-0.04733341358304023,-0.12047712185755372,0.07767141483202576
1761507726603398000,10.10439794921875,-0.08116203342676162,-0.05611643949747085,0.10946984402239322
1761507726623554000,10.124553955078126,-0.10015198057889937,-0.03574987022988498,0.10581358653716742
1761507726643709000,10.144708984375,-0.07993044580519199,-0.027937442913278935,0.08558635267503559
1761507726663864800,10.16486474609375,-0.08746259487569331,-0.016285802759975192,0.05671740106530487
1761507726684020000,10.18502001953125,-0.08738602250814437,-0.0395554730579257,0.08561090259440243
1761507726704175900,10.20517578125,-0.050552375629544254,-0.01709149311967194,0.09211443926952778
1761507726724331800,10.225331787109376,-0.04655132329463958,-0.00985913071334362,0.0656868163973093
1761507726744487200,10.245487060546875,-0.031823125240206716,-0.019940452810004353,0.0545654106631875
1761507726764643000,10.26564306640625,-0.01231821430325508,-0.00043254619836807247,0.05198635395541787
1761507726784798000,10.2857978515625,-0.03601414718925953,-0.046892757143452764,0.005331204960122704
1761507726804954000,10.3059541015625,-0.014801847812533377,-0.022167919601127503,0.031098610357940194
1761507726825110000,10.326110107421876,-0.08043547271788119,-0.041926074646785855,0.05534224025458097
1761507726845265000,10.346264892578125,-0.09864040697216987,-0.02313523026332259,0.022571166639775035
1761507726865420800,10.3664208984375,-0.07893091337382793,-0.021051044400408864,0.01404211548641324
1761507726885576000,10.386575927734375,-0.03641805181503296,-0.047018648545444006,0.03150024996139109
1761507726905731800,10.40673193359375,0.02351414657831192,-0.06286109145209193,0.07450118729807435
1761507726925887700,10.4268876953125,-0.004417816442251205,-0.056020724038034674,0.10003478394001722
1761507726946043100,10.447043212890625,-0.002053425398468971,-0.0551142767176032,0.06642835547961294
1761507726966199000,10.467198974609374,-0.02698796016871929,-0.04163958585560321,0.03418671256639063
1761507726986354000,10.48735400390625,-0.05839607486724853,-0.0573420357696712,0.02420855858325958
1761507727006510000,10.507510009765625,-0.09540098665952682,-0.060496627343073484,0.0479063181001693
1761507727026666000,10.527666015625,-0.05529869337379932,-0.06671732848882675,0.07643127857781946
1761507727046820900,10.54782080078125,-0.09673603465557098,-0.05851188326664269,0.088189593975991
1761507727066977000,10.56797705078125,-0.08339841417670249,-0.049699338996782895,0.03814107621535658
1761507727087132000,10.5881318359375,-0.09063245708346367,-0.09452135428078472,0.02760484995804727
1761507727107287800,10.608287841796875,-0.025846973440051078,-0.046812458448857064,0.08379311258271337
1761507727127444000,10.62844384765625,-0.04027823437452316,-0.05733151437565684,0.10314867817685007
1761507727147599000,10.64859912109375,-0.1298316640496254,0.0060192602895200245,0.10588745549097657
1761507727167755000,10.668755126953124,0.00445464132130146,0.0017996698331087828,0.0842463362429291
1761507727187910000,10.688909912109375,-0.3970575363576412,-0.13258790395520625,0.0027846622824668882
1761507727208066000,10.709066162109375,-0.13078501925170422,-0.11105981662757694,-0.0016775778234004973
1761507727228222000,10.729221923828124,-0.12533493715226648,-0.0053720484271645545,0.14176752797178924
1761507727248376800,10.749376953125,0.02794949867725372,-0.18280534854196012,0.0019951193399727345
