time,seconds_elapsed,z,y,x
1761507716586064400,0.087064453125,0.045563992112874985,0.13405704498291016,-0.03664634749293327
1761507716606219300,0.10721923828125,0.05932750180363655,0.21289201080799103,0.02805219404399395
1761507716626375200,0.127375244140625,0.08224985003471375,0.24423539638519287,0.08775002509355545
1761507716646531300,0.14753125,0.10273326188325882,0.22283154726028442,0.10929947346448898
1761507716666686200,0.167686279296875,0.12186545878648758,0.20080648362636566,0.11455710977315903
1761507716686842000,0.187842041015625,0.132423534989357,0.20628514885902405,0.13853216171264648
1761507716706997500,0.20799755859375,0.10235297679901123,0.18478378653526306,0.14330899715423584
1761507716727153400,0.2281533203125,0.05774157866835594,0.24375490844249725,0.16637158393859863
1761507716747309300,0.248309326171875,0.056218236684799194,0.2229067087173462,0.16352000832557678
1761507716767464400,0.26846435546875,0.03396860510110855,0.19858956336975098,0.16815218329429626
1761507716787620400,0.288620361328125,0.019859444350004196,0.2788206934928894,0.18204240500926971
1761507716807775200,0.308775146484375,0.05564672127366066,0.27449536323547363,0.17455296218395233
1761507716827931400,0.328931396484375,0.08573562651872635,0.1807013899087906,0.11015269160270691
1761507716848087300,0.34908740234375,0.10219931602478027,0.1734408140182495,0.07657602429389954
1761507716868242200,0.3692421875,0.1478981226682663,0.17353294789791107,0.06742162257432938
1761507716888398300,0.3893984375,0.15452376008033752,0.11368469893932343,0.039379458874464035
1761507716908553500,0.409553466796875,0.17145268619060516,0.07499360293149948,0.03168685361742973
1761507716928709400,0.42970947265625,0.17835162580013275,0.08283117413520813,0.06355078518390656
1761507716948864300,0.4498642578125,0.17665597796440125,0.07308752089738846,0.07043758034706116
1761507716969020400,0.4700205078125,0.17884297668933868,0.008601857349276543,0.015508543699979782
1761507716989176300,0.49017626953125,0.19761613011360168,-0.07637538760900497,-0.032508477568626404
1761507717009331200,0.510331298828125,0.22756335139274597,-0.12193673849105835,-0.04416262358427048
1761507717029487400,0.5304873046875,0.2416890412569046,-0.13573257625102997,-0.0318446010351181
1761507717049642200,0.550642333984375,0.24675677716732025,-0.091539666056633,0.014820326119661331
1761507717069798100,0.570798095703125,0.2600656747817993,-0.042740292847156525,0.04978225380182266
1761507717089954300,0.590954345703125,0.28457656502723694,-0.024704962968826294,0.05806644633412361
1761507717110109400,0.611109375,0.3126545548439026,-0.03948305547237396,0.025547781959176064
1761507717130265300,0.631265380859375,0.3288377821445465,-0.0591590479016304,-0.0115390345454216
1761507717150420500,0.65142041015625,0.3650645315647125,-0.058078791946172714,-0.024554461240768433
1761507717170576400,0.671576416015625,0.3668019473552704,-0.008501543663442135,0.01515459455549717
1761507717190732300,0.691732177734375,0.38217633962631226,0.06169547885656357,0.12047796696424484
1761507717210887200,0.71188720703125,0.3808855414390564,0.11626742780208588,0.25219663977622986
1761507717231043300,0.732043212890625,0.3545660376548767,0.13879811763763428,0.3260272145271301
1761507717251198200,0.7521982421875,0.3236582279205322,0.12492655217647552,0.35218024253845215
1761507717271354000,0.77235400390625,0.30625447630882263,0.09695331752300262,0.3379829525947571
1761507717291509500,0.792509521484375,0.3217276632785797,-0.00042802561074495316,0.25572478771209717
1761507717311665400,0.81266552734375,0.3271346986293793,-0.08290998637676239,0.16592127084732056
1761507717331821300,0.8328212890625,0.31877103447914124,-0.14365065097808838,0.09522687643766403
1761507717351976400,0.8529765625,0.2898932993412018,-0.1503017395734787,0.06604550778865814
1761507717372132400,0.87313232421875,0.26651474833488464,-0.13071614503860474,0.053573090583086014
1761507717392287200,0.893287353515625,0.22840863466262817,-0.08611565828323364,0.03667149320244789
1761507717412443400,0.913443359375,0.1946844905614853,-0.036491021513938904,-0.004332254640758038
1761507717432599300,0.933599365234375,0.180565744638443,0.0009174831211566925,-0.060558293014764786
1761507717452754400,0.95375439453125,0.16367998719215393,0.038172271102666855,-0.09206553548574448
1761507717472910600,0.97391064453125,0.1344933658838272,0.044895924627780914,-0.09543385356664658
1761507717493065500,0.9940654296875,0.10633654147386551,0.05563880130648613,-0.0687037780880928
1761507717513221400,1.014221435546875,0.08190839737653732,0.061113204807043076,-0.03840961679816246
1761507717533377500,1.03437744140625,0.025197744369506836,0.0754118263721466,-0.0074385106563568115
1761507717553532700,1.05453271484375,-0.00927953701466322,0.07042235136032104,0.015079031698405743
1761507717573688600,1.0746884765625,-0.025821786373853683,0.07232771813869476,0.04274103045463562
1761507717593843500,1.094843505859375,-0.019112195819616318,0.03444388508796692,0.04918082430958748
1761507717613999600,1.11499951171875,-0.010538406670093536,-0.003949285484850407,0.056498028337955475
1761507717634154500,1.135154541015625,-0.02021554671227932,-0.027789315208792686,0.06171635910868645
1761507717654310400,1.155310302734375,-0.037479765713214874,-0.04336266964673996,0.06097184866666794
1761507717674466600,1.175466552734375,-0.03461313992738724,-0.07089203596115112,0.041580576449632645
1761507717694621400,1.195621337890625,-0.023892829194664955,-0.058501433581113815,0.06637171655893326
1761507717714777300,1.21577734375,-0.02493308112025261,-0.05327886715531349,0.07147832214832306
1761507717734932700,1.2359326171875,-0.027238018810749054,-0.03637773171067238,0.11952565610408783
1761507717755088600,1.256088623046875,-0.034293025732040405,0.002589990384876728,0.13605092465877533
1761507717775244500,1.27624462890625,-0.021071216091513634,0.020009778439998627,0.10079233348369598
1761507717795399700,1.296399658203125,-0.02653415873646736,0.006550694815814495,0.0328681506216526
1761507717815555600,1.3165556640625,-0.025014014914631844,-0.004643158987164497,-0.023219218477606773
1761507717835710500,1.33671044921875,-0.0201960988342762,-0.041891712695360184,-0.09567945450544357
1761507717855866600,1.35686669921875,-0.019426986575126648,-0.060071542859077454,-0.11956898123025894
1761507717876021500,1.377021484375,-0.02485612779855728,-0.06692835688591003,-0.1178978830575943
1761507717896177400,1.397177490234375,-0.024362627416849136,-0.06968836486339569,-0.10883772373199463
1761507717916333600,1.41733349609375,-0.013344322331249714,-0.013335580937564373,-0.0603424534201622
1761507717936488700,1.43748876953125,-0.017991553992033005,-0.04190286993980408,-0.05443485081195831
1761507717956644600,1.45764453125,-0.006859803106635809,-0.029181869700551033,0.00007601035758852959
1761507717976799500,1.477799560546875,-0.012148837558925152,-0.03881780058145523,0.01733911968767643
1761507717996955600,1.49795556640625,-0.013860446400940418,-0.044823650270700455,0.027148809283971786
1761507718017111600,1.518111572265625,0.002827179152518511,0.0028405115008354187,0.048977237194776535
1761507718037266400,1.538266357421875,0.018648792058229446,0.00424435269087553,0.03948523476719856
1761507718057422600,1.558422607421875,0.024126335978507996,0.02387644723057747,0.010929523035883904
1761507718077577500,1.578577392578125,0.012273946776986122,0.0016452055424451828,-0.04867185279726982
1761507718097733400,1.5987333984375,-0.0018061840673908591,0.020530972629785538,-0.04932008311152458
1761507718117889500,1.6188896484375,-0.03433803841471672,0.0338456854224205,-0.08500847220420837
1761507718138044700,1.639044677734375,-0.0461755134165287,0.023928817361593246,-0.12732331454753876
1761507718158200600,1.65920068359375,-0.04342019185423851,0.04356767609715462,-0.10211769491434097
1761507718178355500,1.67935546875,-0.05966946855187416,0.044288285076618195,-0.09312501549720764
1761507718198511600,1.69951171875,-0.08423713594675064,0.04661362245678902,-0.06976068019866943
1761507718218666500,1.71966650390625,-0.0922899916768074,0.035901643335819244,-0.04055025801062584
1761507718238822400,1.739822509765625,-0.1097206398844719,0.005492018535733223,-0.01811511442065239
1761507718258978600,1.759978515625,-0.1301196813583374,-0.02281295880675316,0.005636141635477543
1761507718279133400,1.780133544921875,-0.1461004912853241,-0.024204649031162262,0.01834871619939804
1761507718299289300,1.800289306640625,-0.15080659091472626,-0.04142366349697113,0.016167879104614258
1761507718319444700,1.82044482421875,-0.1398995965719223,-0.05674164742231369,0.014229515567421913
1761507718339600600,1.8406005859375,-0.11631599068641663,-0.06632311642169952,0.004622825421392918
1761507718359756500,1.860756591796875,-0.0844469740986824,-0.05256519839167595,-0.011684663593769073
1761507718379911700,1.88091162109375,-0.02835124358534813,-0.017497863620519638,-0.0007549284491688013
1761507718400067600,1.901067626953125,0.02002350240945816,-0.016538474708795547,-0.02865341305732727
1761507718420222500,1.921222412109375,0.061316344887018204,0.01412696111947298,-0.009658336639404297
1761507718440378600,1.941378662109375,0.07702018320560455,0.014493132941424847,-0.008139058947563171
1761507718460535300,1.961535400390625,0.09991991519927979,0.014219120144844055,-0.009325061924755573
1761507718480690200,1.981690185546875,0.10193246603012085,0.019829679280519485,0.0034600081853568554
1761507718500846300,2.001846435546875,0.08589092642068863,0.002301541157066822,0.0044322144240140915
1761507718521001200,2.022001220703125,0.06801259517669678,0.015346941538155079,0.038816407322883606
1761507718541157000,2.0421572265625,0.038800906389951706,0.001771918497979641,0.03818248584866524
1761507718561313300,2.062313232421875,0.015203453600406647,-0.012704522348940372,0.03787146881222725
1761507718581468400,2.082468505859375,-0.0017662086756899953,-0.037817638367414474,0.03825894370675087
1761507718601624300,2.102624267578125,-0.02086694911122322,-0.021131839603185654,0.04519643634557724
1761507718621779200,2.122779296875,-0.029994117096066475,-0.010520011186599731,0.02889125794172287
1761507718641935400,2.142935302734375,-0.024983655661344528,-0.016323823481798172,0.016314592212438583
1761507718662091300,2.16309130859375,-0.02557569369673729,-0.024971306324005127,-0.01153330598026514
1761507718682246100,2.18324609375,-0.041271284222602844,-0.01270020566880703,0.003934937529265881
1761507718702402300,2.20340234375,-0.05046689510345459,-0.015011674724519253,0.00008321600034832954
1761507718722557200,2.22355712890625,-0.053754571825265884,-0.014955360442399979,0.008836542256176472
1761507718742713000,2.243713134765625,-0.05910566821694374,0.0036332933232188225,0.013290275819599628
1761507718762868500,2.263868408203125,-0.05616449564695358,-0.0020524077117443085,0.01211716141551733
1761507718783024400,2.2840244140625,-0.043230295181274414,-0.008510269224643707,0.0031907372176647186
1761507718803180300,2.30418017578125,-0.046231959015131,-0.005494371056556702,0.005591738503426313
1761507718823335400,2.32433544921875,-0.04265376180410385,0.01313706487417221,0.016600223258137703
1761507718843491300,2.3444912109375,-0.034286852926015854,0.01569322496652603,0.01683172397315502
1761507718863646200,2.364646240234375,-0.018033340573310852,0.018966685980558395,0.016528509557247162
1761507718883802400,2.38480224609375,-0.0021990134846419096,0.02679135836660862,0.02344614453613758
1761507718903958300,2.404958251953125,0.006346575915813446,0.014867223799228668,0.007411581464111805
1761507718924113200,2.425113037109375,0.024094674736261368,-0.00944834016263485,-0.008262921124696732
1761507718944269300,2.445269287109375,0.03130919486284256,0.0016640555113554,0.006001324858516455
1761507718964424400,2.465424560546875,0.03331855311989784,-0.007482239510864019,-0.0017874364275485277
1761507718984580400,2.485580322265625,0.04626574367284775,0.0037159202620387077,0.01578989438712597
1761507719004736500,2.505736572265625,0.05050258710980415,-0.01531153079122305,0.0024197199381887913
1761507719024891400,2.525891357421875,0.06354061514139175,-0.007066755555570126,0.017628299072384834
1761507719045047300,2.54604736328125,0.05750401318073273,0.007489657960832119,0.0063151828944683075
1761507719065202200,2.5662021484375,0.06601311266422272,-0.0006128661334514618,-0.003412917722016573
1761507719085358300,2.5863583984375,0.055446188896894455,0.008715777657926083,-0.02081790193915367
1761507719105514200,2.60651416015625,0.05567016825079918,0.005291019566357136,-0.03275426849722862
1761507719125669000,2.626669189453125,0.0450444296002388,0.006820498965680599,-0.05482478067278862
1761507719145825300,2.6468251953125,0.028028668835759163,-0.004615419544279575,-0.08646335452795029
1761507719165980400,2.66698046875,0.013062535785138607,-0.013005419634282589,-0.10511203855276108
1761507719186136300,2.68713623046875,0.006249367259442806,-0.026889953762292862,-0.12680476903915405
1761507719206292500,2.70729248046875,-0.014922777190804482,-0.00731208361685276,-0.10944929718971252
1761507719226447400,2.727447265625,-0.03873274475336075,0.02395825833082199,-0.08578155934810638
1761507719246603300,2.747603271484375,-0.04091282933950424,-0.010392682626843452,-0.08029865473508835
1761507719266758100,2.767758056640625,-0.03841743245720863,-0.06196189671754837,-0.07571318000555038
1761507719286914300,2.787914306640625,-0.038948457688093185,-0.09091811627149582,-0.036916594952344894
1761507719307070200,2.8080703125,-0.044453222304582596,-0.06887362897396088,0.03169859200716019
1761507719327225000,2.82822509765625,-0.04696352034807205,-0.0615939125418663,0.05179798603057861
1761507719347381200,2.84838134765625,-0.028064381331205368,-0.06395617127418518,0.02473338693380356
1761507719367536400,2.868536376953125,0.0020439731888473034,-0.06758717447519302,-0.025177519768476486
1761507719387692300,2.8886923828125,0.03867335617542267,-0.06666293740272522,-0.07436578720808029
1761507719407848400,2.908848388671875,0.0577615462243557,-0.06493280827999115,-0.09426237642765045
1761507719428003300,2.92900341796875,0.06344369053840637,-0.05622454360127449,-0.08747110515832901
1761507719448158000,2.949157958984375,0.06532521545886993,-0.03876904025673866,-0.0562143474817276
1761507719468313000,2.96931298828125,0.06330359727144241,-0.04275166243314743,-0.039960380643606186
1761507719488469200,2.98946923828125,0.0681508257985115,-0.04537343978881836,-0.020100187510252
1761507719508625200,3.009625244140625,0.06797666847705841,-0.024886198341846466,-0.005260544829070568
1761507719528780000,3.029780029296875,0.05403687804937363,0.0029637841507792473,-0.002292888704687357
1761507719548936200,3.049936279296875,0.03972610458731651,-0.0026665758341550827,-0.03353748098015785
1761507719569091000,3.070091064453125,0.026975665241479874,-0.03857557103037834,-0.08493270725011826
1761507719589247000,3.0902470703125,-0.006356699392199516,-0.08333559334278107,-0.12312435358762741
1761507719609403100,3.110403076171875,-0.029319265857338905,-0.05933995172381401,-0.1188918873667717
1761507719629558000,3.13055810546875,-0.03782939910888672,-0.022606968879699707,-0.08318982273340225
1761507719649714000,3.1507138671875,-0.04917527735233307,-0.017421312630176544,-0.0635799691081047
1761507719669869000,3.170869140625,-0.04130350425839424,-0.017713380977511406,-0.04580334201455116
1761507719690025200,3.191025146484375,-0.03309058025479317,-0.005423358641564846,-0.03334088996052742
1761507719710181000,3.21118115234375,-0.012233251705765724,-0.003360445611178875,-0.017486069351434708
1761507719730336000,3.2313359375,0.009029466658830643,0.013348909094929695,0.002310491167008877
1761507719750492200,3.2514921875,0.029125375673174858,0.015099975280463696,0.004155278205871582
1761507719770647000,3.27164697265625,0.04279271140694618,0.006858489476144314,-0.0007323401514440775
1761507719790803000,3.291802978515625,0.05360943824052811,0.017741478979587555,0.007502516265958548
1761507719810959000,3.311958984375,0.0578281469643116,0.016865767538547516,0.006355307064950466
1761507719831114000,3.332114013671875,0.056423068046569824,0.008188760839402676,-0.0010928197298198938
1761507719851270000,3.352269775390625,0.06037012115120888,-0.000767112709581852,0.00047202943824231625
1761507719871425000,3.372425048828125,0.05237770825624466,-0.024205327033996582,0.004663844592869282
1761507719891581200,3.392581298828125,0.03992076218128204,-0.03398999199271202,0.019250640645623207
1761507719911737000,3.412737060546875,0.03047453984618187,-0.030024562031030655,0.03535812348127365
1761507719931892200,3.432892333984375,0.006711961701512337,-0.006769095081835985,0.06090090423822403
1761507719952048000,3.453048095703125,-0.013456686399877071,0.0020293761044740677,0.060254525393247604
1761507719972204000,3.4732041015625,-0.020662931725382805,0.00020445790141820908,0.0372849777340889
1761507719992359200,3.493359130859375,-0.014115806668996811,-0.0029602721333503723,0.02081717550754547
1761507720012515000,3.51351513671875,-0.012289703823626041,0.016646843403577805,0.022801602259278297
1761507720032670000,3.533669921875,-0.020027773454785347,0.045493580400943756,0.023883232846856117
1761507720052826000,3.553826171875,-0.013224189169704914,0.05915748327970505,0.007973411120474339
1761507720072981000,3.57398095703125,-0.004668247886002064,0.04321780800819397,-0.019258523359894753
1761507720093137200,3.59413720703125,0.003388053271919489,0.024071937426924706,-0.039961833506822586
1761507720113293000,3.61429296875,-0.007765003014355898,0.023649416863918304,-0.03276699036359787
1761507720133448200,3.6344482421875,-0.012933374382555485,0.01982511207461357,-0.018722865730524063
1761507720153604000,3.65460400390625,-0.02724147029221058,0.027581140398979187,0.0076402341946959496
1761507720173760300,3.67476025390625,-0.04173997417092323,0.03290120139718056,0.0228043794631958
1761507720193915100,3.6949150390625,-0.043236952275037766,0.041285477578639984,0.012479294091463089
1761507720214071000,3.715071044921875,-0.03412148728966713,0.03761160373687744,-0.02173728123307228
1761507720234226000,3.735225830078125,-0.0244589950889349,0.03465597331523895,-0.04667844623327255
1761507720254382000,3.755382080078125,-0.011140257120132446,0.040049515664577484,-0.0492740273475647
1761507720274538000,3.7755380859375,-0.007649408653378487,0.04246264696121216,-0.0408511757850647
1761507720294693000,3.795693115234375,-0.007904515601694584,0.030538300052285194,-0.03172512724995613
1761507720314849000,3.81584912109375,-0.010380206629633904,0.016165822744369507,-0.029173843562602997
1761507720335004200,3.836004150390625,-0.019166238605976105,0.015369457192718983,-0.022611314430832863
1761507720355160000,3.85616015625,-0.033097755163908005,0.011161752045154572,-0.015180740505456924
1761507720375316200,3.876316162109375,-0.05022164434194565,0.011595560237765312,-0.012472151778638363
1761507720395471000,3.89647119140625,-0.05209488421678543,0.01696402207016945,-0.006998960394412279
1761507720415627000,3.916626953125,-0.059817276895046234,0.010104908607900143,-0.01117788814008236
1761507720435782000,3.936781982421875,-0.05611467361450195,0.017648670822381973,-0.007102896459400654
1761507720455938800,3.956938720703125,-0.06156004220247269,0.006129021756350994,-0.01847081631422043
1761507720476095000,3.977094970703125,-0.0504772886633873,0.0005915360525250435,-0.02708704024553299
1761507720496249900,3.997249755859375,-0.049785930663347244,-0.004779075272381306,-0.015598194673657417
1761507720516404000,4.017404052734375,-0.04761572182178497,0.0016677994281053543,0.0031782204750925303
1761507720536558800,4.037558837890625,-0.05319903790950775,0.00852740928530693,0.03860325738787651
1761507720556715000,4.057715087890625,-0.05305524170398712,0.009105757810175419,0.03820129856467247
1761507720576870000,4.077869873046875,-0.034836821258068085,0.00047688838094472885,0.040118258446455
1761507720597025800,4.09802587890625,-0.018439216539263725,-0.013809357769787312,0.02733280137181282
1761507720617182000,4.118181884765625,0.005392911843955517,-0.020100563764572144,0.023705139756202698
1761507720637337000,4.138337158203125,0.007694412022829056,-0.021729763597249985,0.01354975625872612
1761507720657493000,4.158492919921875,0.004713267553597689,-0.030806269496679306,0.0060212984681129456
1761507720677648000,4.17864794921875,0.010483002290129662,-0.02294955775141716,0.01976512186229229
1761507720697804000,4.198803955078125,-0.0010327801574021578,0.0030839238315820694,0.04478003829717636
1761507720717960000,4.2189599609375,-0.0031350869685411453,0.00024257134646177292,0.0417819544672966
1761507720738114800,4.23911474609375,-0.0014426532434299588,-0.01459853257983923,0.01731342449784279
1761507720758271000,4.25927099609375,0.0009582082275301218,-0.012704682536423206,0.01593334972858429
1761507720778425900,4.27942578125,-0.013520347885787487,0.009758536703884602,0.0277611892670393
1761507720798581800,4.299581787109375,-0.014215164817869663,0.0002259388566017151,0.02070085145533085
1761507720818738000,4.319738037109375,-0.008727701380848885,0.025008060038089752,0.05388328433036804
1761507720838893000,4.33989306640625,-0.010704312473535538,0.023437010124325752,0.03943502530455589
1761507720859049000,4.360049072265625,-0.006765753962099552,0.014139818958938122,0.0031378616113215685
1761507720879204000,4.3802041015625,-0.0034013749100267887,0.02550031617283821,-0.0053172544576227665
1761507720899360000,4.400360107421875,-0.01092536747455597,0.0026762476190924644,-0.04305700957775116
1761507720919516000,4.420515869140625,-0.020391834899783134,-0.008386457338929176,-0.05957934260368347
1761507720939672000,4.440672119140625,-0.039343420416116714,0.00690061878412962,-0.028923960402607918
1761507720959828000,4.460827880859375,-0.05585074797272682,0.023068081587553024,0.002992832101881504
1761507720979982800,4.48098291015625,-0.0533047690987587,0.003511957824230194,0.007921544834971428
1761507721000139000,4.501138916015625,-0.046860720962285995,-0.027543041855096817,-0.00849945843219757
1761507721020294000,4.5212939453125,-0.04223852604627609,-0.051541492342948914,-0.0028457448352128267
1761507721040449800,4.54144970703125,-0.03659182786941528,-0.02723105624318123,0.02876679226756096
1761507721060606000,4.56160595703125,-0.032043419778347015,-0.021600093692541122,0.04445663467049599
1761507721080760800,4.5817607421875,-0.03142530098557472,-0.02329408936202526,0.052310314029455185
1761507721100916700,4.601916748046875,-0.01055862195789814,-0.021256722509860992,0.03760254755616188
1761507721121071900,4.62207177734375,-0.0064927940256893635,-0.026261676102876663,0.029914025217294693
1761507721141228000,4.64222802734375,-0.00752344261854887,-0.013969162479043007,0.029473070055246353
1761507721161384000,4.662384033203125,0.002982734004035592,-0.0165419764816761,0.02287181280553341
1761507721181538800,4.682538818359375,0.034859709441661835,-0.0430317223072052,0.012107282876968384
1761507721201695000,4.702695068359375,0.055345550179481506,-0.08571653068065643,0.0030274209566414356
1761507721221849900,4.722849853515625,0.0417541079223156,-0.10160420089960098,0.027937546372413635
1761507721242005800,4.743005859375,-0.011783402413129807,-0.06474997103214264,0.07672636955976486
1761507721262162000,4.763161865234375,-0.07951320707798004,-0.011228889226913452,0.0924818143248558
1761507721282316800,4.78331689453125,-0.1261478066444397,0.012283370830118656,0.04825102910399437
1761507721302472700,4.80347265625,-0.1457148641347885,-0.010087674483656883,-0.03901808336377144
1761507721322628000,4.823628173828125,-0.14777348935604095,-0.021966584026813507,-0.0979098454117775
1761507721342784000,4.843783935546875,-0.14351697266101837,-0.02053391933441162,-0.10855316370725632
1761507721362940000,4.86393994140625,-0.13167068362236023,-0.014912774786353111,-0.08207036554813385
1761507721383095000,4.884094970703125,-0.11514870077371597,-0.01842673495411873,-0.04935925826430321
1761507721403251000,4.9042509765625,-0.08664783090353012,-0.0367618128657341,-0.012185845524072647
1761507721423406800,4.92440673828125,-0.04115568846464157,-0.034069400280714035,0.05192302539944649
1761507721443562000,4.94456201171875,-0.0015728622674942017,-0.013966141268610954,0.11653189361095428
1761507721463721500,4.964721435546875,0.022588668391108513,0.016981881111860275,0.16685523092746735
1761507721483876400,4.98487646484375,0.044073451310396194,0.008020156994462013,0.15959282219409943
1761507721504032500,5.005032470703125,0.05779940262436867,-0.002001470886170864,0.13525526225566864
1761507721524188400,5.0251884765625,0.0515286885201931,-0.019327055662870407,0.08209025859832764
1761507721544343600,5.045343505859375,0.022935403510928154,-0.011281434446573257,0.044862329959869385
1761507721564499700,5.065499755859375,-0.014799980446696281,-0.01765424758195877,-0.00824738573282957
1761507721584654600,5.085654541015625,-0.0559905543923378,-0.017546512186527252,-0.04330528900027275
1761507721604810500,5.105810546875,-0.0978538766503334,-0.014220523647964,-0.07834765315055847
1761507721624966700,5.125966552734375,-0.12624849379062653,-0.012471786700189114,-0.09679356962442398
1761507721645121500,5.14612158203125,-0.13403448462486267,-0.006256321910768747,-0.0931781530380249
1761507721665277400,5.16627734375,-0.1352323740720749,-0.0006132284179329872,-0.08276381343603134
1761507721685432600,5.1864326171875,-0.11330446600914001,-0.0077300285920500755,-0.07658177614212036
1761507721705588500,5.20658837890625,-0.08004796504974365,-0.03664859011769295,-0.06356704980134964
1761507721725744400,5.226744384765625,-0.04371286556124687,-0.037181247025728226,-0.01947805844247341
1761507721745899800,5.246899658203125,-0.029997557401657104,-0.016787050291895866,0.032438501715660095
1761507721766055700,5.2670556640625,-0.02675679326057434,0.008190282620489597,0.07309168577194214
1761507721786210600,5.28721044921875,-0.017780888825654984,0.010145936161279678,0.08135668933391571
1761507721806366500,5.307366455078125,-0.01207504142075777,0.009392565116286278,0.045943524688482285
1761507721826522600,5.327522705078125,-0.008432887494564056,-0.005547532811760902,0.003791587194427848
1761507721846677500,5.347677490234375,-0.020138558000326157,-0.01705506257712841,-0.026909390464425087
1761507721866833400,5.36783349609375,-0.04376717284321785,-0.025715693831443787,-0.039658430963754654
1761507721886988500,5.387988525390625,-0.07746683061122894,-0.032463230192661285,-0.0395553782582283
1761507721907144400,5.40814453125,-0.0891629159450531,-0.013724296353757381,-0.0215703584253788
1761507721927300400,5.42830029296875,-0.07613580673933029,-0.018651209771633148,-0.00795353390276432
1761507721947455700,5.448455810546875,-0.05156783387064934,-0.04342130571603775,-0.0018154962453991175
1761507721967611600,5.468611572265625,-0.03937084600329399,-0.0514659509062767,0.03333773836493492
1761507721987766500,5.4887666015625,-0.03402668982744217,-0.037309370934963226,0.07346529513597488
1761507722007922700,5.508922607421875,-0.03220239281654358,-0.005170898512005806,0.07435302436351776
1761507722028078600,5.52907861328125,-0.010878197848796844,0.02106931060552597,0.0458308681845665
1761507722048233500,5.5492333984375,0.010846538469195366,0.014553085900843143,-0.007085609249770641
1761507722068389600,5.5693896484375,0.01759682036936283,0.004624084569513798,-0.053795937448740005
1761507722088544500,5.58954443359375,0.006072517018765211,0.004404306411743164,-0.0698925331234932
1761507722108700400,5.609700439453125,-0.0054176924750208855,0.013949914835393429,-0.04412723705172539
1761507722128856600,5.629856689453125,-0.01955558732151985,0.024622101336717606,-0.0040939198806881905
1761507722149011700,5.65001171875,-0.03969762474298477,0.031920257955789566,0.024454593658447266
1761507722169167600,5.670167724609375,-0.057920005172491074,0.02594664692878723,0.03007098287343979
1761507722189322500,5.690322509765625,-0.06565598398447037,0.012058243155479431,0.01450975239276886
1761507722209478700,5.710478759765625,-0.06199679523706436,0.01439379621297121,0.003809422254562378
1761507722229634600,5.730634521484375,-0.05051138997077942,0.012073052115738392,-0.027607008814811707
1761507722249789400,5.75078955078125,-0.03244740515947342,0.024328220635652542,-0.023154590278863907
1761507722269945600,5.770945556640625,-0.01457735151052475,0.007986269891262054,-0.029515495523810387
1761507722290101500,5.7911015625,0.006063488312065601,0.0008718464523553848,-0.007935764268040657
1761507722310256400,5.81125634765625,0.019724706187844276,-0.002506987191736698,-0.011176862753927708
1761507722330412500,5.83141259765625,0.030412230640649796,-0.014587788842618465,-0.005542001686990261
1761507722350567700,5.851567626953125,0.033492181450128555,0.010555407032370567,0.004551015794277191
1761507722370723600,5.8717236328125,0.0307946614921093,0.010127556510269642,0.009252607822418213
1761507722390879700,5.891879638671875,0.027137363329529762,0.020533891394734383,0.026317572221159935
1761507722411034600,5.91203466796875,0.0073652430437505245,0.030524730682373047,0.008268740028142929
1761507722431190500,5.9321904296875,0.004771308973431587,0.027306556701660156,-0.01563345268368721
1761507722451345400,5.952345458984375,-0.0011595489922910929,0.033284515142440796,-0.04450373351573944
1761507722471498000,5.972498046875,0.0022450299002230167,0.012005261145532131,-0.06970887631177902
1761507722491654000,5.99265380859375,0.010646789334714413,-0.011740659363567829,-0.06099686771631241
1761507722511808800,6.012808837890625,0.003014170564711094,-0.003961605951189995,-0.02337227761745453
1761507722531965000,6.03296484375,-0.01074159424751997,0.027277208864688873,0.04258072376251221
1761507722552120000,6.0531201171875,-0.0062400600872933865,0.033301256597042084,0.05202944949269295
1761507722572276000,6.07327587890625,0.008935178630053997,0.013185116462409496,0.03845192864537239
1761507722592432000,6.09343212890625,0.00882652960717678,0.024223599582910538,0.03619929403066635
1761507722612587000,6.1135869140625,0.0012769843451678753,0.018798012286424637,0.013052405789494514
1761507722632743000,6.133742919921875,0.0035034045577049255,0.021287914365530014,0.015435395762324333
1761507722652898000,6.15389794921875,0.005599290132522583,0.015753645449876785,0.00987558625638485
1761507722673054000,6.174053955078125,0.012164536863565445,0.023323368281126022,0.021703144535422325
1761507722693209900,6.1942099609375,0.01478082686662674,0.032998405396938324,0.01325801108032465
1761507722713365000,6.214364990234375,0.025715751573443413,0.030698491260409355,0.00046785688027739525
1761507722733521000,6.23452099609375,0.041430532932281494,0.023843513801693916,-0.017026714980602264
1761507722753676000,6.254676025390625,0.034813642501831055,0.00648841168731451,-0.0046190787106752396
1761507722773832200,6.274832275390625,0.011365572921931744,0.00360756553709507,0.02423979714512825
1761507722793988000,6.294988037109375,-0.0003443362656980753,0.005404530093073845,0.05284305289387703
1761507722814143000,6.31514306640625,0.0013520745560526848,-0.002757520414888859,0.06352691352367401
1761507722834299100,6.335299072265625,-0.001215449534356594,-0.008179738186299801,0.05996769294142723
1761507722854454000,6.3554541015625,-0.0016511559952050447,-0.019192183390259743,0.03316531702876091
1761507722874610000,6.37560986328125,-0.016717979684472084,-0.016372792422771454,0.012189849279820919
1761507722894766000,6.39576611328125,-0.029521940276026726,-0.025625154376029968,-0.016360625624656677
1761507722914921000,6.4159208984375,-0.042648911476135254,0.00025111157447099686,-0.012989571318030357
1761507722935076900,6.436076904296875,-0.06483520567417145,0.0237923301756382,-0.009320132434368134
1761507722955232000,6.45623193359375,-0.07630036771297455,0.023987794294953346,-0.02204323187470436
1761507722975388200,6.47638818359375,-0.07118311524391174,0.003150290809571743,-0.0560537651181221
1761507722995544000,6.4965439453125,-0.07602473348379135,0.022906631231307983,-0.04496262967586517
1761507723015699000,6.516698974609375,-0.0715801864862442,-0.004376922734081745,-0.03819394111633301
1761507723035855000,6.536855224609375,-0.0874430388212204,-0.009579634293913841,-0.025314342230558395
1761507723056011000,6.557010986328125,-0.09348253905773163,-0.012757454067468643,-0.00958267878741026
1761507723076166000,6.577165771484375,-0.07171893119812012,0.016426878049969673,0.005880465731024742
1761507723096322000,6.597322021484375,-0.055240605026483536,0.02016356959939003,0.0035971282050013542
1761507723116477000,6.617476806640625,-0.034962527453899384,0.03207359090447426,0.0065070996060967445
1761507723136632800,6.6376328125,-0.0061668031848967075,0.011893242597579956,-0.007875455543398857
1761507723156789000,6.6577890625,0.01594380848109722,-0.01260240189731121,-0.034177642315626144
1761507723176944000,6.677944091796875,0.024232899770140648,-0.022397402673959732,-0.02768571674823761
1761507723197100000,6.69810009765625,0.03985286131501198,-0.02879071980714798,-0.012814465910196304
1761507723217255000,6.7182548828125,0.02625451236963272,-0.04151586443185806,-0.0002714688889682293
1761507723237411000,6.7384111328125,0.027320558205246925,-0.06521477550268173,0.01573382318019867
1761507723257567000,6.75856689453125,0.019748112186789513,-0.055025652050971985,0.033806461840867996
1761507723277721900,6.778721923828125,0.015040981583297253,-0.03853822126984596,0.053889013826847076
1761507723297878000,6.7988779296875,0.0007049324922263622,-0.04270114004611969,0.05174979940056801
1761507723318033000,6.819032958984375,0.007058699615299702,-0.05882064253091812,0.042179763317108154
1761507723338188800,6.839188720703125,0.010412154719233513,-0.05846945196390152,0.03347385674715042
1761507723358345000,6.859344970703125,0.011202864348888397,-0.056554753333330154,0.02158072032034397
1761507723378500000,6.8795,0.012621497735381126,-0.06778603792190552,0.022248826920986176
1761507723398656000,6.899656005859375,0.021931394934654236,-0.09182402491569519,0.02803564816713333
1761507723418811100,6.91981103515625,0.023502666503190994,-0.10309138894081116,0.049931496381759644
1761507723438967000,6.939967041015625,0.02829636260867119,-0.09680572152137756,0.07113496959209442
1761507723459126300,6.960126220703125,0.043313659727573395,-0.09688181430101395,0.08858110755681992
1761507723479281400,6.980281494140625,0.05571838468313217,-0.12832607328891754,0.08518710732460022
1761507723499437300,7.000437255859375,0.07238657027482986,-0.1502228081226349,0.0877208486199379
1761507723519592200,7.02059228515625,0.08338678628206253,-0.150721937417984,0.10189491510391235
1761507723539748400,7.040748291015625,0.06290467083454132,-0.16850599646568298,0.10855835676193237
1761507723559904300,7.060904296875,0.018339572474360466,-0.1819949746131897,0.0987936332821846
1761507723580059400,7.081059326171875,-0.04499968886375427,-0.18635722994804382,0.10175731033086777
1761507723600215600,7.101215576171875,-0.10129625350236893,-0.20451992750167847,0.11991007626056671
1761507723620370400,7.121370361328125,-0.17889836430549622,-0.1656867116689682,0.14576929807662964
1761507723640526300,7.1415263671875,-0.24036040902137756,-0.11175717413425446,0.12484132498502731
1761507723660682500,7.1616826171875,-0.27576395869255066,-0.13148024678230286,0.06767279654741287
1761507723680837400,7.18183740234375,-0.30117368698120117,-0.19711469113826752,0.009661621414124966
1761507723700993300,7.2019931640625,-0.32268914580345154,-0.22394411265850067,-0.010534217581152916
1761507723721148200,7.222148193359375,-0.3154037594795227,-0.213464617729187,-0.032397303730249405
1761507723741304300,7.24230419921875,-0.2882552444934845,-0.1605851799249649,-0.03387567773461342
1761507723761460200,7.262460205078125,-0.2541835308074951,-0.15132293105125427,-0.04983965680003166
1761507723781615400,7.282615478515625,-0.23177063465118408,-0.12106546759605408,-0.08552981913089752
1761507723801771500,7.302771484375,-0.16443340480327606,-0.16446897387504578,-0.17717097699642181
1761507723821927400,7.322927490234375,-0.07929400354623795,-0.16881157457828522,-0.20875327289104462
1761507723842082300,7.343082275390625,-0.0329425074160099,-0.10645109415054321,-0.1588497757911682
1761507723862238500,7.363238525390625,-0.01451877411454916,-0.02569672465324402,-0.1074138656258583
1761507723882393300,7.383393310546875,0.005538318306207657,0.02549363486468792,-0.06970147043466568
1761507723902549200,7.40354931640625,0.025779394432902336,0.02903851866722107,-0.060185808688402176
1761507723922705400,7.423705322265625,0.03364689648151398,0.06505641341209412,-0.04935649782419205
1761507723942860300,7.4438603515625,0.014322742819786072,0.08517228066921234,-0.0387340784072876
1761507723963016200,7.46401611328125,-0.006707982160151005,0.06985010206699371,-0.03933901712298393
1761507723983171600,7.484171630859375,-0.028096089139580727,0.04725431278347969,-0.04501962289214134
1761507724003327500,7.504327392578125,-0.042530398815870285,0.05154586583375931,-0.05568541958928108
1761507724023483400,7.5244833984375,-0.051121246069669724,0.06073975935578346,-0.054241348057985306
1761507724043638500,7.544638427734375,-0.0502578467130661,0.060504402965307236,-0.06309883296489716
1761507724063794400,7.56479443359375,-0.03799743950366974,0.04172559827566147,-0.07684805989265442
1761507724083949300,7.58494921875,-0.018424300476908684,0.03538820147514343,-0.10183214396238327
1761507724104105200,7.605105224609375,-0.002098038559779525,0.041067056357860565,-0.10839281231164932
1761507724124261400,7.625261474609375,0.007189457304775715,0.07555006444454193,-0.09925960749387741
1761507724144416300,7.645416259765625,0.007332495879381895,0.09272143244743347,-0.08295239508152008
1761507724164572200,7.665572265625,0.012901650741696358,0.09034186601638794,-0.057169701904058456
1761507724184727600,7.6857275390625,0.007434472441673279,0.07032402604818344,-0.025989970192313194
1761507724204883500,7.705883544921875,0.0046384213492274284,0.05634661391377449,-0.004603487905114889
1761507724225039400,7.726039306640625,0.006665628403425217,0.0318119190633297,0.002162143588066101
1761507724245194500,7.746194580078125,0.014106223359704018,0.004231026396155357,-0.0039576394483447075
1761507724265350400,7.766350341796875,0.014219410717487335,0.025382261723279953,0.012060960754752159
1761507724285505300,7.78650537109375,0.014250567182898521,0.006515219807624817,0.01856764405965805
1761507724305661400,7.806661376953125,0.017470315098762512,-0.0008485522121191025,0.025922125205397606
1761507724325817300,7.8268173828125,0.012560531497001648,-0.022545170038938522,-0.016665808856487274
1761507724345972200,7.84697216796875,0.01828019507229328,-0.0034647099673748016,-0.0515267550945282
1761507724366128400,7.86712841796875,0.024206802248954773,-0.02381819859147072,-0.1143692135810852
1761507724386283500,7.887283447265625,0.024584654718637466,-0.07504475116729736,-0.21483716368675232
1761507724406439400,7.907439453125,0.015343811362981796,-0.11631250381469727,-0.2923071086406708
1761507724426595300,7.92759521484375,-0.011283007450401783,-0.11613909155130386,-0.3037107586860657
1761507724446750500,7.94775048828125,-0.03637397661805153,-0.054346684366464615,-0.2305806577205658
1761507724466903300,7.9679033203125,-0.05435457080602646,0.010799216106534004,-0.13526670634746552
1761507724487058200,7.98805810546875,-0.05787420645356178,0.029178794473409653,-0.07011617720127106
1761507724507213000,8.008213134765626,-0.06143619865179062,0.03061205893754959,-0.014672964811325073
1761507724527369200,8.028369140625,-0.05549336597323418,0.033110734075307846,0.05045584961771965
1761507724547525000,8.048525146484375,-0.05127810686826706,0.026154274120926857,0.08927343785762787
1761507724567680000,8.068679931640625,-0.04218020290136337,0.017322910949587822,0.10797882080078125
1761507724587836200,8.088836181640625,-0.013333107344806194,-0.006963641848415136,0.10193286836147308
1761507724607991300,8.1089912109375,0.014490549452602863,-0.02018772065639496,0.08121426403522491
1761507724628147200,8.129147216796875,0.032682035118341446,-0.01697910577058792,0.07701314240694046
1761507724648303400,8.149303466796875,0.040036641061306,-0.021696288138628006,0.07317549735307693
1761507724668458200,8.169458251953126,0.041945863515138626,-0.018723443150520325,0.07921793311834335
1761507724688614100,8.1896142578125,0.02511974610388279,-0.00718937162309885,0.0806802436709404
1761507724708769000,8.20976904296875,0.005199301056563854,0.008965136483311653,0.08435568958520889
1761507724728925200,8.22992529296875,0.0008601946756243706,0.008124487474560738,0.08163286745548248
1761507724749081000,8.2500810546875,-0.0020271975081413984,-0.01568707637488842,0.05373508855700493
1761507724769236000,8.270236083984376,-0.009271770715713501,-0.015367932617664337,0.04217951372265816
1761507724789392100,8.29039208984375,-0.008848336525261402,-0.035992152988910675,0.028609786182641983
1761507724809547300,8.31054736328125,-0.001830125693231821,-0.023830942809581757,0.03546850010752678
1761507724829703200,8.330703125,0.010233735665678978,-0.017528854310512543,0.049724023789167404
1761507724849859300,8.350859375,0.016254330053925514,-0.015292687341570854,0.04792097210884094
1761507724870014200,8.37101416015625,0.0311262309551239,-0.02245394140481949,0.029252100735902786
1761507724890171400,8.39117138671875,0.04197327792644501,-0.034427087754011154,0.01745595969259739
1761507724910327300,8.411327392578125,0.04867059737443924,-0.04235836863517761,0.014463583938777447
1761507724930483200,8.431483154296876,0.04462047293782234,-0.027926407754421234,0.03852088749408722
1761507724950638300,8.451638427734375,0.04274000599980354,-0.029681680724024773,0.05711305886507034
1761507724970794200,8.471794189453124,0.04175839200615883,-0.015613330528140068,0.07187691330909729
1761507724990949000,8.49194921875,0.05387120693922043,0.006035293452441692,0.06919070333242416
1761507725011105300,8.512105224609375,0.06904376298189163,-0.0006970977410674095,0.029802851378917694
1761507725031261200,8.53226123046875,0.06522268056869507,-0.006006324663758278,-0.0019675232470035553
1761507725051416000,8.552416015625,0.06663627922534943,-0.007181537803262472,-0.02958368882536888
1761507725071572000,8.572572021484374,0.06450548768043518,-0.000436524860560894,-0.03693890571594238
1761507725091727400,8.592727294921875,0.05603821948170662,0.009846501983702183,-0.02448919788002968
1761507725111883300,8.61288330078125,0.052780136466026306,0.00999485980719328,0.0020439892541617155
1761507725132039200,8.6330390625,0.04695659503340721,-0.0006300313398241997,0.010796596296131611
1761507725152194300,8.6531943359375,0.04115782678127289,-0.005478421226143837,0.03210727497935295
1761507725172350200,8.67335009765625,0.03665546700358391,-0.017208818346261978,0.04103841260075569
1761507725192505000,8.693505126953125,0.031633034348487854,-0.03809572756290436,0.0376843698322773
1761507725212661200,8.7136611328125,0.03765152022242546,-0.02817809209227562,0.04883173480629921
1761507725232817200,8.733817138671874,0.03998922184109688,-0.01705440878868103,0.05152234807610512
1761507725252972000,8.753971923828125,0.03962572291493416,-0.010984884575009346,0.04235566034913063
1761507725273128200,8.774128173828124,0.042030010372400284,-0.02238846942782402,0.011833946220576763
1761507725293283300,8.794283447265625,0.05442195013165474,-0.02908792719244957,-0.018370086327195168
1761507725313439200,8.814439208984375,0.05372954159975052,-0.027967670932412148,-0.028136588633060455
1761507725333595400,8.834595458984374,0.05255640670657158,-0.011973961256444454,-0.014111175201833248
1761507725353750300,8.854750244140625,0.04404279962182045,0.006893683224916458,-0.006715381518006325
1761507725373906200,8.87490625,0.04273707792162895,0.01624985784292221,-0.016703374683856964
1761507725394061000,8.89506103515625,0.046964045614004135,0.008463879115879536,-0.027491558343172073
1761507725414217200,8.91521728515625,0.046672433614730835,-0.008079304359853268,-0.03428587689995766
1761507725434373000,8.935373046875,0.040929581969976425,-0.009911198168992996,-0.033246301114559174
1761507725454528000,8.955528076171875,0.041414033621549606,-0.0036187274381518364,-0.02629765309393406
1761507725474684000,8.975683837890625,0.039013952016830444,0.006205481477081776,-0.01547879446297884
1761507725494839800,8.99583984375,0.04118630662560463,0.016764022409915924,-0.002923734951764345
1761507725514995000,9.015994873046875,0.04298076778650284,-0.0033703185617923737,-0.018354428932070732
1761507725535151000,9.036151123046874,0.029560834169387817,-0.017323806881904602,-0.0113924415782094
1761507725555306000,9.056305908203125,0.006931962911039591,-0.008036887273192406,0.012644056230783463
1761507725575462000,9.0764619140625,-0.020198747515678406,-0.00045070424675941467,0.02934778854250908
1761507725595618000,9.0966181640625,-0.04613953456282616,0.0006658779457211494,0.02908383682370186
1761507725615773000,9.11677294921875,-0.06433187425136566,0.0120819341391325,0.02027623914182186
1761507725635928800,9.1369287109375,-0.0654226765036583,0.002972015179693699,-0.006164762191474438
1761507725656084000,9.157083984375,-0.055943164974451065,-0.0019843392074108124,-0.022763051092624664
1761507725676240000,9.177239990234375,-0.043580230325460434,-0.0002722078934311867,-0.02698001265525818
1761507725696395800,9.197395751953126,-0.020931122824549675,-0.0013435017317533493,-0.03813531622290611
1761507725716551200,9.21755126953125,-0.003430136013776064,0.0012444714084267616,-0.03209881857037544
1761507725736707000,9.23770703125,0.012206868268549442,0.010345776565372944,-0.008263332769274712
1761507725756862000,9.257862060546875,0.016682041808962822,0.015522242523729801,0.018327564001083374
1761507725777018000,9.27801806640625,0.020291166380047798,0.01265605166554451,0.027549944818019867
1761507725797174000,9.298174072265626,0.02250291034579277,0.016032584011554718,0.021479180082678795
1761507725817329000,9.318328857421875,0.02493436634540558,0.006064998917281628,-0.0010954909957945347
1761507725837485000,9.338485107421874,0.018602978438138962,0.008134406059980392,-0.003098083660006523
1761507725857640000,9.358639892578125,0.0034647886641323566,0.017740849405527115,0.009244611486792564
1761507725877795800,9.3787958984375,0.006040312349796295,0.017679788172245026,0.018697258085012436
1761507725897952000,9.398951904296876,0.005298352800309658,0.01607988215982914,0.011507038027048111
1761507725918107100,9.419107177734375,0.013127266429364681,0.009130970574915409,-0.011532258242368698
1761507725938263000,9.439262939453124,0.014343252405524254,0.004634787328541279,-0.021658435463905334
1761507725958418000,9.45941796875,0.015229279175400734,0.009917328134179115,-0.017635932192206383
1761507725978574000,9.479573974609375,0.008355407044291496,0.02501332014799118,0.0039179339073598385
1761507725998730000,9.49972998046875,0.00035925302654504776,0.02912275493144989,0.018058963119983673
1761507726018884900,9.519884765625,0.019267700612545013,0.02546740509569645,0.018757978454232216
1761507726039041000,9.540041015625,0.03231880068778992,0.02593301609158516,0.000043236417695879936
1761507726059196000,9.56019580078125,0.039504263550043106,0.023959483951330185,-0.021178001537919044
1761507726079351800,9.580351806640625,0.050644535571336746,0.0162612684071064,-0.0356680303812027
1761507726099508000,9.600508056640624,0.049728140234947205,0.01497873105108738,-0.02643270045518875
1761507726119663000,9.6206630859375,0.04117405787110329,0.01146523654460907,-0.008106311783194542
1761507726139819000,9.640819091796875,0.026387400925159454,0.005084209144115448,0.008469058200716972
1761507726159975200,9.66097509765625,0.021456032991409302,0.0032721785828471184,0.010258323512971401
1761507726180130000,9.681130126953125,0.03320085257291794,-0.0038903038948774338,-0.002425957005470991
1761507726200286000,9.701285888671874,0.048200823366642,-0.008696972392499447,-0.022548828274011612
1761507726220440800,9.72144091796875,0.06223832815885544,0.008823622949421406,-0.027126777917146683
1761507726240597000,9.741596923828125,0.0560145303606987,0.01576223224401474,-0.0378536656498909
1761507726260753000,9.7617529296875,0.049802184104919434,0.012108094058930874,-0.038547269999980927
1761507726280907800,9.78190771484375,0.04140949621796608,0.024811454117298126,-0.028350789099931717
1761507726301064000,9.80206396484375,0.040427591651678085,0.008701111190021038,-0.05378134548664093
1761507726321219000,9.822218994140625,0.03840518370270729,-0.0026591988280415535,-0.08018650859594345
1761507726341375000,9.842375,0.029491858556866646,-0.019748572260141373,-0.07701271027326584
1761507726361531100,9.86253125,0.0022985765244811773,-0.028089191764593124,-0.035510383546352386
1761507726381686000,9.88268603515625,-0.027134671807289124,-0.016336943954229355,0.028355568647384644
1761507726401842000,9.902842041015624,-0.039898429065942764,-0.008718660101294518,0.07378970086574554
1761507726421997000,9.9229970703125,-0.04542873427271843,-0.012944246642291546,0.06652360409498215
1761507726442153000,9.943153076171875,-0.04389689117670059,0.015844766050577164,0.06401420384645462
1761507726462308900,9.963308837890626,-0.03546372801065445,-0.012811913155019283,0.021439313888549805
1761507726482463700,9.983463623046875,-0.023187369108200073,-0.009220384992659092,-0.002138505456969142
1761507726502620000,10.003619873046874,-0.010762345045804977,0.0013880394399166107,-0.02870311588048935
1761507726522775000,10.023775146484375,0.01690896600484848,0.009435766376554966,-0.036145616322755814
1761507726542931000,10.043930908203125,0.03897777572274208,0.031455785036087036,-0.037274718284606934
1761507726563087000,10.064087158203124,0.06826828420162201,0.04798741266131401,-0.035576824098825455
1761507726583242000,10.084241943359375,0.08231325447559357,0.03020830824971199,-0.0434112474322319
1761507726603398000,10.10439794921875,0.10118468105792999,0.0037905490025877953,-0.0566767193377018
1761507726623554000,10.124553955078126,0.11342404037714005,-0.004375678487122059,-0.04842216521501541
1761507726643709000,10.144708984375,0.11720120161771774,0.008834907785058022,-0.014814038760960102
1761507726663864800,10.16486474609375,0.1083001047372818,0.011575170792639256,0.0022481961641460657
1761507726684020000,10.18502001953125,0.09597098082304001,-0.004918275400996208,-0.008911173790693283
1761507726704175900,10.20517578125,0.08652211725711823,-0.007067384198307991,-0.011713489890098572
1761507726724331800,10.225331787109376,0.078733429312706,0.0017787730321288109,0.000996260205283761
1761507726744487200,10.245487060546875,0.05995441973209381,0.010224787518382072,0.007185898721218109
1761507726764643000,10.26564306640625,0.04772917181253433,0.012475892901420593,-0.003936713095754385
1761507726784798000,10.2857978515625,0.031615979969501495,0.012747880071401596,-0.018853845074772835
1761507726804954000,10.3059541015625,0.023192398250102997,0.009941603057086468,-0.027478694915771484
1761507726825110000,10.326110107421876,0.01207637693732977,-0.0059446352533996105,-0.040477510541677475
1761507726845265000,10.346264892578125,-0.006296772975474596,-0.0001932326704263687,-0.02152351103723049
1761507726865420800,10.3664208984375,-0.02415964938700199,0.01589931547641754,0.019289538264274597
1761507726885576000,10.386575927734375,-0.037366293370723724,0.03120177984237671,0.03072315827012062
1761507726905731800,10.40673193359375,-0.025402020663022995,0.03314196318387985,0.00493281614035368
1761507726925887700,10.4268876953125,-0.016140082851052284,0.007523808628320694,-0.0484137162566185
1761507726946043100,10.447043212890625,-0.014257505536079407,-0.0030117863789200783,-0.07260171324014664
1761507726966199000,10.467198974609374,-0.02077745646238327,0.009445189498364925,-0.06349261850118637
1761507726986354000,10.48735400390625,-0.027765845879912376,0.015785999596118927,-0.042068466544151306
1761507727006510000,10.507510009765625,-0.033283643424510956,0.019785333424806595,-0.021981121972203255
1761507727026666000,10.527666015625,-0.033282339572906494,0.025281116366386414,-0.00861915573477745
1761507727046820900,10.54782080078125,-0.0302449781447649,-0.0028219735249876976,-0.030482465401291847
1761507727066977000,10.56797705078125,-0.03581417724490166,-0.009382566437125206,-0.02746783010661602
1761507727087132000,10.5881318359375,-0.04826473444700241,-0.009514894336462021,-0.011479051783680916
1761507727107287800,10.608287841796875,-0.04976596310734749,0.004911383613944054,-0.0004598754458129406
1761507727127444000,10.62844384765625,-0.04774115979671478,0.01343456469476223,-0.007948951795697212
1761507727147599000,10.64859912109375,-0.05846090614795685,0.006385719403624535,-0.017454782500863075
1761507727167755000,10.668755126953124,-0.0762159526348114,0.009814796969294548,0.03630772605538368
1761507727187910000,10.688909912109375,-0.08915545046329498,-0.11062280833721161,0.04887336492538452
1761507727208066000,10.709066162109375,-0.09566498547792435,-0.11395183205604553,0.0077553074806928635
1761507727228222000,10.729221923828124,-0.10137828439474106,-0.15988650918006897,-0.07257860898971558
1761507727248376800,10.749376953125,-0.08704248070716858,-0.16306661069393158,-0.05435950309038162
