time,seconds_elapsed,z,y,x
1761509380649980700,0.068980712890625,-0.054575639796257014,-0.0011746972020249813,0.0012250665492378175
1761509380670137900,0.089137939453125,-0.057120063582062716,0.00913152882484719,-0.0013991262082010507
1761509380690295000,0.109294921875,-0.0539794274687767,-0.0016832860449794678,0.003718335536541417
1761509380710452700,0.12945263671875,-0.05996726970672607,0.0032283235298935322,-0.0042658042183145875
1761509380730610000,0.14960986328125,-0.05563245537281036,0.00014099763957783578,-0.003862694176984951
1761509380750767900,0.169767822265625,-0.05562719467580318,0.003224204477202147,-0.013504894204018637
1761509380770924800,0.1899248046875,-0.06594926672577858,-0.0021999851291533558,-0.004141529384674504
1761509380791082000,0.21008203125,-0.052932548764348025,0.006749090667720884,0.01561906421324238
1761509380811240000,0.230239990234375,-0.053231239449977874,-0.004657744411658496,-0.0033774131443817168
1761509380831396900,0.25039697265625,-0.056523266732692715,-0.003750191979529336,0.010293978466652334
1761509380851553800,0.2705537109375,-0.05248772760629654,0.004285266970610246,0.007926171623077244
1761509380871712000,0.2907119140625,-0.04620061016082763,0.006545110794529318,0.005725282311625778
1761509380891869000,0.310868896484375,-0.04889408702850342,-0.00405529413963668,0.0014082136969547718
1761509380912027000,0.33102685546875,-0.05083703778982162,0.0038329292263835665,-0.0056254295331891625
1761509380932184000,0.35118408203125,-0.05248538951873779,-0.001283135145716369,0.0038651966613251713
1761509380952340700,0.3713408203125,-0.04978840551972389,0.0012647592388093471,0.000056799087999388575
1761509380972499000,0.3914990234375,-0.055175359255075454,-0.005886016698135063,-0.008944070828193798
1761509380992656000,0.41165576171875,-0.05801788920462131,0.006486713404487818,-0.004251519964635372
1761509381012813800,0.431813720703125,-0.05891454578340053,0.001938119322573766,0.007317099814023822
1761509381032970800,0.451970703125,-0.06325286724865437,-0.006079255981603637,0.00009043649611994623
1761509381053127700,0.472127685546875,-0.05038344880342483,0.00691452862881124,-0.00692364351702854
1761509381073286000,0.492285888671875,-0.06340133580863476,0.0010159995089750735,-0.00958329118033871
1761509381093442600,0.512442626953125,-0.054122635331749915,0.003576196252647787,-0.005354850697191432
1761509381113599700,0.532599853515625,-0.05292611902356147,0.009671855379780754,0.005309933843230828
1761509381133758000,0.552758056640625,-0.04619184233248234,-0.0020441187140066174,-0.00339070188421756
1761509381153914600,0.57291455078125,-0.06414835478365422,0.004273192940326407,0.0010001717521809042
1761509381174072800,0.59307275390625,-0.06085691202282905,-0.001979994836077094,0.002879875418404117
1761509381194229800,0.613229736328125,-0.06444938355684281,0.0050221024783328174,0.009408866195194423
1761509381214386700,0.63338671875,-0.055174774733185765,-0.011677569179004057,0.00997349607432261
1761509381234544600,0.653544677734375,-0.05771919851899147,0.0027230956878047433,0.0033326058882754295
1761509381254701800,0.673701904296875,-0.0566676436394453,0.007424295648699626,0.002723963337484747
1761509381274859800,0.69385986328125,-0.06445230616629123,0.006118775141239166,0.0032183318588417022
1761509381295016700,0.7140166015625,-0.05068272401094436,-0.013876056470815091,-0.013240836440352722
1761509381315174000,0.734173828125,-0.047986909055709834,0.018882943113707005,0.006497125200647861
1761509381335331600,0.75433154296875,-0.04978139125704765,-0.0016549823991023004,-0.009339974810602144
1761509381355488800,0.77448876953125,-0.06234978092908859,-0.00007252638009376823,-0.0033993783810175953
1761509381375646700,0.794646728515625,-0.05112812969088554,-0.0015181677442975341,-0.00118035975783132
1761509381395803600,0.8148037109375,-0.059061845299601554,-0.0037728148032911118,-0.01817226496054791
1761509381415960800,0.8349609375,-0.053823944646120066,0.0010048387941438703,-0.012728676533978432
1761509381436118800,0.855118896484375,-0.05232698408663273,-0.000916155863692984,-0.013247996833501382
1761509381456275700,0.875275634765625,-0.05456921005547046,-0.0014644465293735265,-0.018556725100334733
1761509381476433000,0.895432861328125,-0.07327449504733086,-0.006759000140381976,-0.018424376558093352
1761509381496590800,0.9155908203125,-0.0653472091794014,-0.0020112028250936415,-0.009788220901601016
1761509381516747800,0.935747802734375,-0.05053483997285366,0.004774950183695182,-0.030654611183796077
1761509381536905700,0.95590576171875,-0.05487608404755592,-0.003781719628954306,-0.009655570965260266
1761509381557063000,0.97606298828125,-0.06220774210989475,-0.007134226660942659,-0.018138691484509036
1761509381577219800,0.9962197265625,-0.05502689069509506,-0.0035493082457222045,-0.01616037714886479
1761509381597377800,1.016377685546875,-0.05592354727387428,-0.009562248392309992,-0.01901394908223301
1761509381617535000,1.036534912109375,-0.05143266559541225,-0.00329659385997802,-0.015220895208511501
1761509381637692700,1.056692626953125,-0.05741933878958225,-0.0005207724710926413,-0.012126664653373882
1761509381657849900,1.076849853515625,-0.0662491264551878,0.004902558618737385,-0.01417281092768535
1761509381678006500,1.097006591796875,-0.061461892178654665,0.0006159582075662911,-0.0029427023883908986
1761509381698164700,1.117164794921875,-0.06415361548066138,0.0011650799903087318,-0.003171798436529934
1761509381718322000,1.137322021484375,-0.05083762231171131,-0.004671626806538552,-0.005511822224035859
1761509381738478600,1.157478515625,-0.056523851254582404,-0.0008601970259100198,0.00858470859704539
1761509381758636800,1.17763671875,-0.055773909670114516,-0.00014544548583216965,-0.0021074754069559274
1761509381778793700,1.197793701171875,-0.0589157148271799,0.0037958851516246795,-0.003156135076517239
1761509381798952000,1.217951904296875,-0.057421676877141,-0.004231819750322029,-0.006412643521279096
1761509381819108600,1.238108642578125,-0.049042555588483805,0.00036565497461706395,-0.0014821739823091774
1761509381839265800,1.258265869140625,-0.0559270544052124,-0.005578064993815496,-0.0022962851104792207
1761509381859424000,1.278424072265625,-0.0661006578952074,-0.0003207655201200396,-0.0006899915581569076
1761509381879580700,1.29858056640625,-0.06430325308442116,0.0061808805920183655,-0.0001547156376764178
1761509381899739000,1.31873876953125,-0.04724573529958725,0.002328004556149244,-0.005975265884166583
1761509381919895600,1.3388955078125,-0.062357379713654515,0.0029748145597055554,0.0013801201136317102
1761509381940052700,1.359052734375,-0.05308101732432842,0.007133139815554022,0.011072360694315284
1761509381960210700,1.379210693359375,-0.06385550931692123,0.005086966141778976,0.0005540171535685658
1761509381980367600,1.39936767578125,-0.05532967303395271,-0.004960389753198251,-0.0044677839306648814
1761509382000524800,1.41952490234375,-0.052637365210056304,-0.003976045757811516,-0.001985894853901118
1761509382020682500,1.4396826171875,-0.05443418549895286,-0.0031023681958205996,-0.00499980844813399
1761509382040839700,1.459839599609375,-0.06371171693205833,-0.0011504212772939354,0.0009511632449924945
1761509382060997600,1.47999755859375,-0.054283963373303414,0.003367302742321044,0.002585340318083763
1761509382081154600,1.500154541015625,-0.04530570714771747,-0.012411874802922829,0.004158206524839624
1761509382101311700,1.520311767578125,-0.05997136135995388,-0.000295749809872359,-0.010242047350015491
1761509382121469700,1.5404697265625,-0.05458382310271263,0.002612027395609766,-0.004116595872817561
1761509382141626600,1.560626708984375,-0.05712824688851833,0.005341854218300432,-0.00984806133005768
1761509382161783800,1.58078369140625,-0.05249065021574497,0.00046893268600106235,-0.015208483251510188
1761509382181941800,1.600941650390625,-0.04830255087614059,0.006119231798965483,-0.007576143475854769
1761509382202098700,1.6210986328125,-0.053988779819011685,-0.0033489633680321273,-0.00728745359443128
1761509382222256600,1.641256591796875,-0.06221943254768848,-0.0020306564442347736,-0.00038996743196621536
1761509382242413600,1.66141357421875,-0.050396892806887625,0.0015088519266806542,0.0012231029210146515
1761509382262570500,1.681570556640625,-0.06356675550341606,0.005758207333693281,0.0013767865122295915
1761509382282728700,1.701728759765625,-0.054441784283518785,-0.008891007200395687,-0.005138166606053709
1761509382302885600,1.7218857421875,-0.05264671756029129,0.00004671608540229499,0.00027333704866468905
1761509382323043600,1.742043701171875,-0.051451370295882225,-0.013245101623516529,-0.004556969184614718
1761509382343200800,1.76220068359375,-0.05654021786749363,0.010127070067683234,0.011097294206172227
1761509382363357400,1.782357421875,-0.058633975276350975,0.001659813837846741,0.001773740807408467
1761509382383515600,1.802515625,-0.05444470689296722,0.002711386983701959,-0.002369542142935097
1761509382403672600,1.822672607421875,-0.050257776597142215,0.0010110950049944222,-0.004169348973361775
1761509382423829500,1.84282958984375,-0.06058394030034542,0.0015817436329554765,-0.0012216233499813824
1761509382443987700,1.86298779296875,-0.0537006105273962,-0.0063762570336461065,-0.0037536717114038764
1761509382464144600,1.88314453125,-0.05280395394861698,-0.006007003596145659,0.003321445173444226
1761509382484302600,1.903302490234375,-0.055796121501922605,0.0068932301124557845,0.0026930476094130427
1761509382504459500,1.92345947265625,-0.049958501389622684,0.0003022434827405959,-0.002006143057486042
1761509382524616700,1.94361669921875,-0.0501104770809412,-0.002481295421719551,0.004934351129643619
1761509382544774700,1.963774658203125,-0.05534837773442268,-0.0027877766881603747,0.00047504276637919243
1761509382564931600,1.983931640625,-0.056844753772020334,-0.0004624390131328255,0.0010656930027529597
1761509382585088800,2.0040888671875,-0.06417758087813853,0.0006833882874343544,0.0004176043575629592
1761509382605246500,2.02424658203125,-0.05564765294194221,0.0017616119781974702,-0.001961545863933861
1761509382625403600,2.044403564453125,-0.057443888708949085,-0.007629234503116459,-0.0012923596317879855
1761509382645561600,2.0645615234375,-0.05819383029341697,0.0020570329945068804,0.001303556879237294
1761509382665718500,2.084718505859375,-0.050416766551136964,-0.008236580145964399,-0.008564149866206572
1761509382685875700,2.104875732421875,-0.05610416453778743,0.003371366996085271,-0.006243113906960934
1761509382706033700,2.12503369140625,-0.0570031592041254,-0.000461754026543349,0.0038020956967025994
1761509382726190600,2.145190673828125,-0.06373743589520454,-0.00838474731184542,0.0009505421904847025
1761509382746347800,2.16534765625,-0.06239245102703571,0.0035621037952136246,-0.002208351098699495
1761509382766505700,2.185505615234375,-0.05940086799561977,-0.005734506797697395,-0.003454369104420766
1761509382786662700,2.20566259765625,-0.05132219095826149,0.0020782310461625454,-0.0007976257842499762
1761509382806820600,2.225820556640625,-0.056413376617431635,0.004794814794789999,-0.003840756339812651
1761509382826977800,2.245977783203125,-0.05417056612670421,-0.0016649558038450776,-0.011541001119371503
1761509382847134500,2.266134521484375,-0.048337622189521784,-0.007117175061441957,-0.001597754052840173
1761509382867292700,2.286292724609375,-0.05073182384967804,0.0027106471981853245,0.0021412863450124857
1761509382887449900,2.306449951171875,-0.07048281850218772,0.015629512542020527,0.013163506020978093
1761509382907607600,2.326607666015625,-0.09592354922890663,-0.014438183865603058,0.006998096992727369
1761509382927764700,2.3467646484375,-0.05207856228351593,0.005442967372061684,0.008458205273700878
1761509382947921700,2.366921630859375,-0.050880292409658426,0.002639819584833458,0.00040975897782482206
1761509382968079600,2.38707958984375,-0.05402151304483414,-0.00310382036739029,-0.00995499230325222
1761509382988236500,2.407236572265625,-0.051474751171469685,-0.00536294267210178,-0.0001126391947735101
1761509383008394200,2.427394287109375,-0.04743161326050758,0.00159202756495215,-0.0014207626512739806
1761509383028552000,2.447552001953125,-0.055958034065365786,-0.009032735492335632,0.004545598407229409
1761509383048709000,2.467709228515625,-0.052069209933280944,0.0013469119637738913,-0.007336434702156111
1761509383068867300,2.487867431640625,-0.057904491958022115,0.00020368761224672197,-0.0013391853150445966
1761509383089024000,2.50802392578125,-0.05386836830973625,-0.010037081096135079,-0.000036587417032569645
1761509383109181200,2.52818115234375,-0.05446691872477531,-0.007623590213619172,-0.004111161645874381
1761509383129339100,2.548339111328125,-0.05296820459961891,-0.008540878588473425,0.0032858350039459763
1761509383149496000,2.56849609375,-0.06104921972453594,0.0015625640084501356,-0.00044217254323884844
1761509383169653200,2.5886533203125,-0.05446516515910625,-0.0017601141408551484,-0.00515774808935821
1761509383189811200,2.608811279296875,-0.0508726936250925,-0.0033293910178821533,-0.0038657811832148578
1761509383209968000,2.628968017578125,-0.05835165120363235,0.0007503617095761001,-0.0038168000754900274
1761509383230126000,2.6491259765625,-0.06164367848634719,0.00018866357305087148,-0.005901661791838706
1761509383250283300,2.669283203125,-0.058204351687431335,0.0006646835869643837,-0.007137943854834884
1761509383270440200,2.689440185546875,-0.04503624255657196,0.00245395075706765,0.0024251904534641653
1761509383290598100,2.70959814453125,-0.05341244123578071,0.0019537370168138295,0.0020166005194187163
1761509383310755300,2.72975537109375,-0.05116670813560485,-0.0005164342226926238,0.004649789434066042
1761509383330912000,2.749912109375,-0.053259296500682826,-0.0018925996804144232,-0.010895688953157514
1761509383351070200,2.7700703125,-0.056251464053988454,-0.004543744376860559,0.000561241478798911
1761509383371227100,2.79022705078125,-0.0559486817151308,-0.005610396360838785,-0.004361830205004662
1761509383391385000,2.810385009765625,-0.0556482374638319,-0.0048934254642110315,-0.009506992807425558
1761509383411542300,2.830542236328125,-0.05999006606042385,-0.00234529361766763,-0.0027511527385096993
1761509383431699000,2.850698974609375,-0.059091655915975566,0.0029822398143354804,0.009653095880383626
1761509383451857200,2.870857177734375,-0.04712064761519432,-0.004491484466660768,0.0007291545247659087
1761509383472014000,2.89101416015625,-0.0498141244828701,-0.0017406970543321222,0.0019370233440306037
1761509383492171000,2.9111708984375,-0.06672025109827517,-0.004516016119718551,0.00437413256415166
1761509383512329200,2.9313291015625,-0.0643272184818983,-0.002440789881395176,-0.014401121524535118
1761509383532486100,2.951486083984375,-0.05654314047694206,0.00581312499186024,-0.004841028556693345
1761509383552644400,2.971644287109375,-0.04711012622117996,-0.002335018818825483,-0.008831641695974394
1761509383572801000,2.991801025390625,-0.05818213985562324,0.004627723732730373,-0.008611925397533924
1761509383592958200,3.011958251953125,-0.05713584567308425,0.006701278603775426,0.006323348669474944
1761509383613116000,3.032115966796875,-0.05653729525804519,-0.002283672224078327,-0.0032793961300048974
1761509383633273000,3.052273193359375,-0.04576455683112144,-0.002532870345329866,0.0010893204735126347
1761509383653431300,3.072431396484375,-0.05220131188035011,0.003838482184335589,0.005809727458376437
1761509383673588000,3.092587890625,-0.0590858106970787,-0.004956928287632763,-0.0034536293189041316
1761509383693745200,3.1127451171875,-0.047263270956277845,-0.007399563066242262,0.0020375976416748018
1761509383713903000,3.132903076171875,-0.0655167205274105,0.010380478573171422,-0.005168780940026044
1761509383734060000,3.15306005859375,-0.06821253548264503,0.0024555855917278674,-0.0036730807558633385
1761509383754217200,3.17321728515625,-0.06342237859666347,0.005628397808410227,-0.005470010642614215
1761509383774375200,3.193375244140625,-0.05698620806932449,0.002429382571391761,0.00532823668490164
1761509383794532000,3.213531982421875,-0.06327157194912433,-0.008113419557176529,-0.00009106668378226459
1761509383814690000,3.23368994140625,-0.05653787977993488,0.004411487166164443,0.003455501615582034
1761509383834847200,3.25384716796875,-0.06207622468471527,0.0017181290294975041,-0.007285060707945376
1761509383855004200,3.274004150390625,-0.04890694651007652,0.000984745854185894,-0.004837859352072701
1761509383875162000,3.294162109375,-0.04875789342820644,-0.0039084421480074525,0.0008282583845313638
1761509383895319300,3.3143193359375,-0.049207390761375425,0.010991112151648849,-0.002454507879493758
1761509383915476000,3.33447607421875,-0.05908405713140964,-0.0003832088976167142,-0.0004188829991966486
1761509383935634200,3.35463427734375,-0.05489537326991558,-0.007143405481241643,-0.0032984387571923434
1761509383955791400,3.374791259765625,-0.056391749307513235,-0.001756150351790711,0.0029923319500871
1761509383975949000,3.394948974609375,-0.05564589937627315,0.010754198123235255,0.0012032657093834131
1761509383996106200,3.415106201171875,-0.048611762955784794,-0.005326875844877213,-0.0090132818731945
1761509384016262700,3.4352626953125,-0.06222820037603378,-0.00152323664505966,-0.0071980948105454445
1761509384036420900,3.4554208984375,-0.06372457641363144,-0.0004373319713398814,0.0017675302623305468
1761509384056578000,3.475578125,-0.0583364536345005,-0.00042320298128761347,0.005123252164712175
1761509384076734700,3.495734619140625,-0.05280220038294792,-0.004085881074145436,0.0024742080938071013
1761509384096893000,3.515892822265625,-0.05309972202479839,-0.0014208722491282969,-0.0034383312850724906
1761509384117049900,3.5360498046875,-0.04187865530848503,-0.006807944715488702,-0.005955017680581659
1761509384137208000,3.5562080078125,-0.05489537326991558,-0.001381380488956347,0.007079035008139908
1761509384157364700,3.57636474609375,-0.04621346964240074,-0.004505010668514296,0.0001826082915998995
1761509384177522000,3.59652197265625,-0.05189852954149246,-0.0005417513270396739,-0.000191549649881199
1761509384197679900,3.616679931640625,-0.06312134982347488,0.004801071005640551,-0.0011517729841638356
1761509384217836800,3.6368369140625,-0.05264554851651192,0.000050004021031782026,-0.001129935611691326
1761509384237994000,3.656993896484375,-0.05713350758552551,-0.0027926446595229206,0.007431857900647446
1761509384258151700,3.677151611328125,-0.05488835900723934,-0.0025585345095489173,-0.003339903278741985
1761509384278308900,3.697308837890625,-0.06072539459764957,0.0017449531043414025,-0.0017737225410994141
1761509384298466800,3.717466796875,-0.058931496918201445,-0.00021451953351497648,-0.005328191019129008
1761509384318623700,3.737623779296875,-0.05997720657885074,-0.006476785665517673,-0.003091061350516975
1761509384338781000,3.757781005859375,-0.06341770242154599,-0.006374841394694522,-0.0017619225054513663
1761509384358939000,3.77793896484375,-0.05413900194466114,0.00716677722367458,-0.009726517309620975
1761509384379095800,3.798095703125,-0.053389644882082934,-0.009105453668674454,0.0037541649017482992
1761509384399253000,3.8182529296875,-0.04590601112842559,-0.0003275423207785934,0.004825511327153071
1761509384419411000,3.838410888671875,-0.051443771511316294,0.006967701854463666,0.0021208646114915606
1761509384439568000,3.85856787109375,-0.05638239695727825,-0.001999256658973172,0.0030787041924428193
1761509384459725800,3.878725830078125,-0.054285132417082785,-0.003475439291913062,-0.004752254294697195
1761509384479883000,3.898883056640625,-0.061167877668142315,0.006938302230043336,-0.00012734357356093822
1761509384500040000,3.9190400390625,-0.05158931746184826,-0.007965992176812141,-0.0065719622688367955
1761509384520198000,3.939197998046875,-0.04485387172698974,-0.006534698998369276,-0.009554055952699854
1761509384540355000,3.95935498046875,-0.052481297865509986,-0.0028366664643399418,-0.0060785161960870025
1761509384560511700,3.97951171875,-0.05113455943167209,0.008097126009501516,-0.0015567461890168487
1761509384580670000,3.999669921875,-0.061010056757926936,-0.009791581902466713,0.0011417995794210582
1761509384600827000,4.019826904296875,-0.05368073678314685,-0.00995972327729687,-0.001388239488005638
1761509384620984800,4.03998486328125,-0.05936579668223858,0.0030059494834858923,-0.004842498994572088
1761509384641142000,4.06014208984375,-0.057719783040881156,-0.0004947977796196937,0.000053310222970321774
1761509384661299000,4.080298828125,-0.06310556773245335,-0.0071270662677939975,-0.0004052654657978564
1761509384681457000,4.100456787109375,-0.043351650470495225,-0.005492222474422306,0.00280489221974276
1761509384701613800,4.12061376953125,-0.05157996511161327,-0.0002994396043010056,-0.008048820755211636
1761509384721772000,4.14077197265625,-0.04319967477917671,0.006978095384314656,0.0009585063012316822
1761509384741928700,4.1609287109375,-0.053822191080451005,0.0029158691803924737,-0.004970892880903557
1761509384762086000,4.1810859375,-0.05561725780367851,-0.006996087698731571,-0.003962400824949145
1761509384782243800,4.201243896484375,-0.05172784914970398,0.0011734824924729765,-0.008848738961247727
1761509384802400800,4.22140087890625,-0.05531915163993835,0.001068031090311706,-0.0030997287141624834
1761509384822558000,4.241557861328125,-0.05651566794812679,-0.0005783478772267698,0.002386858603917062
1761509384842716000,4.2617158203125,-0.06070435180962085,-0.013802826837822794,0.0014555508368648588
1761509384862872800,4.281872802734375,-0.07027940488457679,0.004865697207069024,-0.005505036290222779
1761509384883030800,4.30203076171875,-0.054715925049781795,0.002497360640531406,-0.006683176691504195
1761509384903188000,4.32218798828125,-0.052774143332242965,-0.00046775450906716285,-0.0044913840019609776
1761509384923345000,4.342344970703125,-0.057711599734425544,0.0031375217075925318,-0.014562403900315985
1761509384943502800,4.3625029296875,-0.06205109024345874,-0.0062177602699957785,0.0013908515702001749
1761509384963660000,4.382659912109375,-0.05561550423800945,0.004322329311678186,0.003711631801119074
1761509384983817000,4.40281689453125,-0.05456862553358078,0.00784656704822555,-0.0003215601045638323
1761509385003975000,4.422974853515625,-0.05127718277275562,-0.0016255279757548123,0.005675123026967048
1761509385024135000,4.443135009765625,-0.05591536396741867,-0.001840257571823895,0.0010318272657692431
1761509385044292900,4.46329296875,-0.05561375067234039,0.0060871652934234586,-0.005233918598107993
1761509385064450000,4.483449951171875,-0.060249009257555004,-0.006184241592884063,-0.0016985201467294244
1761509385084607000,4.50360693359375,-0.05665419963598251,0.0029200795646291224,-0.0018697028620168565
1761509385104765000,4.523764892578125,-0.047376083680987356,0.0002629526519682258,-0.0029552878753282127
1761509385124922000,4.543922119140625,-0.060842298975586885,-0.0034754758245311677,0.001975930582312867
1761509385145078800,4.564078857421875,-0.052012511309981344,0.007266018080757931,-0.0011673221797449513
1761509385165237000,4.584237060546875,-0.04572890099585056,0.0007337485014926641,-0.0027480474659707394
1761509385185394200,4.604394287109375,-0.0428863710463047,0.007407371913362294,-0.003500404769810848
1761509385205551900,4.6245517578125,-0.06563187133967877,0.0010198719664942471,-0.0012912362537812441
1761509385225709000,4.644708984375,-0.05545417619645595,0.002518878352595493,-0.0035070674060378223
1761509385245865000,4.664864990234375,-0.06712590928971766,-0.005213195470487699,-0.015268771204538642
1761509385266022000,4.68502197265625,-0.057850131422281265,-0.002506612526066601,0.0001606521881185472
1761509385286178800,4.7051787109375,-0.05964402910172939,-0.0038730694405268874,0.0038767912009963763
1761509385306336800,4.725336669921875,-0.0508159950017929,-0.00568215555595234,-0.0008628958730725571
1761509385326494000,4.745493896484375,-0.0523106174737215,0.003850181755283847,-0.002061910099023953
1761509385346652000,4.76565185546875,-0.062336921447515486,0.001336344903986901,0.0032614038155879825
1761509385366808800,4.785808837890625,-0.04363222097754478,0.0041088874903973185,0.008333081056689843
1761509385386966000,4.805966064453125,-0.05500292529761791,0.0006386449634097517,-0.004810089995735325
1761509385407124000,4.8261240234375,-0.05515022481381893,0.005322711126413196,-0.0029236277951626105
1761509385427281000,4.846281005859375,-0.05724573578834533,-0.009392088590329513,-0.004225353476917371
1761509385447438800,4.86643896484375,-0.049314358267188066,0.0019193872226402162,0.003271925209602341
1761509385467595800,4.886595703125,-0.05664426276385784,-0.001696848779451102,-0.0015425578334601596
1761509385487753000,4.9067529296875,-0.05424889205992221,0.004576231007510796,-0.013495528154051861
1761509385507911000,4.926910888671875,-0.05334931287169456,0.005548363975295797,-0.0004909024892142042
1761509385528067800,4.94706787109375,-0.06127835230529308,-0.002852832147851586,-0.00741476976852864
1761509385548225000,4.96722509765625,-0.055143795073032374,0.003008223638962954,-0.0013093838318251072
1761509385568383000,4.987383056640625,-0.044967853495478625,0.0021479626809712497,-0.006121761682769284
1761509385588540000,5.007539794921875,-0.052150458475947375,0.0018800233266316353,0.004374032099451869
1761509385608697900,5.02769775390625,-0.05155424614846706,0.00014444083883427084,-0.004451202688622288
1761509385628855000,5.04785498046875,-0.05559270788431167,-0.005309276256104931,-0.00413797202098649
1761509385649012000,5.068011962890625,-0.06262684430480003,0.0008925466592423617,0.00429621305631008
1761509385669171000,5.0881708984375,-0.05170329923033714,0.006880882087536156,-0.004077309608622454
1761509385689327900,5.108327880859375,-0.06157996560037136,0.005713829335849732,0.0010062681328272447
1761509385709484800,5.12848486328125,-0.05723989056944847,-0.005817992963222786,0.005821554893488064
1761509385729642800,5.148642822265625,-0.059935705524683,0.009733184512425214,0.0024912459935760123
1761509385749800000,5.168800048828125,-0.0578396100282669,-0.005415065584983676,0.003228602091106586
1761509385769956900,5.188956787109375,-0.06008183599710464,0.00417890225299634,-0.010237188511807471
1761509385790114800,5.20911474609375,-0.062329322662949556,0.008094276465289294,-0.0008811073831981048
1761509385810272000,5.22927197265625,-0.04736497776508331,-0.0009290701441932469,-0.006177245596516877
1761509385830430000,5.249429931640625,-0.050206338670849796,-0.002980650645447895,-0.007900639889598824
1761509385850587000,5.2695869140625,-0.06636486178934574,-0.0011822594539728016,-0.0009405459528556093
1761509385870744000,5.289744140625,-0.055441901236772534,0.006157043058704585,-0.001922072370070964
1761509385890902000,5.309902099609375,-0.060979077097773546,0.0024821996040176597,0.004341458703833632
1761509385911059000,5.330058837890625,-0.06247486861348152,0.002963599045947194,-0.003185155675024725
1761509385931216100,5.350216064453125,-0.05454349109232425,-0.001851573550282046,-0.00492694870790001
1761509385951373800,5.370373779296875,-0.060678632846474644,0.0033846100701484826,-0.006092380324658006
1761509385971531000,5.390531005859375,-0.05738835912942886,0.0038652423270978033,-0.004211777042713948
1761509385991689000,5.41068896484375,-0.05828384666442871,-0.005315450268564745,-0.0009414318688446655
1761509386011846100,5.43084619140625,-0.059030281117558474,-0.0017964732290245591,0.0063684162204852325
1761509386032003000,5.451003173828125,-0.0626239216953516,0.002660040388954803,0.0026118675654055548
1761509386052161300,5.471161376953125,-0.056038698086142535,0.005340886103920638,0.00004247373512480408
1761509386072318000,5.49131787109375,-0.05424246231913566,0.004933657009899616,0.0028474527198355643
1761509386092476200,5.51147607421875,-0.06471592553853989,-0.005114831396238878,0.0010829866308486088
1761509386112633300,5.53163330078125,-0.0638180999159813,0.004364177425717934,-0.005016033497150056
1761509386132790000,5.5517900390625,-0.05678396349549293,0.0030030908061191436,-0.005442551813530735
1761509386152948200,5.5719482421875,-0.057981064325571055,-0.0025234175303950903,0.0033761208030162375
1761509386173105200,5.592105224609375,-0.05349310525655746,0.0045996210162527855,0.005962100441916846
1761509386193262000,5.612261962890625,-0.060825932362675666,0.006080214962828904,-0.009389709403575397
1761509386213420000,5.632419921875,-0.05304653053283691,0.0007823277504183352,-0.006077493282780051
1761509386233577200,5.6525771484375,-0.05170213018655777,0.0050531095379497855,-0.013511862800922245
1761509386253735200,5.672735107421875,-0.06412146677672863,0.006869255581824108,-0.005234210859052836
1761509386273892000,5.69289208984375,-0.05334931287169456,0.0020278069000225513,0.0009531405729474499
1761509386294049000,5.713049072265625,-0.051557753279805184,0.0005133472164627164,0.004117395023838616
1761509386314207000,5.73320703125,-0.058741527304053305,0.0014262242776807398,-0.000801087249815464
1761509386334364200,5.7533642578125,-0.05769406407773495,-0.0008817604037467389,0.011564601190667599
1761509386354522000,5.773522216796875,-0.05904021798968315,-0.000750489573739469,-0.0029027448373381047
1761509386374679000,5.793678955078125,-0.06502689118385314,-0.001150777470320463,0.0029670833443989977
1761509386394836200,5.813836181640625,-0.0671247402459383,0.005446748498035595,-0.005193860582355409
1761509386414994200,5.833994140625,-0.05694879866838455,-0.000313038871390745,-0.002174339231243357
1761509386435151000,5.854151123046875,-0.06219020645320415,0.0023849041088484227,0.0007628741312772035
1761509386455308300,5.874308349609375,-0.0419932215988636,-0.0016669650978408752,0.009861879792856052
1761509386475466200,5.89446630859375,-0.053663201126456256,-0.003152564013097435,-0.002882642764225602
1761509386495623200,5.914623046875,-0.053363925918936725,-0.0008146134516689926,-0.010283256143238394
1761509386515781000,5.934781005859375,-0.06728080759048462,0.001206087854132056,-0.006147745507396757
1761509386535938000,5.95493798828125,-0.05321662640273571,0.003194439526600763,-0.000376550827967003
1761509386556095200,5.97509521484375,-0.05546119045913219,0.00431277603204362,-0.008492144075920804
1761509386576253200,5.995253173828125,-0.060847559672594066,0.005751786726061255,0.002443127968953922
1761509386596410000,6.01541015625,-0.05965396597385406,0.005684374912502244,0.002222014297870919
1761509386616568000,6.035568115234375,-0.059055415558815,-0.0008339392066467553,0.006326691404031589
1761509386636725200,6.055725341796875,-0.05307224949598312,0.002311747541092336,-0.003578726136451587
1761509386656882000,6.0758818359375,-0.05576455731987953,-0.00016399492267519234,-0.0095992650676053
1761509386677040000,6.0960400390625,-0.06070318276584148,-0.0021193759073037653,0.0036545952511020004
1761509386697197300,6.116197265625,-0.05187164153456687,-0.004317132546752691,-0.005044049448659643
1761509386717354000,6.13635400390625,-0.04424187730848789,-0.0021889979442581533,-0.0011158888200297951
1761509386737512200,6.15651220703125,-0.06773498109877109,-0.008410849867481737,-0.001797761003812775
1761509386757669000,6.176669189453125,-0.0454395626604557,-0.00007740348461084068,-0.0014589392371941357
1761509386777827000,6.1968271484375,-0.059655719539523124,0.0036765422214288263,0.002812006947118789
1761509386797984000,6.21698388671875,-0.04798515549004077,-0.0029378800828009843,0.0006760726306587457
1761509386818141200,6.23714111328125,-0.05815758993625641,-0.004208192279562354,-0.007947177878487855
1761509386838299100,6.257299072265625,-0.06399521004855632,-0.0025098913285415618,-0.001857601432269439
1761509386858456000,6.2774560546875,-0.059657473105192184,0.00022047435026615857,0.005386195683525875
1761509386878614300,6.2976142578125,-0.0620487521559,-0.006085676589235663,0.004590095136081799
1761509386898771000,6.31777099609375,-0.054416065320372575,-0.0012618914282880723,-0.0051186125222127885
1761509386918928100,6.33792822265625,-0.06429565429985523,0.0003702489513438195,-0.006784180247411131
1761509386939086000,6.358086181640625,-0.06085398941338062,-0.003121082029445097,-0.002649610326485708
1761509386959243000,6.378242919921875,-0.06264905613660812,-0.0006046787617262452,-0.000012978212581947446
1761509386979400200,6.398400146484375,-0.058309565627574916,-0.0016437851516529916,-0.0006331102717667818
1761509386999558100,6.41855810546875,-0.06025485447645187,0.0027560298430267718,-0.004872008216846734
1761509387019711500,6.43871142578125,-0.056366030344367025,0.0035707894251681862,0.0027460473051294683
1761509387039869200,6.458869140625,-0.05367255347669124,0.009814862313354388,0.008091235124832018
1761509387060026400,6.4790263671875,-0.061304071268439286,0.002588299460150301,0.0010007380077615379
1761509387080183600,6.49918359375,-0.054122635331749915,0.00007331183138303458,-0.011832065620971843
1761509387100341200,6.51934130859375,-0.0627981092184782,0.00007244418170303105,-0.0020578915110323576
1761509387120498400,6.53949853515625,-0.0529249499797821,0.0001994406953919679,0.013714326570462435
1761509387140656400,6.559656494140625,-0.061304655790328975,0.01105113524319604,-0.004941137063456699
1761509387160813300,6.579813232421875,-0.05397241320610046,0.00476859350814484,-0.00031390652107074853
1761509387180970500,6.599970458984375,-0.046940030351281165,0.00497844599969685,-0.00432637529913336
1761509387201128400,6.62012841796875,-0.06011106209158897,0.004042745185317472,0.0016269527478609232
1761509387221285400,6.640285400390625,-0.05966331832408905,0.0016041381278540938,-0.0004786503624171018
1761509387241442600,6.660442626953125,-0.05293021067678928,-0.006469351277733221,-0.004170819411240517
1761509387261600500,6.6806005859375,-0.05143617272675037,0.0062452327988110476,0.006096672907285392
1761509387281757400,6.70075732421875,-0.06685293756723404,0.0039790962314233186,0.0038670598248485475
1761509387301915400,6.720915283203125,-0.04365969350636005,-0.0020864234857726842,-0.001676664507947862
1761509387322072600,6.741072509765625,-0.047100773870944974,0.006720357763580978,0.008419471565354615
1761509387342229200,6.761229248046875,-0.056980362850427624,-0.0021916739585343746,0.001241981151420623
1761509387362387500,6.781387451171875,-0.05832651676237583,-0.004223535979166627,0.00006267170635983348
1761509387382544400,6.80154443359375,-0.05742869113981723,-0.0051225123791955405,-0.004172746506845578
1761509387402702300,6.821702392578125,-0.05518295803964138,-0.0017030136587563901,0.0005022413005586713
1761509387422859500,6.841859619140625,-0.06162029761075973,0.00883012559232302,0.0019566596262622625
1761509387443016200,6.86201611328125,-0.058334115546941755,-0.010649504772899672,-0.0011681121976114808
1761509387463174400,6.88217431640625,-0.05294599276781082,-0.0014754245811142027,0.004444941911194473
1761509387483331300,6.902331298828125,-0.05189794501960277,0.002083181215915829,-0.0017920710485428571
1761509387503489500,6.922489501953125,-0.05099953487515449,0.00399854985056445,0.0025612561895977702
1761509387523646500,6.942646484375,-0.05413958646655082,-0.003165213432116434,0.0012750888365786522
1761509387543803400,6.962803466796875,-0.05443593906462192,-0.0011795469070784747,-0.0015551296206656844
1761509387563961600,6.982961669921875,-0.055036243045330044,0.0038577257409226147,-0.00439398804209195
1761509387584118300,7.0031181640625,-0.05279167898893356,0.0023661263431422413,-0.0055725029027089475
1761509387604275500,7.023275390625,-0.06087269411385059,0.0005634151695761829,0.0020069011093117295
1761509387624433200,7.04343310546875,-0.05309446132779121,0.003921146365953609,-0.0015102036335505544
1761509387644590300,7.06359033203125,-0.04531038332283496,-0.0012606493192724882,-0.005818787547666579
1761509387664748500,7.08374853515625,-0.052043490970134734,-0.002127550080604851,-0.0004887790307868271
1761509387684905200,7.1039052734375,-0.05772738182544708,0.0022451577114406974,-0.001139881616970524
1761509387705062400,7.1240625,-0.052640287819504736,0.0031488559523597357,0.002394283858546987
1761509387725220400,7.144220458984375,-0.06640870093107223,0.0008480590635444969,0.0035176161995157597
1761509387745377300,7.164377197265625,-0.05608429079353809,0.0027229038915596903,0.007162530306819826
1761509387765535200,7.18453515625,-0.05683306333422661,0.005146249447809532,-0.001398642151011154
1761509387785692400,7.2046923828125,-0.04905483054816723,0.00043832748518325384,-0.0010331789726391433
1761509387805849300,7.224849365234375,-0.044268765315413475,0.00019388773743994533,-0.000277839693846181
1761509387826007300,7.24500732421875,-0.052498249000310894,0.005276606962364166,-0.005268551520071924
1761509387846164500,7.26516455078125,-0.054739890447258945,0.0008092066241893917,-0.007203994828369468
1761509387866322200,7.285322265625,-0.05459025284349918,0.005903269227035344,0.0008782898050267248
1761509387886479400,7.305479248046875,-0.05818097081184387,-0.00637985549652949,0.0012419994177296756
1761509387906636500,7.325636474609375,-0.04321837947964668,-0.0013993636702187358,0.003381404332909733
1761509387926794200,7.345794189453125,-0.06326806481778621,-0.009664055665815248,0.003538485457608476
1761509387946951400,7.365951416015625,-0.05488777448534965,0.0014348185760900377,0.0006368731314316392
1761509387967109400,7.386109375,-0.05084755918383598,0.010745868686307222,0.001569331675954163
1761509387987266300,7.406266357421875,-0.055037996610999104,-0.010122393892565742,0.0003898669672664255
1761509388007423500,7.426423583984375,-0.051447863164544104,-0.0036572986648418008,0.0005625566530507057
1761509388027581700,7.446581787109375,-0.05923018760383129,0.005307623155135661,-0.002751444999454543
1761509388047739000,7.46673876953125,-0.05354454318284988,-0.0024275102747138588,-0.004568696155026555
1761509388067895600,7.4868955078125,-0.04860942486822605,0.0004674348486587405,-0.0024079287914093583
1761509388088053800,7.5070537109375,-0.060131520357728,0.003288958542793989,-0.0046436062884517015
1761509388108210700,7.527210693359375,-0.05743570540249347,-0.0015175649560987949,-0.004159987489972264
1761509388128369000,7.547368896484375,-0.05309446132779121,-0.0000016622341237962245,-0.000004511778336018324
1761509388148525800,7.56752587890625,-0.051449616730213164,0.005216766533907503,0.003998632048955187
1761509388168682800,7.587682861328125,-0.04591185634732246,-0.00017741152667440473,0.0030992720564361658
1761509388188841000,7.607841064453125,-0.05548632490038871,0.0006391838195268064,0.003073470894899219
1761509388208997600,7.62799755859375,-0.05159516268074512,0.004148178321169689,-0.005330775701859965
1761509388229155800,7.64815576171875,-0.061920741862058634,-0.0024971688442863523,0.009629778936877846
1761509388249312800,7.668312744140625,-0.06102233171761035,0.007910791390854864,0.0038110735876020043
1761509388269469700,7.6884697265625,-0.05428980859220028,-0.009144644034747034,-0.0016100838114507495
1761509388289628000,7.7086279296875,-0.061323360490798944,0.0044172227872069925,-0.009782467014249414
1761509388309784600,7.72878466796875,-0.06341770242154599,-0.0014771324810106306,0.0028049926844425496
1761509388329942800,7.74894287109375,-0.06102233171761035,-0.006479918337520212,-0.0007025496456306427
1761509388350099700,7.769099609375,-0.05997603753507137,-0.004256342270225286,0.003756247260980308
1761509388370256600,7.789256591796875,-0.05758417396247387,0.0017553009684197604,-0.0037127551791258156
1761509388390414600,7.80941455078125,-0.0526461330384016,-0.002358509292267263,0.0013036390776280313
1761509388410571800,7.82957177734375,-0.05758358944058418,0.0013801840457133949,-0.0009985186512116342
1761509388430730000,7.84972998046875,-0.057286652320623396,-0.0013452314633410423,-0.0007788754180073738
1761509388450886700,7.86988671875,-0.03753331958055496,-0.0002237257532775402,-0.0009702880705706775
1761509388471043800,7.8900439453125,-0.05294716181159019,-0.017946694310056046,-0.0037503381100017575
1761509388491201800,7.910201904296875,-0.06027881987392902,0.007997693356173112,0.005213195470487699
1761509388511358700,7.930358642578125,-0.06641805328130722,0.004733458262681961,0.004520856691617519
1761509388531516700,7.9505166015625,-0.0620791472941637,-0.0041139837906230235,0.008056958395894617
1761509388551673600,7.970673583984375,-0.05759118822515011,0.005488678810466081,0.00610391549882479
1761509388571830800,7.990830810546875,-0.05400163930058479,0.0056061859766021365,-0.0024121026430279015
1761509388591988700,8.01098876953125,-0.05085808057785034,0.0010385949332732706,0.010551506024831906
1761509388612145700,8.031145751953124,-0.07150865441858768,0.0037118235973641273,-0.004355847988789901
1761509388632303600,8.0513037109375,-0.05713993732631206,-0.006063510423200204,-0.0017824538368266074
1761509388652460800,8.071460693359375,-0.0511561867415905,0.0004400445182342082,0.003517342204879969
1761509388672617700,8.09161767578125,-0.049210897892713545,-0.0030285723072476685,-0.0028958767051342873
1761509388692775700,8.111775634765625,-0.062528060105443,0.0009355638170614838,0.00034874037243425845
1761509388712932900,8.131932861328124,-0.05504384182989597,-0.005293612896092236,0.008233374408725649
1761509388733089800,8.15208984375,-0.06042962652146816,0.007461211859295144,0.0009886183117050677
1761509388753247700,8.172247802734375,-0.0658177493005991,-0.00701845479416661,-0.0032212727345991878
1761509388773405000,8.192405029296875,-0.060279988917708395,0.0035878501578234133,0.0009924451034516095
1761509388793562600,8.212562744140625,-0.052498249000310894,0.000049519963841885324,-0.0016850670101121066
1761509388813719800,8.2327197265625,-0.05997779110074043,0.006742286467598751,0.005448465531086548
1761509388833876700,8.252876708984376,-0.06671089874804019,0.0007248802084475755,-0.0015201039730571209
1761509388854034700,8.27303466796875,-0.05638415052294731,0.004969230646779761,0.0046196043583564455
1761509388874192000,8.29319189453125,-0.06251578514575958,-0.002005878196004778,-0.00021318609295412896
1761509388894349800,8.313349853515625,-0.05937222642302513,0.0036164917304180562,-0.003399835038743913
1761509388914506800,8.3335068359375,-0.05772562825977802,-0.0015500059209764003,0.004067961824964732
1761509388934663700,8.35366357421875,-0.052340428090095516,-0.0016745821487158536,0.0038596437033731486
1761509388954822000,8.37382177734375,-0.06251578514575958,0.0035911837592255322,0.003572460792446509
1761509388974978600,8.393978515625,-0.054288055026531216,-0.005913397895405069,0.005722377968486398
1761509388995136800,8.41413671875,-0.04994797999560833,0.0024709840902592986,-0.003341930839046836
1761509389015294000,8.4342939453125,-0.060869771504402155,0.0015935984675306827,-0.006041599985491484
1761509389035451000,8.454450927734374,-0.05877601409554481,-0.005364586639916524,0.004763570273155346
1761509389055609000,8.474609130859376,-0.05518412708342075,-0.0018637480452656744,0.003261248551961034
1761509389075765800,8.494765869140625,-0.05518237351775169,0.005120028161164373,-0.004170718946540728
1761509389095924000,8.514924072265625,-0.06610591859221458,-0.00623393508666195,0.0017088680108077823
1761509389116081000,8.535080810546875,-0.04201192629933357,0.005419522564392537,-0.004401696424512192
1761509389136237800,8.55523779296875,-0.0541319876819849,0.005552546960068867,0.0032804099101573225
1761509389156396000,8.57539599609375,-0.055177112820744514,-0.0028325291453395037,-0.0007305153647903352
1761509389176553000,8.595552978515625,-0.05113514395356178,-0.0019658475797157734,0.00569991040835157
1761509389196711000,8.6157109375,-0.05008475811779499,0.00022698628944344817,0.002342462339764461
1761509389216867800,8.635867919921875,-0.05891337673962116,-0.0028835378133691848,0.0055379795785993335
1761509389237025000,8.65602490234375,-0.06654723261892795,0.0018039167499635368,0.001323220560932532
1761509389257182000,8.676181884765626,-0.05607376939952373,-0.003430376307480037,0.003390382223809138
1761509389277339000,8.6963388671875,-0.05532908851206302,0.0014627203631680458,0.0037954741596709935
1761509389297497000,8.7164970703125,-0.05727379283905029,-0.001943169957026839,0.003017621654970571
1761509389317654000,8.736654052734375,-0.05383388151824474,-0.00047497883429750796,0.003600600041542202
1761509389337812000,8.75681201171875,-0.05832359415292739,0.003354023135639727,0.004064189832145348
1761509389357969200,8.77696923828125,-0.056231005787849425,-0.005311002422310412,0.003005364961596206
1761509389378125800,8.797125732421875,-0.05413900194466114,0.00401212171819061,-0.0005752791373059153
1761509389398284000,8.817283935546875,-0.05578618462979793,-0.00016570282257162032,0.0067045939388684925
1761509389418440700,8.837440673828125,-0.061171384799480436,-0.002454434814257547,-0.005227726319339126
1761509389438599000,8.857598876953125,-0.05264437947273254,0.00023748941714875398,-0.001643401559162885
1761509389458756000,8.877756103515624,-0.056985039025545116,0.00891586764701642,0.0010430610458366572
1761509389478912800,8.897912841796876,-0.05398994886279106,0.007938665778469293,0.0016241397362668066
1761509389499071000,8.918071044921875,-0.05354045152962208,0.011470273970719426,0.001607480862410739
1761509389519228000,8.938227783203125,-0.053090369674563404,-0.001274385583680123,0.0032270357551053164
1761509389539386000,8.95838623046875,-0.0650596244096756,-0.0015413385573308915,0.004303880339534953
1761509389559542800,8.978542724609374,-0.053685412958264345,0.005868855500780046,0.0035692276557441798
1761509389579700000,8.998699951171876,-0.06520517036020755,0.006095467330887914,-0.006220801610453054
1761509389599858000,9.01885791015625,-0.049644028612971305,0.004293733404856175,-0.0014355583616066723
1761509389620014800,9.039014892578125,-0.050091772380471224,-0.00009246405642479657,-0.0006226893424522131
1761509389640173000,9.059173095703125,-0.046347909677028655,0.0012277699629776179,0.003914205168513581
1761509389660329700,9.079329833984374,-0.05801964277029037,0.0025598953495733438,0.003920105186337605
1761509389680487000,9.09948681640625,-0.05772153660655022,0.007576426603645086,0.0023525818749796598
1761509389700644900,9.119644775390626,-0.051285950601100916,-0.0012209292302373797,-0.0013448204713873565
1761509389720801800,9.1398017578125,-0.05502689069509506,0.0027775475550908596,0.004323881947947666
1761509389740960000,9.1599599609375,-0.05637362912893295,-0.003787491782614961,-0.002267716603120789
1761509389761117000,9.180116943359375,-0.057718029475212096,0.004525249738944694,0.0034199097123928366
1761509389781273900,9.20027392578125,-0.05981178688406944,0.007361614809185266,-0.004354605879774317
1761509389801431800,9.220431884765626,-0.052929626154899594,0.0048605095752980556,0.008125877179950475
1761509389821589000,9.240589111328125,-0.053826867255568504,0.005257710465649142,-0.001866168331215158
1761509389841747000,9.260746826171875,-0.04649637823700904,0.004719621533574536,0.011394167394051328
1761509389861904000,9.28090380859375,-0.060411506342887875,-0.002573229755181819,-0.009046745751379058
1761509389882061000,9.30106103515625,-0.059812371405959124,-0.00168924086173065,0.0025519677714444695
1761509389902218800,9.32121875,-0.057121232625842094,0.007274365783995017,-0.0030501082856208084
1761509389922376000,9.3413759765625,-0.05173486341238021,-0.005600843081204221,-0.0004512052330654114
1761509389942534000,9.361533935546875,-0.05083528422415256,0.00850622740020044,0.001970962146250531
1761509389962690800,9.38169091796875,-0.0654997693926096,-0.0025806915424298493,0.0029679829601198435
1761509389982848800,9.401848876953125,-0.05068623114228248,-0.0035338458151090886,-0.0047973446785937995
1761509390003006000,9.422005859375,-0.06295417656302452,0.002231275316560641,-0.006800473795086145
1761509390023162600,9.44216259765625,-0.05727028570771217,0.0037296789144631473,0.0015300865109544246
1761509390043320600,9.462320556640625,-0.053228316840529435,-0.004706004000175744,0.00006916537922807038
1761509390063477800,9.482477783203125,-0.056817281243205064,-0.0007689020132645965,0.00033230982744134963
1761509390083635500,9.502635498046875,-0.05996083996593952,0.008652129543758928,0.0031466457289643585
1761509390103792600,9.522792724609374,-0.048887072765827176,0.0009645159169100224,-0.0013203344841022043
1761509390123949800,9.54294970703125,-0.06908931831717491,-0.001898390100384131,-0.0016924465989694
1761509390144107500,9.563107421875,-0.05262801285982131,-0.0015995258848182856,-0.0020822861667722462
1761509390164264700,9.5832646484375,-0.055769818016886706,0.0019145101181231438,-0.007181691665016115
1761509390184422700,9.603422607421875,-0.05681669672131538,-0.006754817155608907,-0.0017486063661519436
1761509390204579600,9.62357958984375,-0.04259937079846859,-0.0035499932323116807,-0.008004652819922194
1761509390224736800,9.64373681640625,-0.06444412285983563,0.0020367117256857455,-0.00031055465335957705
1761509390244894700,9.663894775390625,-0.0539706596404314,0.003653965063439682,-0.0028857297704555094
1761509390265051600,9.6840517578125,-0.059656304061412806,0.0018757307440042494,-0.002598263731738552
1761509390285209600,9.704209716796875,-0.05397124416232109,0.005081550181144848,0.006689003644092008
1761509390305366800,9.72436669921875,-0.04499474150240421,0.0015503712471574545,-0.0017064203253947198
1761509390325523700,9.744523681640626,-0.06564414629936217,0.004415332224220038,0.0058497854741290205
1761509390345681700,9.764681640625,-0.06549626226127148,0.0037184816670138387,0.0015922832932788878
1761509390365838800,9.7848388671875,-0.046942952960729596,-0.001679769780486822,0.004492644377285615
1761509390385996500,9.80499658203125,-0.049338908186554904,0.004591949166450649,0.00498934185304679
1761509390406153700,9.82515380859375,-0.05008826524913311,-0.00028904607445001603,-0.000400105233490467
1761509390426310700,9.845310546875,-0.0533779544442892,-0.0005957739360630511,-0.0017262027380988
1761509390446468600,9.865468505859376,-0.059663902845978736,0.003244644477032125,-0.0005934815142769367
1761509390466625800,9.885625732421875,-0.05577274062633514,-0.007224169966718182,-0.00619599596275948
1761509390486783700,9.90578369140625,-0.04948386961519718,0.0028455438905395565,-0.0011979228139854968
1761509390506940700,9.925940673828125,-0.05142798942029476,0.004249802931584418,0.0021191932442132383
1761509390527097600,9.94609765625,-0.057115387406945224,0.00748764320849441,-0.005597472947183996
1761509390547255800,9.966255859375,-0.05756430021822452,0.0026201833026017994,-0.000860900278808549
1761509390567412700,9.986412841796875,-0.05173194080293178,0.0011043627790175378,-0.0004899846071843057
1761509390587570700,10.00657080078125,-0.055470542809367175,0.0041638142817188055,-0.009246003783680498
1761509390607727900,10.026727783203125,-0.05996025544404983,0.009237893542461097,-0.003189754218328744
1761509390627885600,10.046885498046874,-0.05831248823702335,-0.008243493943940848,-0.007393498651636764
1761509390648042800,10.067042724609376,-0.05621697726249694,0.0009031776511110365,-0.0011989457272924481
1761509390668199700,10.08719970703125,-0.060706105375289914,0.000701161406142637,0.002213757926179096
1761509390688357600,10.107357666015625,-0.063398997721076,0.00530900226146914,0.006168039376754314
1761509390708514800,10.127514892578125,-0.05591594848930835,-0.0017859427018556743,0.001579222882306203
1761509390728672800,10.1476728515625,-0.05067921687960624,-0.005158387410175055,0.002024802092183381
1761509390748829700,10.16782958984375,-0.05501870738863945,-0.0008305873389355837,0.0038050457056146114
1761509390768986600,10.187986572265626,-0.049782560300827026,-0.007182431450532749,-0.007074075705232098
1761509390789144800,10.208144775390625,-0.058012628507614135,0.0010519750046543777,-0.007929313428234308
1761509390809301500,10.228301513671875,-0.05831424180269241,0.0011540014738682656,0.0013892076023854314
1761509390829459700,10.248459716796875,-0.057115387406945224,0.000617328180745244,0.002767345821484923
1761509390849616600,10.26861669921875,-0.04559387643933296,0.0012912727863993495,0.007355879188142717
1761509390869773600,10.288773681640626,-0.053073418539762496,-0.0027528606384061276,0.002484720354666933
1761509390889931800,10.308931884765625,-0.06474515163302422,0.0034656668165698647,-0.0014956636515446005
1761509390910088700,10.329088623046875,-0.04903261871635914,-0.0034269696408417076,-0.004696468986850231
1761509390930246700,10.34924658203125,-0.05127718277275562,0.0020346019669901577,-0.006477753779897466
1761509390950403600,10.369403564453124,-0.04933014035820961,0.012259460720187052,0.0030971074988134202
1761509390970560800,10.389560791015626,-0.04738426698744297,-0.003856045240489766,0.0101742610771209
1761509390990718700,10.40971875,-0.057411155483126634,-0.0008558496443554759,-0.004184884469211101
1761509391010875600,10.429875732421875,-0.05351823969781398,-0.0012166549139190465,0.0022049718315247445
1761509391031033600,10.45003369140625,-0.053068742364645004,-0.004034397482080385,0.0023023129924666136
1761509391051190500,10.4701904296875,-0.04753448911309242,0.010077513571223244,-0.002792726857913658
1761509391071347500,10.490347412109376,-0.047831426233053205,-0.0015400142499245703,-0.010627868329826741
1761509391091505400,10.51050537109375,-0.06698211690485477,-0.005729447030089796,-0.006051637322315946
1761509391111662600,10.53066259765625,-0.05426408962905407,0.0028150026218034326,-0.00003160071466118097
1761509391131820500,10.550820556640625,-0.0523193853020668,0.0076676485510542985,-0.0010879687666427342
1761509391151977500,10.5709775390625,-0.06234568927586078,-0.008053734392346815,0.003252745585097
1761509391172135700,10.5911357421875,-0.05516249977350235,-0.00004385740803554654,-0.011365580620383843
1761509391192292400,10.611292236328126,-0.056357262516021724,0.003848154194978997,0.005985385419381782
1761509391212449500,10.631449462890625,-0.05740355669856071,-0.003380217022821307,0.0076429525012150406
1761509391232607500,10.651607421875,-0.0544108046233654,0.0027925167953595518,-0.002962128608068451
1761509391252764400,10.671764404296875,-0.046477673536539074,0.007298796972353011,-0.0014336403991561382
1761509391272922600,10.691922607421875,-0.025357728618383406,0.0030496881605125963,-0.0046321852787164965
1761509391293079600,10.71207958984375,-0.11045651697218417,-0.005067430324247107,0.02411337284678593
1761509391313236500,10.732236572265625,-0.1470809050142765,-0.013603514006594195,-0.00393924827822484
1761509391333394400,10.75239453125,-0.17894027061164378,-0.00901378419669345,0.010780967399151995
1761509391353551600,10.772551513671875,-0.1066688151270151,-0.0042662334765773266,-0.007917321596341207
1761509391373709600,10.79270947265625,-0.10459843859374522,-0.0007230261780787259,-0.0034200649760197845
1761509391393866500,10.812866455078124,-0.0920727190196514,-0.00044804516159929335,0.0021741428684210404
1761509391414023400,10.8330234375,-0.05320785857439041,0.013615140512306242,0.0028498090737033633
