time,seconds_elapsed,z,y,x
1761509380649980700,0.068980712890625,-0.00034365709871053696,0.0013350015506148338,0.0005267360247671604
1761509380670137900,0.089137939453125,0.002588558243587613,-0.003053429536521435,-0.0006555353756994009
1761509380690295000,0.109294921875,0.0022008793894201517,0.00012170616537332535,-0.000869084382429719
1761509380710452700,0.12945263671875,-0.0016935945022851229,-0.0012838253751397133,-0.0006763823330402374
1761509380730610000,0.14960986328125,0.0002464053686708212,-0.0010733697563409805,-0.0003231731243431568
1761509380750767900,0.169767822265625,-0.0027339747175574303,-0.0004089772701263428,0.0002173746470361948
1761509380770924800,0.1899248046875,0.001266832696273923,-0.00013626925647258759,-0.0011533545330166817
1761509380791082000,0.21008203125,0.0006319768726825714,-0.000044673681259155273,-0.0017084325663745403
1761509380811240000,0.230239990234375,0.001021767733618617,0.0021502748131752014,0.0004363360349088907
1761509380831396900,0.25039697265625,0.0007439169567078352,-0.0006737951189279556,0.00024298112839460373
1761509380851553800,0.2705537109375,0.0031525124795734882,0.0007305610924959183,-0.0011843899264931679
1761509380871712000,0.2907119140625,-0.0007292455993592739,-0.0005356334149837494,-0.002317397855222225
1761509380891869000,0.310868896484375,0.0010231975466012955,-0.0008366722613573074,0.00006270129233598709
1761509380912027000,0.33102685546875,0.002700547222048044,0.0009137149900197983,0.00022673583589494228
1761509380932184000,0.35118408203125,0.001540494617074728,-0.0007012104615569115,0.0011163020972162485
1761509380952340700,0.3713408203125,-0.003482133848592639,0.0030829301103949547,-0.00046240747906267643
1761509380972499000,0.3914990234375,-0.00006118207238614559,0.0001944955438375473,-0.0023304717615246773
1761509380992656000,0.41165576171875,-0.0015093248803168535,0.0018404247239232063,0.001561425277031958
1761509381012813800,0.431813720703125,-0.0019173999316990376,-0.000916813500225544,0.002669752575457096
1761509381032970800,0.451970703125,0.0006346274167299271,0.0008922992274165154,-0.002270270837470889
1761509381053127700,0.472127685546875,0.001530165085569024,0.0010942518711090088,-0.001670638332143426
1761509381073286000,0.492285888671875,0.001383508089929819,0.000384526327252388,-0.00044206855818629265
1761509381093442600,0.512442626953125,0.0034435326233506203,-0.00033337250351905823,0.000610048184171319
1761509381113599700,0.532599853515625,0.0008120848797261715,-0.003045019693672657,0.0010006600059568882
1761509381133758000,0.552758056640625,-0.0004707430489361286,0.001882181502878666,0.001078848261386156
1761509381153914600,0.57291455078125,-0.0003610801650211215,0.00014550704509019852,-0.0031128383707255125
1761509381174072800,0.59307275390625,-0.0000034803524613380432,-0.0003336910158395767,-0.0018770694732666016
1761509381194229800,0.613229736328125,0.0012398178223520517,-0.0014125611633062363,0.0016119452193379402
1761509381214386700,0.63338671875,0.0014174138195812702,0.0007501151412725449,-0.002393739763647318
1761509381234544600,0.653544677734375,0.0009743825066834688,-0.0000040978193283081055,0.003748649265617132
1761509381254701800,0.673701904296875,-0.0012363099958747625,0.00045723095536231995,-0.00045916694216430187
1761509381274859800,0.69385986328125,-0.0005023985868319869,-0.0013703284785151482,0.0005239271558821201
1761509381295016700,0.7140166015625,0.06748055666685104,-0.0030132122337818146,-0.00018227752298116684
1761509381315174000,0.734173828125,0.05627048388123512,-0.0008388720452785492,0.0004318144638091326
1761509381335331600,0.75433154296875,0.057655494660139084,0.0009937873110175133,-0.0021202850621193647
1761509381355488800,0.77448876953125,0.05447760969400406,0.004106002859771252,0.00016327504999935627
1761509381375646700,0.794646728515625,0.05191076174378395,0.001325962133705616,-0.0003550923429429531
1761509381395803600,0.8148037109375,0.047089412808418274,0.005392385646700859,-0.0018885938916355371
1761509381415960800,0.8349609375,0.03981820493936539,0.005690781399607658,-0.0034437933936715126
1761509381436118800,0.855118896484375,0.03305511921644211,0.004365540109574795,0.0016409772215411067
1761509381456275700,0.875275634765625,0.028269615024328232,0.0038208123296499252,-0.0027511385269463062
1761509381476433000,0.895432861328125,0.017908217385411263,0.002872808836400509,-0.0031363472808152437
1761509381496590800,0.9155908203125,0.008109246380627155,0.000023239292204380035,-0.00029202504083514214
1761509381516747800,0.935747802734375,0.002206658711656928,0.005319484509527683,0.0007608025334775448
1761509381536905700,0.95590576171875,-0.006399014499038458,0.004006952978670597,-0.0012731519527733326
1761509381557063000,0.97606298828125,-0.017265677452087402,-0.0006120912730693817,0.00019583222456276417
1761509381577219800,0.9962197265625,-0.02357485517859459,0.0007805367931723595,-0.0013079936616122723
1761509381597377800,1.016377685546875,-0.028560107573866844,0.004210670478641987,0.0017100515542551875
1761509381617535000,1.036534912109375,-0.03661743924021721,0.004198851995170116,0.00030687032267451286
1761509381637692700,1.056692626953125,-0.0429895855486393,0.0005085105076432228,0.0004189894534647465
1761509381657849900,1.076849853515625,-0.04735401272773743,0.002031794749200344,0.001573785673826933
1761509381678006500,1.097006591796875,-0.008088061586022377,-0.0004710005596280098,0.0007401665206998587
1761509381698164700,1.117164794921875,0.0005238398443907499,-0.00034365709871053696,-0.0012258314527571201
1761509381718322000,1.137322021484375,-0.0000905513297766447,-0.0008291518315672874,0.0003219975624233484
1761509381738478600,1.157478515625,0.0013071249704807997,-0.0004736734554171562,0.001560928183607757
1761509381758636800,1.17763671875,-0.0019458496244624257,0.00013282150030136108,0.0008412504103034735
1761509381778793700,1.197793701171875,0.000890958821401,-0.00009812694042921066,-0.0019393621478229761
1761509381798952000,1.217951904296875,0.0023526607546955347,0.00041916780173778534,-0.0024823579005897045
1761509381819108600,1.238108642578125,0.0004177710507065058,-0.001584511250257492,0.0006406139582395554
1761509381839265800,1.258265869140625,-0.00008743070065975189,-0.0017962325364351273,0.00131519278511405
1761509381859424000,1.278424072265625,0.0008440215606242418,0.0018314588814973831,-0.000028446083888411522
1761509381879580700,1.29858056640625,0.00014732987619936466,0.0006075240671634674,-0.0019421859178692102
1761509381899739000,1.31873876953125,0.0010430864058434963,0.0005803471431136131,-0.0002250464167445898
1761509381919895600,1.3388955078125,-0.001556104514747858,-0.001202452927827835,-0.000011833151802420616
1761509381940052700,1.359052734375,-0.00039715622551739216,0.0011822469532489777,-0.001989790005609393
1761509381960210700,1.379210693359375,-0.0007860873593017459,0.0008396003395318985,-0.0017173413652926683
1761509381980367600,1.39936767578125,-0.0001784453634172678,0.00011099595576524734,-0.00011955271475017071
1761509382000524800,1.41952490234375,0.002597757615149021,0.0008298158645629883,-0.00241767056286335
1761509382020682500,1.4396826171875,0.0024957379791885614,0.001944500021636486,-0.0023136131931096315
1761509382040839700,1.459839599609375,0.0016258840914815664,0.00035827793180942535,-0.0005763336084783077
1761509382060997600,1.47999755859375,-0.00001272629015147686,-0.0015272228047251701,0.0015361689729616046
1761509382081154600,1.500154541015625,-0.0022388212382793427,-0.0031431270763278008,-0.0018337189685553312
1761509382101311700,1.520311767578125,0.000522807240486145,0.000745152123272419,-0.0002499655820429325
1761509382121469700,1.5404697265625,0.0003709744196385145,0.001812046393752098,-0.0010647103190422058
1761509382141626600,1.560626708984375,0.0006910767406225204,0.0009980425238609314,0.00041547627188265324
1761509382161783800,1.58078369140625,-0.0013846184592694044,-0.000780891627073288,0.0005018962547183037
1761509382181941800,1.600941650390625,0.0015796807128936052,-0.0017356965690851212,-0.000284143490716815
1761509382202098700,1.6210986328125,-0.000382564845494926,-0.0015476690605282784,-0.0014682116452604532
1761509382222256600,1.641256591796875,0.0002423478290438652,0.0007378729060292244,-0.0006848901975899935
1761509382242413600,1.66141357421875,0.002278255531564355,-0.0008117705583572388,-0.00007913005538284779
1761509382262570500,1.681570556640625,-0.001976569416001439,0.00028658192604780197,-0.00012444774620234966
1761509382282728700,1.701728759765625,-0.0001428104005753994,-0.001185043714940548,-0.00018390431068837643
1761509382302885600,1.7218857421875,0.0005368206184357405,0.0002435930073261261,0.00025395327247679234
1761509382323043600,1.742043701171875,-0.0003897144924849272,-0.0003366498276591301,-0.0012057272251695395
1761509382343200800,1.76220068359375,-0.0009443325689062476,0.0018981043249368668,-0.0017914725467562675
1761509382363357400,1.782357421875,-0.0023754104040563107,0.0014613140374422073,0.003338712966069579
1761509382383515600,1.802515625,-0.0014240443706512451,-0.0005565322935581207,-0.0005701477639377117
1761509382403672600,1.822672607421875,-0.00031087303068488836,-0.0015790648758411407,-0.0008094965014606714
1761509382423829500,1.84282958984375,0.00014480133540928364,-0.00018016621470451355,-0.0004726969636976719
1761509382443987700,1.86298779296875,-0.00030735728796571493,0.00008165836334228516,-0.0010283493902534246
1761509382464144600,1.88314453125,0.0012387249153107405,-0.0007668202742934227,-0.00011901254765689373
1761509382484302600,1.903302490234375,0.0013296171091496944,0.0007898127660155296,0.0010693774092942476
1761509382504459500,1.92345947265625,-0.0013023114297538996,-0.0011115707457065582,-0.0007269859779626131
1761509382524616700,1.94361669921875,0.00038079521618783474,0.0010908041149377823,0.0011088962201029062
1761509382544774700,1.963774658203125,0.0010175122879445553,-0.0017683710902929306,-0.0007767938077449799
1761509382564931600,1.983931640625,-0.0004459371557459235,-0.000021818093955516815,-0.00032771239057183266
1761509382585088800,2.0040888671875,0.001233887393027544,0.0017358548939228058,0.0014314453583210707
1761509382605246500,2.02424658203125,-0.0023647809866815805,-0.0013808878138661385,0.001722727669402957
1761509382625403600,2.044403564453125,0.0005307144019752741,-0.0006860624998807907,-0.003093134379014373
1761509382645561600,2.0645615234375,-0.0036801770329475403,-0.00014695990830659866,0.001043600495904684
1761509382665718500,2.084718505859375,0.002363279927521944,-0.0014888830482959747,-0.0013458502944558859
1761509382685875700,2.104875732421875,-0.0025276460219174623,0.0008237166330218315,-0.002050744602456689
1761509382706033700,2.12503369140625,-0.0007604823913425207,-0.000341903418302536,0.0017869542352855206
1761509382726190600,2.145190673828125,0.0008446949068456888,-0.0014813272282481194,-0.0009800528641790152
1761509382746347800,2.16534765625,-0.0010279577691107988,0.0015362156555056572,-0.00033510313369333744
1761509382766505700,2.185505615234375,-0.0010404838249087334,-0.0018184082582592964,-0.00009566661901772022
1761509382786662700,2.20566259765625,0.00016665575094521046,0.00039972271770238876,0.00018707686103880405
1761509382806820600,2.225820556640625,-0.002241602400317788,-0.0002456456422805786,0.00014959834516048431
1761509382826977800,2.245977783203125,0.00025239051319658756,0.0004469864070415497,-0.0021749003790318966
1761509382847134500,2.266134521484375,0.0013317421544343233,-0.0013547362759709358,-0.0021946101915091276
1761509382867292700,2.286292724609375,-0.0012760200770571828,0.0001088576391339302,-0.0008473924826830626
1761509382887449900,2.306449951171875,-0.0013257288374006748,0.004209429956972599,0.0015408725012093782
1761509382907607600,2.326607666015625,-0.0016749040223658085,0.00097719207406044,-0.0001536947675049305
1761509382927764700,2.3467646484375,-0.0013581349048763514,-0.0004789009690284729,0.0018484320025891066
1761509382947921700,2.366921630859375,-0.0023682215251028538,-0.0011749640107154846,-0.0010967422276735306
1761509382968079600,2.38707958984375,0.0025814345572143793,-0.0012924447655677795,0.0006993005517870188
1761509382988236500,2.407236572265625,0.0006451949011534452,-0.001404888927936554,0.001794659299775958
1761509383008394200,2.427394287109375,0.0014639121945947409,0.0024862131103873253,0.001695366925559938
1761509383028552000,2.447552001953125,-0.0021400146652013063,0.0017551044002175331,-0.002550457837060094
1761509383048709000,2.467709228515625,0.0006201807409524918,0.0005019586533308029,-0.0003448349889367819
1761509383068867300,2.487867431640625,-0.0013144169934093952,-0.004419248551130295,-0.0021196557208895683
1761509383089024000,2.50802392578125,0.0011921946424990892,0.000056862831115722656,0.0006575649604201317
1761509383109181200,2.52818115234375,-0.0008762544021010399,-0.00013026129454374313,0.0034649602603167295
1761509383129339100,2.548339111328125,-0.00007029622793197632,0.0008539669215679169,0.002613391960039735
1761509383149496000,2.56849609375,-0.002086927415803075,-0.0008175019174814224,0.00008049746975302696
1761509383169653200,2.5886533203125,-0.0005847632419317961,0.0007450291886925697,-0.0013248235918581486
1761509383189811200,2.608811279296875,0.001304024364799261,0.0010830052196979523,0.0037534974981099367
1761509383209968000,2.628968017578125,-0.0008559365523979068,0.00037264544516801834,-0.0005178684368729591
1761509383230126000,2.6491259765625,0.000049300724640488625,-0.0004543997347354889,0.0007837496232241392
1761509383250283300,2.669283203125,0.0004931758157908916,-0.0013722684234380722,-0.0007933934684842825
1761509383270440200,2.689440185546875,0.00028665177524089813,-0.0006877006962895393,0.0020101231057196856
1761509383290598100,2.70959814453125,-0.0023051812313497066,-0.0009582927450537682,-0.00022329902276396751
1761509383310755300,2.72975537109375,-0.00015772506594657898,0.0013019200414419174,0.00003189104609191418
1761509383330912000,2.749912109375,-0.0011641349410638213,0.0019123032689094543,0.00006990786641836166
1761509383351070200,2.7700703125,-0.001032656291499734,0.0013377107679843903,-0.0010070714633911848
1761509383371227100,2.79022705078125,0.001962605630978942,0.0009630536660552025,-0.0010000360198318958
1761509383391385000,2.810385009765625,0.0012977274600416422,0.0011401288211345673,0.00004715961404144764
1761509383411542300,2.830542236328125,-0.0010567621793597937,0.0003737490624189377,0.0005012964829802513
1761509383431699000,2.850698974609375,-0.003560140496119857,-0.0010466007515788078,0.0005774423480033875
1761509383451857200,2.870857177734375,0.0006328355520963669,0.001729663461446762,0.0004007078241556883
1761509383472014000,2.89101416015625,0.0011187759228050709,0.001121952198445797,0.0013814710546284914
1761509383492171000,2.9111708984375,0.0006477718707174063,0.0008779335767030716,-0.003211019095033407
1761509383512329200,2.9313291015625,-0.0000821456778794527,0.0007523009553551674,-0.0009358807001262903
1761509383532486100,2.951486083984375,-0.00019754748791456223,0.0020808950066566467,0.002822742098942399
1761509383552644400,2.971644287109375,0.0017892532050609589,0.0021756887435913086,-0.002592193428426981
1761509383572801000,2.991801025390625,-0.0022308065090328455,0.00032103899866342545,-0.001851170090958476
1761509383592958200,3.011958251953125,0.0006421194411814213,-0.0015081921592354774,0.0006272229366004467
1761509383613116000,3.032115966796875,0.00006196810863912106,-0.0006998730823397636,-0.0004242677241563797
1761509383633273000,3.052273193359375,-0.000542969792149961,-0.000654720701277256,0.0005981507711112499
1761509383653431300,3.072431396484375,0.000030277296900749207,0.0014973348006606102,0.00035377731546759605
1761509383673588000,3.092587890625,0.0011065879371017218,-0.0005071377381682396,-0.0007702696602791548
1761509383693745200,3.1127451171875,-0.0010260194540023804,0.0023219026625156403,-0.00022785738110542297
1761509383713903000,3.132903076171875,-0.0011935920920222998,-0.0022976696491241455,0.0017934299539774656
1761509383734060000,3.15306005859375,0.0010207777377218008,0.0010001622140407562,-0.0013484193477779627
1761509383754217200,3.17321728515625,0.001937520457431674,-0.0009701438248157501,0.0000708696898072958
1761509383774375200,3.193375244140625,0.0014833137392997742,0.002007553353905678,0.00010229786857962608
1761509383794532000,3.213531982421875,0.0013243225403130054,0.0021673236042261124,0.00001748860813677311
1761509383814690000,3.23368994140625,0.0010083143133670092,-0.0017111031338572502,-0.0011190192308276892
1761509383834847200,3.25384716796875,-0.0007361092139035463,-0.002056742087006569,0.002906651236116886
1761509383855004200,3.274004150390625,0.00035238894633948803,0.0031312722712755203,0.0005847262218594551
1761509383875162000,3.294162109375,-0.0005795974284410477,-0.001113101840019226,-0.0012131563853472471
1761509383895319300,3.3143193359375,0.0014112703502178192,-0.00032772403210401535,-0.0008508558385074139
1761509383915476000,3.33447607421875,0.000038682715967297554,-0.0006516333669424057,0.000927159795537591
1761509383935634200,3.35463427734375,0.0002647172659635544,0.000832688994705677,0.001211704919114709
1761509383955791400,3.374791259765625,0.0012873050291091204,-0.00033392105251550674,-0.000241805799305439
1761509383975949000,3.394948974609375,0.0010708924382925034,0.0009257374331355095,-0.002333883661776781
1761509383996106200,3.415106201171875,-0.00027695484459400177,0.0003225356340408325,0.000667894259095192
1761509384016262700,3.4352626953125,0.0010065201204270124,0.0006414530798792839,-0.002927875379100442
1761509384036420900,3.4554208984375,0.0009296657517552376,-0.001978173851966858,0.0013996008783578873
1761509384056578000,3.475578125,0.00004583224654197693,0.0012609688565135002,0.00048544839955866337
1761509384076734700,3.495734619140625,-0.0004622462438419461,0.000048483721911907196,-0.004098242148756981
1761509384096893000,3.515892822265625,-0.0007102605886757374,-0.0015615327283740044,0.0003363317809998989
1761509384117049900,3.5360498046875,-0.0009283315157517791,0.0009069414809346199,0.0005384758114814758
1761509384137208000,3.5562080078125,-0.0012069863732904196,0.0008432874456048012,0.00023416941985487938
1761509384157364700,3.57636474609375,-0.00029291328974068165,-0.0007696691900491714,0.002164015546441078
1761509384177522000,3.59652197265625,-0.0005276909796521068,0.00008030887693166733,0.0022718473337590694
1761509384197679900,3.616679931640625,0.0010541246738284826,0.0008008172735571861,0.0000024260953068733215
1761509384217836800,3.6368369140625,0.0023648396600037813,0.0006080549210309982,0.0004364033229649067
1761509384237994000,3.656993896484375,-0.0018173526041209698,0.0005624555051326752,-0.0005716735031455755
1761509384258151700,3.677151611328125,-0.0005235043354332447,0.00010767299681901932,-0.0030894216615706682
1761509384278308900,3.697308837890625,-0.00008311239071190357,-0.0015767542645335197,0.0011045027058571577
1761509384298466800,3.717466796875,-0.00008373125456273556,0.001250697299838066,0.00003704125992953777
1761509384318623700,3.737623779296875,-0.001308366423472762,-0.0003877226263284683,0.0003062610048800707
1761509384338781000,3.757781005859375,-0.001448010909371078,0.000536058098077774,0.0028876655269414186
1761509384358939000,3.77793896484375,0.0001629968173801899,-0.00035476498305797577,0.0004319653380662203
1761509384379095800,3.798095703125,-0.0009757635416463017,-0.0016972990706562996,0.0007626120932400227
1761509384399253000,3.8182529296875,0.000587601913139224,-0.001048077829182148,-0.0011976314708590508
1761509384419411000,3.838410888671875,-0.0007151053287088871,0.0009687924757599831,-0.0021900467108935118
1761509384439568000,3.85856787109375,-0.0006014836253598332,-0.0008470052853226662,0.00036532129161059856
1761509384459725800,3.878725830078125,0.0030277054756879807,0.0007146624848246574,-0.0014581307768821716
1761509384479883000,3.898883056640625,0.0024295486509799957,0.00044377800077199936,-0.00027179718017578125
1761509384500040000,3.9190400390625,0.000033751362934708595,0.0011329716071486473,0.0005058120004832745
1761509384520198000,3.939197998046875,-0.0016841946635395288,0.0034668641164898872,-0.0021553654223680496
1761509384540355000,3.95935498046875,-0.0010424350621178746,0.0005439398810267448,0.0015258716885000467
1761509384560511700,3.97951171875,0.0009552955161780119,0.0005213702097535133,0.0012066871859133244
1761509384580670000,3.999669921875,0.0014251463580876589,-0.002007502131164074,-0.0007132294122129679
1761509384600827000,4.019826904296875,-0.00048564234748482704,0.0015458948910236359,-0.0005426155403256416
1761509384620984800,4.03998486328125,0.0010629412718117237,-0.0010728659108281136,-0.001205582870170474
1761509384641142000,4.06014208984375,0.00022904365323483944,-0.0023902524262666702,-0.00011792941950261593
1761509384661299000,4.080298828125,-0.0012860239949077368,0.002270798198878765,0.00439661368727684
1761509384681457000,4.100456787109375,0.00031674886122345924,-0.0017823679372668266,0.00011399318464100361
1761509384701613800,4.12061376953125,0.002471808111295104,-0.002050061710178852,0.000772048719227314
1761509384721772000,4.14077197265625,-0.0009021958103403449,0.0003797616809606552,-0.00035296427085995674
1761509384741928700,4.1609287109375,-0.0009286920540034771,-8.856877684593201e-7,0.0017634961986914277
1761509384762086000,4.1810859375,0.0013746442273259163,-0.0019791042432188988,0.0003943725023418665
1761509384782243800,4.201243896484375,-0.0005581247387453914,0.000338640995323658,-0.0005734437145292759
1761509384802400800,4.22140087890625,-0.0012113454286009073,-0.0013147098943591118,-0.00027971877716481686
1761509384822558000,4.241557861328125,0.0020554177463054657,-0.0009474689140915871,0.0018249759450554848
1761509384842716000,4.2617158203125,-0.001326510333456099,-0.0019023353233933449,0.0014228313229978085
1761509384862872800,4.281872802734375,-0.0003938433947041631,0.0008974624797701836,0.0013140335213392973
1761509384883030800,4.30203076171875,-0.0013308905763551593,-0.0011334298178553581,0.0006856871768832207
1761509384903188000,4.32218798828125,-0.0009080850286409259,-0.0010932059958577156,-0.0020991337951272726
1761509384923345000,4.342344970703125,0.000545745249837637,0.001188649795949459,-0.000024679582566022873
1761509384943502800,4.3625029296875,-0.0005691364640370011,0.000964445061981678,-0.001864275662228465
1761509384963660000,4.382659912109375,0.00015792623162269592,0.0019882889464497566,0.0004236367531120777
1761509384983817000,4.40281689453125,-0.00004347111098468304,-0.001778709702193737,0.0015770953614264727
1761509385003975000,4.422974853515625,0.00033901561982929707,-0.0010033966973423958,0.0010889284312725067
1761509385024135000,4.443135009765625,0.00003313925117254257,0.00007330812513828278,-0.0007934942841529846
1761509385044292900,4.46329296875,-0.000199037604033947,-0.00044834334403276443,0.0005877988878637552
1761509385064450000,4.483449951171875,-0.00021405681036412716,0.0010798107832670212,-0.00019790930673480034
1761509385084607000,4.50360693359375,-0.0009635175811126828,0.00009414553642272949,0.0017897691577672958
1761509385104765000,4.523764892578125,0.001966022187843919,-0.00015417207032442093,-0.0022613871842622757
1761509385124922000,4.543922119140625,0.0005706169176846743,-0.00012415088713169098,-0.0007185619324445724
1761509385145078800,4.564078857421875,-0.001225898857228458,-0.0007687797769904137,-0.0006693350151181221
1761509385165237000,4.584237060546875,0.00034576025791466236,0.0018043853342533112,0.0016589740989729762
1761509385185394200,4.604394287109375,-0.0006407136097550392,0.0006785616278648376,-0.002148824743926525
1761509385205551900,4.6245517578125,0.0003281680401414633,0.0005387188866734505,-0.0009196200408041477
1761509385225709000,4.644708984375,-0.001644321484491229,-0.0011848807334899902,0.001382484333589673
1761509385245865000,4.664864990234375,0.002503627212718129,0.00044729840010404587,-0.000787325669080019
1761509385266022000,4.68502197265625,-0.000026210444048047066,0.001014971174299717,0.00182915769983083
1761509385286178800,4.7051787109375,-0.0012078473810106516,0.0009276755154132843,0.00033241743221879005
1761509385306336800,4.725336669921875,0.0009244545362889767,0.00042272917926311493,-0.0010968423448503017
1761509385326494000,4.745493896484375,-0.0008032834157347679,0.0012143086642026901,-0.00553029403090477
1761509385346652000,4.76565185546875,-0.0004653817741200328,-0.0009685838595032692,-0.0006335291545838118
1761509385366808800,4.785808837890625,-0.0016181881073862314,0.002022956497967243,-0.0007715297397226095
1761509385386966000,4.805966064453125,0.0005154360551387072,0.0028026578947901726,0.001282734563574195
1761509385407124000,4.8261240234375,0.0004117167554795742,-0.0021084509789943695,-0.0010426195804029703
1761509385427281000,4.846281005859375,-0.002195303328335285,-0.005668431520462036,0.0011400401126593351
1761509385447438800,4.86643896484375,0.0002596138510853052,-0.00007454399019479752,0.00023273611441254616
1761509385467595800,4.886595703125,-0.0016662685666233301,0.003033706918358803,0.00267832656390965
1761509385487753000,4.9067529296875,-0.00036169146187603474,0.001415523700416088,0.002098938450217247
1761509385507911000,4.926910888671875,0.0024856403470039368,-0.00023262854665517807,0.0006599912885576487
1761509385528067800,4.94706787109375,0.00013886415399610996,-0.002339668571949005,-0.0014216704294085503
1761509385548225000,4.96722509765625,0.0009637726470828056,-0.001218847930431366,0.0008807361591607332
1761509385568383000,4.987383056640625,-0.00249661598354578,0.000055625103414058685,-0.0013935572933405638
1761509385588540000,5.007539794921875,-0.003724117064848542,0.0021397583186626434,-0.0016500239726155996
1761509385608697900,5.02769775390625,0.00031891255639493465,-0.0019172588363289833,-0.0014690062962472439
1761509385628855000,5.04785498046875,0.00024791294708848,0.002581571228802204,0.0004271713551133871
1761509385649012000,5.068011962890625,0.00038530980236828327,-0.002287612296640873,-0.0016861879266798496
1761509385669171000,5.0881708984375,0.0006126461084932089,0.00037372391670942307,-0.0008886072319000959
1761509385689327900,5.108327880859375,0.0006822578143328428,0.00009705591946840286,-0.0020564470905810595
1761509385709484800,5.12848486328125,-0.0017443429678678513,0.001615213230252266,-0.0010074367746710777
1761509385729642800,5.148642822265625,-0.001688757911324501,0.0030375998467206955,0.00008920300751924515
1761509385749800000,5.168800048828125,0.0007533163297921419,0.00035195332020521164,0.003134793136268854
1761509385769956900,5.188956787109375,-0.0025181141681969166,-0.0017546359449625015,0.0008297888562083244
1761509385790114800,5.20911474609375,-0.0002873125486075878,0.00020761415362358093,-0.0005368245765566826
1761509385810272000,5.22927197265625,-0.0018926855409517884,0.0005047442391514778,0.0024607921950519085
1761509385830430000,5.249429931640625,-0.00018546823412179947,0.00027208682149648666,0.001396562671288848
1761509385850587000,5.2695869140625,-0.0026098869275301695,-0.0016481764614582062,0.002179553732275963
1761509385870744000,5.289744140625,-0.0014822044176980853,-0.0002595093101263046,0.00042710592970252037
1761509385890902000,5.309902099609375,-0.0015497223939746618,-0.000941302627325058,0.0014252581167966127
1761509385911059000,5.330058837890625,0.0012950440868735313,0.0008499938994646072,0.003409820608794689
1761509385931216100,5.350216064453125,0.00008787494152784348,0.00016212929040193558,0.00048731081187725067
1761509385951373800,5.370373779296875,0.0006321640685200691,-0.0012935586273670197,-0.0008269730024039745
1761509385971531000,5.390531005859375,-0.0021169385872781277,0.00014688726514577866,-0.00022180890664458275
1761509385991689000,5.41068896484375,0.0007489628624171019,0.0008830949664115906,0.0008051041513681412
1761509386011846100,5.43084619140625,-0.0013522121589630842,0.0034521780908107758,-0.0012793268542736769
1761509386032003000,5.451003173828125,0.0010982349049299955,-0.0039130160585045815,-0.0012488076463341713
1761509386052161300,5.471161376953125,0.0005152102094143629,0.002245708368718624,0.001655741361901164
1761509386072318000,5.49131787109375,0.0013167853467166424,-0.0010967450216412544,-0.0004339977167546749
1761509386092476200,5.51147607421875,-0.001040966366417706,0.0001408252865076065,0.0010673429351300001
1761509386112633300,5.53163330078125,-0.0006239244248718023,0.0020476048812270164,-0.0001665824092924595
1761509386132790000,5.5517900390625,0.0011783030349761248,-0.000028102658689022064,0.0013313263189047575
1761509386152948200,5.5719482421875,0.00017259293235838413,0.00035292841494083405,-0.0005384823307394981
1761509386173105200,5.592105224609375,-0.0014723057392984629,0.00032082851976156235,-0.0013957947958260775
1761509386193262000,5.612261962890625,0.0002052350901067257,-0.0007893713191151619,0.0012725281994789839
1761509386213420000,5.632419921875,-0.0000368563923984766,-0.0017675748094916344,-0.0016643251292407513
1761509386233577200,5.6525771484375,0.0011117875110358,0.0010174131020903587,-0.0023416990879923105
1761509386253735200,5.672735107421875,-0.000059363897889852524,0.0014772247523069382,-0.000003914115950465202
1761509386273892000,5.69289208984375,-0.0014069757889956236,-0.001560593955218792,-0.0021442053839564323
1761509386294049000,5.713049072265625,-0.00005102553404867649,-0.0004226658493280411,-0.000015373574569821358
1761509386314207000,5.73320703125,-0.00035615358501672745,-0.0015388550236821175,0.0008362655062228441
1761509386334364200,5.7533642578125,-0.0026207170449197292,0.001053718850016594,0.0006531116086989641
1761509386354522000,5.773522216796875,-0.00043180142529308796,-0.0030374275520443916,-0.00015452713705599308
1761509386374679000,5.793678955078125,-0.001151168835349381,-0.0031489795073866844,0.0018441545544192195
1761509386394836200,5.813836181640625,0.0005006957799196243,-0.0004918072372674942,-0.0010500678326934576
1761509386414994200,5.833994140625,-0.0026793559081852436,-0.0018413783982396126,-0.00020284787751734257
1761509386435151000,5.854151123046875,-0.0008189762011170387,-0.001943693496286869,-0.002232437953352928
1761509386455308300,5.874308349609375,0.0004183396231383085,-0.0002647498622536659,-0.00034732185304164886
1761509386475466200,5.89446630859375,0.003215990960597992,0.0006888527423143387,-0.0015546765644103289
1761509386495623200,5.914623046875,0.0012199217453598976,0.0008101575076580048,-0.0015811866614967585
1761509386515781000,5.934781005859375,-0.0013235937803983688,-0.0003282995894551277,-0.0009250384755432606
1761509386535938000,5.95493798828125,-0.000709253828972578,-0.0020501287654042244,0.000006642891094088554
1761509386556095200,5.97509521484375,-0.0015728352591395378,0.0013898974284529686,-0.0011516108643263578
1761509386576253200,5.995253173828125,-0.00044784892816096544,-0.0008918773382902145,-0.0008635509293526411
1761509386596410000,6.01541015625,0.002400166355073452,-0.00009920541197061539,-0.001922608818858862
1761509386616568000,6.035568115234375,0.0033724727109074593,-0.0013375766575336456,-0.00039057759568095207
1761509386636725200,6.055725341796875,-0.0002140859141945839,-0.00345478393137455,0.0015833440702408552
1761509386656882000,6.0758818359375,-0.0008522380376234651,0.0013315165415406227,-0.0011194527614861727
1761509386677040000,6.0960400390625,0.00042429473251104355,-0.00015983358025550842,-0.002376324962824583
1761509386697197300,6.116197265625,-0.001862701028585434,0.0007328987121582031,-0.00034011341631412506
1761509386717354000,6.13635400390625,-0.0023691493552178144,0.0007460890337824821,-0.0006963631603866816
1761509386737512200,6.15651220703125,0.001954443985596299,-0.0012005353346467018,-0.0007249475456774235
1761509386757669000,6.176669189453125,-0.0004547601565718651,-0.0006117522716522217,-0.0024968686047941446
1761509386777827000,6.1968271484375,-0.001141499844379723,-0.0009916722774505615,0.0005226575303822756
1761509386797984000,6.21698388671875,0.0014958051033318043,-0.001226102001965046,-0.001238883240148425
1761509386818141200,6.23714111328125,-0.0009946785867214203,0.001682971604168415,0.0007408072706311941
1761509386838299100,6.257299072265625,-0.0007421481423079967,0.0009882301092147827,-0.0013574748300015926
1761509386858456000,6.2774560546875,0.0009547220543026924,0.0007771765813231468,-0.0005328941624611616
1761509386878614300,6.2976142578125,-0.0008684308268129826,0.0008677318692207336,0.0000028708018362522125
1761509386898771000,6.31777099609375,0.001394390594214201,0.0003779008984565735,-0.00012778746895492077
1761509386918928100,6.33792822265625,0.0005164530593901873,-0.0013002101331949234,0.0020996921230107546
1761509386939086000,6.358086181640625,-0.0002145669423043728,0.0009184125810861588,0.00031512370333075523
1761509386959243000,6.378242919921875,-0.0009574342984706163,0.00021866895258426666,-0.00011831684969365597
1761509386979400200,6.398400146484375,0.0005207594949752092,-0.0007123323157429695,0.0008802029769867659
1761509386999558100,6.41855810546875,0.002603902481496334,0.0007213642820715904,-0.0013249707408249378
1761509387019711500,6.43871142578125,0.00030743260867893696,0.0003694528713822365,0.0019788991194218397
1761509387039869200,6.458869140625,0.001843834761530161,0.001348092220723629,0.0004350722301751375
1761509387060026400,6.4790263671875,0.00024243630468845367,-0.000353790819644928,0.002502928487956524
1761509387080183600,6.49918359375,0.0023256498388946056,0.00033015478402376175,-0.0011801687069237232
1761509387100341200,6.51934130859375,-0.000849301228299737,-0.0009936317801475525,0.000024525215849280357
1761509387120498400,6.53949853515625,0.0001702234148979187,-0.00023118127137422562,-0.0025075150188058615
1761509387140656400,6.559656494140625,0.0004576717037707567,0.000001453794538974762,0.00043588364496827126
1761509387160813300,6.579813232421875,0.000059613026678562164,-0.00023173727095127106,0.001757694990374148
1761509387180970500,6.599970458984375,0.0018530208617448807,0.0010840026661753654,0.0015349226305261254
1761509387201128400,6.62012841796875,0.0010877845343202353,-0.0025997934862971306,-0.0017551465425640345
1761509387221285400,6.640285400390625,-0.0005831813905388117,-0.0016120169311761856,0.00016908464021980762
1761509387241442600,6.660442626953125,0.00007687089964747429,0.0008582975715398788,0.0003507533110678196
1761509387261600500,6.6806005859375,-0.002601773012429476,-0.0005240915343165398,-0.0014248027000576258
1761509387281757400,6.70075732421875,0.001382550923153758,-0.0010417792946100235,-0.0030543452594429255
1761509387301915400,6.720915283203125,-0.0009915967239066958,0.00011296477168798447,-0.0007860602345317602
1761509387322072600,6.741072509765625,0.00008383556269109249,0.0006618890911340714,-0.0008099542465060949
1761509387342229200,6.761229248046875,0.0003898376598954201,-0.0006885165348649025,0.000047194771468639374
1761509387362387500,6.781387451171875,0.0014399923384189606,0.001966973766684532,-0.0011519868858158588
1761509387382544400,6.80154443359375,-0.0007853363640606403,-0.00015300419181585312,-0.0008391398005187511
1761509387402702300,6.821702392578125,-0.0013650848995894194,0.001512298360466957,-0.00016315467655658722
1761509387422859500,6.841859619140625,0.002346525201573968,-0.002256612293422222,-0.0023255455307662487
1761509387443016200,6.86201611328125,-0.0014822708908468485,-0.0002949945628643036,0.00010964763350784779
1761509387463174400,6.88217431640625,0.000551159493625164,-0.0007912702858448029,0.002075431402772665
1761509387483331300,6.902331298828125,0.001647183671593666,0.00010745320469141006,0.0006926560308784246
1761509387503489500,6.922489501953125,-0.001284505007788539,-0.0008009420707821846,0.0014787297695875168
1761509387523646500,6.942646484375,0.000004498055204749107,0.0011741416528820992,0.000492913881316781
1761509387543803400,6.962803466796875,0.0012159598991274834,0.00020386837422847748,-0.00035047600977122784
1761509387563961600,6.982961669921875,0.000021286774426698685,-0.00012066308408975601,-0.0002554443199187517
1761509387584118300,7.0031181640625,0.000499979592859745,-0.0012642815709114075,0.0003350155893713236
1761509387604275500,7.023275390625,0.000790557824075222,-0.0020043961703777313,-0.0024702022783458233
1761509387624433200,7.04343310546875,0.0019599623046815395,-0.00036807358264923096,0.0011344309896230698
1761509387644590300,7.06359033203125,-0.0002777653280645609,-0.0003469036892056465,0.0007128003053367138
1761509387664748500,7.08374853515625,-0.00024217180907726288,0.0003740154206752777,0.0028054413851350546
1761509387684905200,7.1039052734375,0.0018362435512244701,0.00032001547515392303,0.0026180194690823555
1761509387705062400,7.1240625,0.001471170224249363,0.0005009165033698082,-0.0019289168994873762
1761509387725220400,7.144220458984375,0.0004212646745145321,-0.00039498601108789444,-0.00243054679594934
1761509387745377300,7.164377197265625,0.000976676121354103,-0.0014247549697756767,0.00013415771536529064
1761509387765535200,7.18453515625,-0.002382060280069709,-0.0016968855634331703,-0.00011935248039662838
1761509387785692400,7.2046923828125,0.0004494201857596636,0.0007460322231054306,-0.0010200552642345428
1761509387805849300,7.224849365234375,-0.0007415348663926125,-0.0009516282007098198,0.00022734818048775196
1761509387826007300,7.24500732421875,-0.00015550944954156876,-0.00018992554396390915,0.0007868695538491011
1761509387846164500,7.26516455078125,0.0015148890670388937,0.0013789087533950806,0.00011551426723599434
1761509387866322200,7.285322265625,-0.001525334781035781,0.0017488235607743263,0.00022632419131696224
1761509387886479400,7.305479248046875,-0.0003753465134650469,-0.00046718306839466095,-0.00015718908980488777
1761509387906636500,7.325636474609375,0.00019112508744001389,0.0002479925751686096,-0.0011887336149811745
1761509387926794200,7.345794189453125,-0.0018659105990082026,0.002128882333636284,0.000004669884219765663
1761509387946951400,7.365951416015625,0.0017622718587517738,0.0018753297626972198,-0.0012490374501794577
1761509387967109400,7.386109375,0.0012985530775040388,0.001593301072716713,0.0016686278395354748
1761509387987266300,7.406266357421875,-0.0005987143376842141,-0.0008633369579911232,-0.0018762401305139065
1761509388007423500,7.426423583984375,-0.001145558780990541,-0.0012551499530673027,0.00022463547065854073
1761509388027581700,7.446581787109375,-0.0019143964163959026,-0.001264696940779686,-0.00026714708656072617
1761509388047739000,7.46673876953125,-0.0021188477985560894,0.0006590690463781357,-0.00014129281044006348
1761509388067895600,7.4868955078125,0.0007837603334337473,0.00042896904051303864,-0.0011849398724734783
1761509388088053800,7.5070537109375,0.001186372246593237,-0.000003787688910961151,0.0028540589846670628
1761509388108210700,7.527210693359375,0.0033711460418999195,0.0012301774695515633,0.002460124436765909
1761509388128369000,7.547368896484375,-0.000059993937611579895,-0.0013418765738606453,0.0005254608113318682
1761509388148525800,7.56752587890625,-0.0011961169075220823,-0.0009497767314314842,0.00005546817556023598
1761509388168682800,7.587682861328125,-0.0008134208619594574,-0.000009634532034397125,0.00027584447525441647
1761509388188841000,7.607841064453125,0.000019373837858438492,0.0005992045626044273,0.0019143879180774093
1761509388208997600,7.62799755859375,0.00007647369056940079,0.0005654795095324516,-0.00019130995497107506
1761509388229155800,7.64815576171875,0.0008965311571955681,0.0022894563153386116,0.0028262559790164232
1761509388249312800,7.668312744140625,-0.00025194045156240463,0.000701606273651123,-0.0012871320359408855
1761509388269469700,7.6884697265625,0.0023070599418133497,-0.0023640915751457214,0.002215744461864233
1761509388289628000,7.7086279296875,-0.0023649197537451982,0.0004292568191885948,0.0017204413888975978
1761509388309784600,7.72878466796875,-0.0002405147533863783,0.000452456995844841,-0.0002781432121992111
1761509388329942800,7.74894287109375,-0.0015284856781363487,-0.00007139332592487335,-0.0006317826919257641
1761509388350099700,7.769099609375,0.0025334551464766264,0.00045830290764570236,-0.002261249115690589
1761509388370256600,7.789256591796875,0.0011736871674656868,-0.0001497417688369751,0.0016703673172742128
1761509388390414600,7.80941455078125,0.0009301453828811646,0.003052506595849991,0.001500635058619082
1761509388410571800,7.82957177734375,-0.00314295943826437,-0.0010148482397198677,0.0008521587587893009
1761509388430730000,7.84972998046875,-0.00019646272994577885,-0.0018934793770313263,-0.001092113321647048
1761509388450886700,7.86988671875,0.0009718171786516905,-0.0023928117007017136,0.001424690242856741
1761509388471043800,7.8900439453125,-0.00017499038949608803,-0.0008661169558763504,0.0016774366376921535
1761509388491201800,7.910201904296875,-0.0011813060846179724,0.00018205679953098297,0.00032533123157918453
1761509388511358700,7.930358642578125,0.0008175114635378122,0.001159043051302433,-0.0001208968460559845
1761509388531516700,7.9505166015625,-0.0012299773516133428,-0.001974819228053093,-0.0011248965747654438
1761509388551673600,7.970673583984375,0.0008520963601768017,-0.001379089429974556,0.0012558207381516695
1761509388571830800,7.990830810546875,-0.0006374857621267438,-0.0016159815713763237,0.000311816344037652
1761509388591988700,8.01098876953125,-0.0005564352031797171,-0.00034647807478904724,0.0004600516986101866
1761509388612145700,8.031145751953124,0.0010208489838987589,0.000654890201985836,-0.000053327763453125954
1761509388632303600,8.0513037109375,0.00010527065023779869,-0.003100952133536339,-0.001438306411728263
1761509388652460800,8.071460693359375,0.0006763681303709745,-0.0003604106605052948,0.0005929998587816954
1761509388672617700,8.09161767578125,-0.0002952509094029665,-0.001705879345536232,-0.0012183855287730694
1761509388692775700,8.111775634765625,-0.00102769467048347,0.000710110180079937,0.0017095941584557295
1761509388712932900,8.131932861328124,-0.0023948652669787407,-0.001225331798195839,0.002561392495408654
1761509388733089800,8.15208984375,-0.0005388695280998945,0.00005658436566591263,0.0017685118364170194
1761509388753247700,8.172247802734375,-0.0008257399313151836,0.0002321135252714157,0.0007300779689103365
1761509388773405000,8.192405029296875,0.00020813988521695137,-0.0014639822766184807,0.0008858817163854837
1761509388793562600,8.212562744140625,0.0024189099203795195,0.00019957683980464935,0.0004930165596306324
1761509388813719800,8.2327197265625,-0.0013305186294019222,-0.00036049913614988327,0.0008413637988269329
1761509388833876700,8.252876708984376,0.0010086088441312313,-0.002022959291934967,0.0007993136532604694
1761509388854034700,8.27303466796875,-0.00026303238701075315,0.0006895363330841064,0.001557879731990397
1761509388874192000,8.29319189453125,-0.0003532243426889181,-0.001310816965997219,0.0013925624080002308
1761509388894349800,8.313349853515625,0.0008737146854400635,0.001431640237569809,-0.0013252259232103825
1761509388914506800,8.3335068359375,0.0007430256810039282,0.0014751171693205833,0.0003402631264179945
1761509388934663700,8.35366357421875,0.0006547116208821535,-0.0015748264268040657,-0.0022304519079625607
1761509388954822000,8.37382177734375,-0.0010487890103831887,0.0009983005002140999,-0.0016109792049974203
1761509388974978600,8.393978515625,0.00034149247221648693,0.0019290754571557045,-0.0009660411160439253
1761509388995136800,8.41413671875,0.00003326660953462124,-0.0015207566320896149,0.0011711667757481337
1761509389015294000,8.4342939453125,0.00007737497799098492,0.001057690940797329,0.0017894745105877519
1761509389035451000,8.454450927734374,0.002017450984567404,-0.0003010798245668411,0.001366576412692666
1761509389055609000,8.474609130859376,0.0005192332901060581,-0.0014053061604499817,0.0007397430017590523
1761509389075765800,8.494765869140625,0.0012349127791821957,0.0006358372047543526,-0.0009029200300574303
1761509389095924000,8.514924072265625,-0.00010761222802102566,0.0005904212594032288,0.000520230969414115
1761509389116081000,8.535080810546875,-0.0008397344499826431,0.0004940079525113106,0.000459382776170969
1761509389136237800,8.55523779296875,0.00021783914417028427,0.00142713263630867,0.00033725122921168804
1761509389156396000,8.57539599609375,-0.0013981687370687723,0.003112087957561016,-0.00020110956393182278
1761509389176553000,8.595552978515625,-0.002042105421423912,0.0008688503876328468,0.000014620134606957436
1761509389196711000,8.6157109375,0.0023052277974784374,0.0011285869404673576,-0.0007965785916894674
1761509389216867800,8.635867919921875,-0.000943825114518404,0.0008389651775360107,-0.0013643850106745958
1761509389237025000,8.65602490234375,0.00042364071123301983,0.0013794787228107452,-0.00022809463553130627
1761509389257182000,8.676181884765626,-0.0007960043149068952,-0.00019464362412691116,-0.0006342551205307245
1761509389277339000,8.6963388671875,-0.00003530597314238548,-0.00027805566787719727,-0.0007463132496923208
1761509389297497000,8.7164970703125,0.0014108715113252401,-0.00005295313894748688,-0.0009078916627913713
1761509389317654000,8.736654052734375,-0.00028615444898605347,0.000059009529650211334,-0.0006738216616213322
1761509389337812000,8.75681201171875,0.0006673622410744429,0.000685589388012886,0.0011629348155111074
1761509389357969200,8.77696923828125,0.0016439887695014477,-0.0018408363685011864,-0.000476666959002614
1761509389378125800,8.797125732421875,-0.000767702586017549,-0.003500591963529587,-0.0034446183126419783
1761509389398284000,8.817283935546875,-0.000601705745793879,0.0012420201674103737,-0.0011055334471166134
1761509389418440700,8.837440673828125,0.0013408043887466192,0.00101478211581707,0.000010735588148236275
1761509389438599000,8.857598876953125,0.001337341032922268,-0.00044989027082920074,0.002113617490977049
1761509389458756000,8.877756103515624,0.0041193002834916115,0.00023256707936525345,-0.0015573396813124418
1761509389478912800,8.897912841796876,0.0022610854357481003,-0.00011074356734752655,-0.00021102349273860455
1761509389499071000,8.918071044921875,-0.0018687628908082843,-0.0014963317662477493,-0.0005830854643136263
1761509389519228000,8.938227783203125,-0.0003525706706568599,0.0008689109236001968,0.0005319663323462009
1761509389539386000,8.95838623046875,-0.00011789239943027496,0.0015515368431806564,0.0012578140012919903
1761509389559542800,8.978542724609374,-0.000033698976039886475,0.0004540262743830681,0.0012205191887915134
1761509389579700000,8.998699951171876,0.0018967119976878166,-0.001498688943684101,-0.003285232000052929
1761509389599858000,9.01885791015625,0.0007642540149390697,0.0021918481215834618,-0.0000760355032980442
1761509389620014800,9.039014892578125,0.0011891787871718407,0.0017469832673668861,0.000003955792635679245
1761509389640173000,9.059173095703125,-0.0007256445242092013,0.0007561109960079193,-0.0008361509535461664
1761509389660329700,9.079329833984374,-0.001411838922649622,-0.000052949413657188416,-0.000825503608211875
1761509389680487000,9.09948681640625,-0.0008848945144563913,-0.0017026616260409355,-0.0014031562022864819
1761509389700644900,9.119644775390626,-0.0001504730898886919,0.00101371668279171,0.0004142061807215214
1761509389720801800,9.1398017578125,-0.00023449468426406384,-0.001815631054341793,-0.00003910181112587452
1761509389740960000,9.1599599609375,-0.00014440761879086494,0.0006409622728824615,0.0016104839742183685
1761509389761117000,9.180116943359375,-0.0014973789220675826,-0.0006209705024957657,0.0011523461434990168
1761509389781273900,9.20027392578125,0.0015065059997141361,-0.0025497451424598694,-0.0012400399427860975
1761509389801431800,9.220431884765626,0.0008316254243254662,-0.0019374685361981392,-0.0006173294968903065
1761509389821589000,9.240589111328125,-0.0014529576292261481,0.0011607343330979347,0.0005117480177432299
1761509389841747000,9.260746826171875,0.0012447440531104803,-0.0022065117955207825,-0.0013929815031588078
1761509389861904000,9.28090380859375,0.0006676348857581615,0.0011760927736759186,0.00044935080222785473
1761509389882061000,9.30106103515625,-0.001949234283529222,-0.001115967519581318,-0.002528050448745489
1761509389902218800,9.32121875,0.0007636691443622112,-0.0006081210449337959,-0.0004873797297477722
1761509389922376000,9.3413759765625,0.0004672827199101448,0.00046959519386291504,0.0014975795056670904
1761509389942534000,9.361533935546875,-0.00048549333587288857,0.0004609953612089157,0.000916588120162487
1761509389962690800,9.38169091796875,-0.000060892896726727486,-0.0009182319045066833,0.001571902772411704
1761509389982848800,9.401848876953125,0.000132780522108078,0.002069847658276558,0.0007259959820657969
1761509390003006000,9.422005859375,0.0021164757199585438,0.0018142713233828545,-0.0013507506810128689
1761509390023162600,9.44216259765625,0.00123188691213727,-0.0006649168208241463,-0.000754219014197588
1761509390043320600,9.462320556640625,-0.0006148829124867916,-0.0003384016454219818,0.0002921705599874258
1761509390063477800,9.482477783203125,-0.0007943714736029506,-0.00010474026203155518,0.0007721988949924707
1761509390083635500,9.502635498046875,-0.00004231301136314869,0.0007857047021389008,0.001206561690196395
1761509390103792600,9.522792724609374,0.00023978855460882187,-0.0002283891662955284,0.000033681513741612434
1761509390123949800,9.54294970703125,0.0005177534185349941,0.0021412940695881844,-0.0012341320980340242
1761509390144107500,9.563107421875,-0.0002776974579319358,0.0007468294352293015,-0.0007039939519017935
1761509390164264700,9.5832646484375,0.0009864710737019777,-0.00022749602794647217,-0.0007996249478310347
1761509390184422700,9.603422607421875,-0.0004212816711515188,-0.0010386686772108078,0.0010626425500959158
1761509390204579600,9.62357958984375,-0.0006012198282405734,0.0005702963098883629,0.002558652777224779
1761509390224736800,9.64373681640625,-0.002574966987594962,-0.000536629930138588,-0.001224501058459282
1761509390244894700,9.663894775390625,0.000478298868983984,0.0002515651285648346,-0.0003149730619043112
1761509390265051600,9.6840517578125,-0.00041697861161082983,-0.00033959466964006424,-0.0002236494328826666
1761509390285209600,9.704209716796875,0.001636700239032507,-0.001857689581811428,0.000027971109375357628
1761509390305366800,9.72436669921875,-0.000021453481167554855,0.0005063638091087341,-0.00033475644886493683
1761509390325523700,9.744523681640626,-0.0007610858883708715,-0.000004520639777183533,-0.00135410251095891
1761509390345681700,9.764681640625,0.00016309693455696106,0.0009466037154197693,-0.0002660148311406374
1761509390365838800,9.7848388671875,0.0004248027689754963,0.0008862782269716263,-0.001197202829644084
1761509390385996500,9.80499658203125,0.0034546498209238052,0.004308781586587429,-0.0012177769094705582
1761509390406153700,9.82515380859375,-0.0034016845747828484,0.0005470234900712967,-0.0022438373416662216
1761509390426310700,9.845310546875,-0.0006935123819857836,0.0006838152185082436,0.0025174992624670267
1761509390446468600,9.865468505859376,-0.0005021055694669485,-0.0008990494534373283,-0.0021593375131487846
1761509390466625800,9.885625732421875,0.0007975103799253702,0.0010200217366218567,0.0030728462152183056
1761509390486783700,9.90578369140625,-0.002101108431816101,0.0012588491663336754,0.00012092548422515392
1761509390506940700,9.925940673828125,0.0012770143803209066,0.0009758239611983299,-0.0013840312603861094
1761509390527097600,9.94609765625,-0.0003065643832087517,-0.0007959092035889626,-0.0031601891387254
1761509390547255800,9.966255859375,0.0023766416124999523,0.0011886302381753922,-0.0001540794037282467
1761509390567412700,9.986412841796875,0.0006944132037460804,0.00012890994548797607,-0.001541907899081707
1761509390587570700,10.00657080078125,0.00019724364392459393,0.001880209892988205,0.00020530936308205128
1761509390607727900,10.026727783203125,0.0012247692793607712,0.002023058943450451,-0.0006117250304669142
1761509390627885600,10.046885498046874,-0.0008804657263681293,0.0009007640182971954,-0.0017836587503552437
1761509390648042800,10.067042724609376,0.00013032276183366776,0.0019520260393619537,0.001065476331859827
1761509390668199700,10.08719970703125,0.0030818108934909105,0.001371254213154316,0.0001796102151274681
1761509390688357600,10.107357666015625,-0.0005465521244332194,0.0008331090211868286,0.0016648253658786416
1761509390708514800,10.127514892578125,0.0015245724935084581,0.002048395574092865,-0.0013659866526722908
1761509390728672800,10.1476728515625,-0.0009159600595012307,0.000787944532930851,0.001192465191707015
1761509390748829700,10.16782958984375,-0.0034885557834059,0.0010230159386992455,0.0009810903575271368
1761509390768986600,10.187986572265626,0.0005275271832942963,0.001942954957485199,-0.00034859427250921726
1761509390789144800,10.208144775390625,0.002180530922487378,-0.0013657398521900177,-0.0008666832000017166
1761509390809301500,10.228301513671875,0.0021989266388118267,0.001398988999426365,-0.0010874231811612844
1761509390829459700,10.248459716796875,0.0008596829138696194,0.002374407835304737,-0.0031949318945407867
1761509390849616600,10.26861669921875,-0.0006597777828574181,0.0014077173545956612,-0.0011909466702491045
1761509390869773600,10.288773681640626,0.000007304595783352852,0.0009056823328137398,0.0025633901823312044
1761509390889931800,10.308931884765625,-0.0024370381142944098,-0.0019184006378054619,0.0008080184925347567
1761509390910088700,10.329088623046875,-0.0006828822661191225,-0.0014979485422372818,0.0020511355251073837
1761509390930246700,10.34924658203125,0.0003880264703184366,0.0013853544369339943,0.00024614459834992886
1761509390950403600,10.369403564453124,0.0019275748636573553,0.001536819152534008,0.002465308178216219
1761509390970560800,10.389560791015626,-0.0008062245324254036,-0.001384633593261242,0.0021947529166936874
1761509390990718700,10.40971875,-0.0022228120360523462,0.001192537136375904,-0.00019171880558133125
1761509391010875600,10.429875732421875,-0.0029355234000831842,0.00004164408892393112,0.0007190131582319736
1761509391031033600,10.45003369140625,-0.0014591456856578588,-0.00046224240213632584,-0.0019042356871068478
1761509391051190500,10.4701904296875,-0.0004904103698208928,-0.0006204191595315933,0.00023406068794429302
1761509391071347500,10.490347412109376,0.0025632239412516356,-0.0003285398706793785,0.0011353266891092062
1761509391091505400,10.51050537109375,0.0009387028403580189,-0.001408400945365429,-0.00075521320104599
1761509391111662600,10.53066259765625,0.00010832305997610092,0.0015128236263990402,0.0008880491368472576
1761509391131820500,10.550820556640625,-0.002302459441125393,-0.002027689479291439,0.00011285394430160522
1761509391151977500,10.5709775390625,-0.0003043187316507101,0.0012569567188620567,0.0007863964419811964
1761509391172135700,10.5911357421875,-0.00014455709606409073,0.0012382538989186287,-0.00014917878434062004
1761509391192292400,10.611292236328126,-0.0003710504388436675,-0.0031001903116703033,0.00200086971744895
1761509391212449500,10.631449462890625,-0.0009488762589171529,0.0001499820500612259,-0.0023400699719786644
1761509391232607500,10.651607421875,-0.0028973412699997425,0.0010893475264310837,-0.0004413854330778122
1761509391252764400,10.671764404296875,-0.0024492130614817142,0.0013935677707195282,0.00011685979552567005
1761509391272922600,10.691922607421875,0.0005309625994414091,0.018113426864147186,0.018820710480213165
1761509391293079600,10.71207958984375,0.0013628415763378143,0.010828952305018902,0.02210932970046997
1761509391313236500,10.732236572265625,-0.0023023150861263275,0.009912172332406044,0.015470519661903381
1761509391333394400,10.75239453125,-0.0003798512043431401,0.0047443341463804245,0.006372135132551193
1761509391353551600,10.772551513671875,0.0011281243059784174,-0.0032213302329182625,0.00045159156434237957
1761509391373709600,10.79270947265625,0.0001276116818189621,-0.01099645160138607,-0.010054998099803925
1761509391393866500,10.812866455078124,0.0031485985964536667,-0.015693658962845802,-0.014711501076817513
1761509391414023400,10.8330234375,-0.0014862220268696547,0.0006985068321228027,0.0006320104002952576
